T,AX,AY,AZ,GX,GY,GZ
46,-3.943250,-0.047884,-6.993463,0.043567,0.014655,-0.122040
61,-3.806781,0.378284,-6.821081,-0.075675,0.042101,-0.069946
76,-3.888184,0.919373,-6.852205,-0.098591,0.063951,-0.006662
91,-3.823540,1.244985,-6.739678,-0.039570,0.065550,0.048763
106,-3.751714,1.077391,-6.897695,0.022649,0.068214,0.092596
121,-3.730166,0.418985,-6.792350,0.040769,0.088732,0.094861
136,-3.543418,0.112527,-6.742072,0.041302,0.096060,0.037838
151,-3.562572,-0.217872,-6.684611,0.021717,0.100057,-0.025580
166,-3.409343,-0.102951,-6.627150,-0.024648,0.102988,-0.086201
181,-3.380613,0.126893,-6.493075,-0.014256,0.077407,-0.128968
196,-3.414132,0.330400,-6.409278,0.010658,0.053959,-0.144423
211,-3.567360,0.509965,-6.356606,0.033574,0.010126,-0.120308
226,-3.385401,0.682347,-6.392519,0.044233,-0.038504,-0.054625
241,-3.502717,0.785298,-6.461950,0.035706,-0.089798,0.037038
256,-3.744531,0.754174,-6.414066,0.014922,-0.089665,0.128435
271,-3.955221,0.517148,-6.562507,-0.018519,-0.014522,0.195583
286,-3.643975,0.232238,-6.552930,0.007194,0.044766,0.166806
301,-3.332729,-0.090980,-6.490681,0.070346,0.065550,0.047564
316,-3.301604,-0.471658,-6.526594,0.111914,0.022383,-0.081804
331,-3.533842,-0.562637,-6.849811,0.093662,-0.040369,-0.166539
346,-3.699042,-0.289698,-6.835446,0.052093,-0.044366,-0.189188
361,-3.682282,-0.031125,-6.890512,0.005729,-0.041035,-0.157080
376,-3.720589,0.280122,-6.773197,-0.027712,-0.033175,-0.069147
391,-3.991134,0.469264,-6.849811,-0.066749,-0.000533,0.051427
406,-3.983952,0.675165,-6.859388,-0.076741,0.042501,0.131100
421,-3.940856,0.699107,-6.856994,-0.039170,0.063551,0.161743
436,-3.770868,0.311246,-6.766014,0.001332,0.124038,0.113513
451,-3.794810,-0.306458,-6.744466,0.016121,0.149485,0.030643
466,-3.416526,-0.347159,-6.643909,0.021717,0.121240,-0.082470
481,-3.409343,-0.342371,-6.598420,0.015855,0.067548,-0.170403
496,-3.428497,-0.095768,-6.483498,-0.001199,0.023982,-0.205309
511,-3.684676,0.225055,-6.464345,-0.007594,0.016121,-0.180395
526,-3.548207,0.452504,-6.555324,-0.015055,-0.011458,-0.094194
541,-3.727772,0.730232,-6.619967,-0.017054,-0.012657,0.012257
556,-3.816357,0.818817,-6.785168,0.003597,-0.021583,0.095260
571,-3.912126,0.744597,-6.816292,0.042767,-0.007861,0.123905
586,-4.039018,0.174777,-6.785168,0.054092,0.041568,0.102588
601,-3.828328,-0.160412,-6.866570,0.048629,0.113113,0.018919
616,-3.720589,-0.445322,-6.725312,0.042634,0.123639,-0.060620
631,-3.471592,-0.330400,-6.751649,0.017320,0.089531,-0.121507
646,-3.373430,0.095768,-6.665457,0.020651,0.035972,-0.152017
661,-3.368642,0.469264,-6.636727,0.087400,-0.033841,-0.145888
676,-3.778050,0.445322,-6.971915,0.140959,-0.067282,-0.103121
691,-4.058172,0.177171,-7.153874,0.104054,-0.017986,-0.018519
706,-4.101267,0.055067,-7.244854,0.012790,0.067149,0.058089
721,-4.043807,0.057461,-7.161057,-0.047830,0.158012,0.080472
736,-3.713407,0.119710,-7.070077,-0.030910,0.197049,0.038904
751,-3.591302,-0.143652,-6.933608,0.011591,0.197449,-0.029444
766,-3.222595,-0.177171,-6.670246,0.055691,0.136695,-0.095926
781,-3.277662,-0.237026,-6.667851,0.083802,0.073144,-0.145089
796,-3.361459,-0.189142,-6.754043,0.084868,0.030377,-0.158812
811,-3.560178,-0.076614,-6.763620,0.071545,0.039703,-0.139360
826,-3.521871,-0.004788,-6.667851,0.043700,0.041302,-0.096459
841,-3.483563,0.047884,-6.591237,0.004796,0.072744,-0.039037
856,-3.526659,0.189142,-6.610391,-0.026247,0.083936,0.015855
871,-3.608062,0.114922,-6.696582,-0.043300,0.102055,0.049029
886,-3.438074,0.033519,-6.694188,-0.023582,0.130833,0.026513
901,-3.220201,-0.105345,-6.548141,0.008926,0.103254,-0.022649
916,-3.232172,-0.371101,-6.639121,0.026247,0.083536,-0.064750
931,-3.232172,-0.294487,-6.617573,0.024115,0.050761,-0.090730
946,-3.347094,-0.067038,-6.591237,0.030910,0.014389,-0.101389
961,-3.246537,0.160412,-6.737284,0.051827,-0.011325,-0.088998
976,-3.306392,0.708684,-6.888118,0.153216,-0.020784,-0.075276
991,-3.552995,0.622492,-6.962338,0.293109,-0.016654,-0.057822
1006,-3.823540,-0.172383,-7.151480,0.288712,0.033841,-0.000400
1021,-3.734955,-0.972046,-7.098808,0.125904,0.084868,0.080205
1036,-3.524265,-1.230620,-6.943185,-0.075942,0.162142,0.094994
1051,-3.280056,-0.885855,-6.938396,-0.142957,0.144156,0.029977
1066,-3.354276,-0.531513,-6.885724,-0.098058,0.118709,-0.076874
1081,-3.327940,-0.292093,-6.780379,-0.033175,0.070746,-0.154948
1096,-3.409343,-0.105345,-6.730101,0.014123,0.060087,-0.177997
1111,-3.411737,-0.088585,-6.718130,0.025181,0.055025,-0.137361
1126,-3.488352,-0.158017,-6.763620,-0.021317,0.049695,-0.055424
1141,-3.344700,0.136469,-6.607996,-0.068081,0.052760,0.031842
1156,-3.263297,0.385466,-6.689399,-0.049962,0.035440,0.088865
1171,-3.318363,0.213084,-6.689399,0.028911,0.057289,0.076075
1186,-3.277662,0.114922,-6.682217,0.190254,0.045832,-0.018786
1201,-3.165135,-0.284910,-6.658275,0.336942,-0.001199,-0.128968
1216,-3.179500,-1.067814,-6.730101,0.343470,0.003331,-0.193718
1231,-3.232172,-1.323994,-6.809110,0.193452,-0.006928,-0.184126
1246,-3.177106,-0.972046,-6.627150,0.102588,-0.037038,-0.134697
1261,-3.562572,-0.888249,-6.933608,-0.048230,0.037704,-0.066216
1276,-3.220201,0.007183,-6.629544,-0.039969,-0.022116,0.003730
1291,-3.533842,-0.316035,-6.837840,-0.065550,0.054358,0.029844
1306,-3.201048,-0.215478,-6.813898,-0.032908,0.021317,0.015322
1321,-3.406949,-0.598550,-6.710947,-0.015588,0.057156,-0.034374
1336,-3.181894,-0.548272,-6.454768,-0.014655,0.124838,-0.087799
1351,-3.071761,-0.572214,-6.466739,-0.060354,0.058489,-0.090597
1366,-2.868254,-0.411803,-6.320693,-0.089398,0.013590,-0.071012
1381,-2.983175,0.021548,-6.306327,-0.064750,-0.028511,-0.017453
1396,-3.124433,0.328006,-6.622362,0.009459,-0.075276,0.034240
1411,-3.215413,0.301669,-6.823475,0.077274,-0.106985,0.086201
1426,-3.677494,0.189142,-6.969521,0.130433,-0.045565,0.126969
1441,-3.737349,-0.251391,-6.940791,0.120974,0.020384,0.162542
1456,-3.624821,-0.897826,-6.813898,0.059821,0.098591,0.154815
1471,-3.081337,-1.371878,-6.746861,-0.036239,0.081671,0.095793
1486,-3.028665,-1.201889,-6.732495,-0.065283,0.026113,0.016654
1501,-3.160346,-1.036689,-6.775591,-0.062219,-0.052093,-0.054225
1516,-3.385401,-0.641646,-6.799533,-0.053292,-0.064484,-0.084868
1531,-3.258508,-0.483629,-6.856994,-0.035972,-0.087933,-0.055557
1546,-3.320758,-0.438139,-6.892907,-0.044233,-0.085401,-0.002531
1561,-3.620033,-0.440533,-6.907272,-0.079939,-0.060487,0.065417
1576,-3.636792,-0.258574,-6.878541,-0.086067,-0.022916,0.104187
1591,-3.562572,-0.079009,-6.835446,-0.053959,0.006928,0.108450
1606,-3.509900,-0.258574,-7.062895,-0.002398,0.030910,0.075142
1621,-3.569755,-0.536301,-7.108385,0.061819,0.011191,0.013057
1636,-3.608062,-0.744597,-7.067683,0.091130,0.000933,-0.064884
1651,-3.581726,-0.914585,-7.180211,0.083536,-0.011991,-0.105919
1666,-3.660734,-0.905008,-7.091625,0.011058,0.009459,-0.098191
1681,-3.727772,-0.720655,-6.971915,-0.064217,0.023182,-0.049828
1696,-3.653552,-0.524330,-6.916849,-0.117776,0.042767,0.023049
1711,-3.454833,-0.270545,-6.943185,-0.131632,0.034240,0.090064
1726,-3.514688,-0.368707,-7.041347,-0.117510,0.041035,0.108717
1741,-3.541024,-0.351948,-7.113173,-0.045299,0.069946,0.043300
1756,-3.588908,-0.493206,-7.168240,0.053692,0.081538,-0.051827
1771,-3.500323,-0.715866,-7.098808,0.076874,0.094861,-0.120175
1786,-3.557784,-0.660800,-7.010222,0.036772,0.104853,-0.137361
1801,-3.406949,-0.603339,-6.691793,-0.009593,0.094727,-0.109250
1816,-3.517082,-0.373495,-6.675034,-0.056224,0.094194,-0.054225
1831,-3.323152,0.021548,-6.524199,-0.045965,0.081005,-0.009326
1846,-3.155558,0.304064,-6.469133,0.040502,0.043567,0.018386
1861,-3.248932,0.153229,-6.533776,0.116178,-0.001998,0.042234
1876,-3.344700,-0.227449,-6.713341,0.150551,-0.043833,0.071012
1891,-3.284845,-0.804452,-6.907272,0.112314,-0.051560,0.076208
1906,-3.215413,-1.144428,-7.053318,0.051560,-0.055424,0.054225
1921,-3.495534,-1.197101,-7.017405,-0.017986,0.001199,0.011191
1936,-3.536236,-1.048660,-7.077260,-0.053959,0.038371,-0.028778
1951,-3.505111,-0.756568,-6.825869,-0.061286,0.076208,-0.046631
1966,-3.241749,-0.526724,-6.892907,-0.032242,0.083802,-0.045432
1981,-3.165135,-0.517148,-6.830657,0.009992,0.073943,-0.029044
1996,-3.191471,-0.624887,-6.713341,0.021051,0.054358,0.000266
2011,-3.318363,-0.711078,-6.679822,0.003864,0.033041,0.029977
2026,-3.306392,-0.761356,-6.531382,-0.048096,0.037971,0.063951
2041,-3.055001,-0.588974,-6.452374,-0.083270,0.024914,0.087400
2056,-3.201048,-0.332794,-6.502652,-0.071945,0.010392,0.106985
2071,-3.246537,-0.368707,-6.574478,-0.017187,0.008260,0.095660
2086,-3.184288,-0.529119,-6.713341,0.071678,0.010658,0.038504
2101,-3.064578,-0.993594,-6.964733,0.139493,-0.004796,-0.030643
2116,-3.227384,-1.565808,-7.036559,0.103654,-0.019452,-0.087400
2131,-3.342305,-1.656788,-7.074866,0.010525,-0.028645,-0.122573
2146,-3.464410,-1.424550,-7.060501,-0.098325,0.003331,-0.114179
2161,-3.538630,-0.885855,-7.170634,-0.182260,0.048763,-0.077674
2176,-3.629610,-0.284910,-7.187393,-0.183593,0.136162,-0.035040
2191,-3.584120,-0.086191,-7.015011,-0.140426,0.180129,0.004130
2206,-3.306392,0.071826,-6.938396,-0.112181,0.188389,0.051294
2221,-3.172317,-0.069432,-6.689399,-0.100057,0.143490,0.102855
2236,-3.081337,-0.332794,-6.562507,-0.112181,0.125770,0.131632
2251,-3.011906,-0.342371,-6.562507,-0.101922,0.049962,0.107917
2266,-3.057395,-0.447716,-6.655880,-0.050495,-0.007594,0.056623
2281,-3.028665,-0.445322,-6.749255,0.012524,-0.051694,-0.012923
2296,-3.258508,-0.545878,-6.976704,0.090064,-0.033308,-0.090198
2311,-3.394978,-0.562637,-6.967127,0.137761,-0.002132,-0.135629
2326,-3.605668,-0.679953,-6.921637,0.139360,0.062752,-0.129234
2341,-3.292027,-0.780510,-7.012617,0.078740,0.097659,-0.071678
2356,-3.287239,-0.656011,-6.785168,0.007727,0.110715,-0.007061
2371,-3.234566,-0.663194,-6.617573,-0.052493,0.075542,0.061153
2386,-2.755726,-0.466869,-6.737284,-0.091930,-0.103121,0.085534
2401,-2.916138,-0.383072,-6.629544,-0.038637,0.027979,0.071279
2416,-3.086126,-0.430956,-6.607996,-0.010792,0.014789,0.045299
2431,-3.131616,-0.687136,-6.670246,0.036106,-0.013723,0.019319
2446,-2.961627,-0.876278,-6.706159,0.046631,-0.105652,0.002132
2461,-3.078943,-1.000776,-6.909666,0.031842,-0.068214,-0.037305
2476,-3.330334,-0.890643,-7.046135,0.066882,-0.023982,-0.070213
2491,-3.500323,-1.115698,-7.218518,0.063551,-0.008660,-0.106851
2506,-3.502717,-1.244985,-7.165845,0.032109,0.042501,-0.125637
2521,-3.406949,-1.206678,-6.981492,-0.015455,0.065150,-0.119109
2536,-3.244143,-1.144428,-6.921637,-0.067548,0.070613,-0.092329
2551,-3.148375,-0.993594,-6.634333,-0.128568,0.038504,-0.042101
2566,-3.198653,-0.696713,-6.497863,-0.160544,0.021717,0.004663
2581,-3.122039,-0.280122,-6.603208,-0.125237,-0.010525,0.031709
2596,-3.074155,-0.055067,-6.624756,-0.053159,-0.067282,0.045832
2611,-3.232172,-0.117316,-6.931214,0.013723,-0.112181,0.056490
2626,-3.548207,-0.313640,-6.967127,0.054625,-0.093928,0.082870
2641,-3.744531,-0.636858,-7.122750,0.044366,-0.006528,0.108983
2656,-3.552995,-1.051054,-7.244854,0.037305,0.117110,0.048363
2671,-3.150769,-1.175553,-7.038953,0.066482,0.150951,-0.049562
2686,-3.155558,-1.446098,-7.204153,0.070746,0.153083,-0.147753
2701,-3.102885,-1.498770,-6.931214,0.010792,0.119109,-0.185458
2716,-2.858677,-1.295263,-6.749255,-0.099257,0.102322,-0.162009
2731,-2.829946,-0.895431,-6.687005,-0.184259,0.032775,-0.082337
2746,-2.978387,-0.457293,-6.521805,-0.221297,0.001199,0.004130
2761,-3.160346,-0.062249,-6.751649,-0.190387,-0.048763,0.062619
2776,-3.145981,0.172383,-6.646304,-0.109383,-0.065683,0.084735
2791,-3.248932,0.138864,-6.804321,-0.013723,-0.048496,0.080871
2806,-3.335123,-0.241814,-6.878541,0.042900,-0.023582,0.071545
2821,-3.397372,-0.689530,-6.900089,0.050894,0.033574,0.044233
2836,-3.189077,-1.031901,-6.967127,0.042767,0.042234,-0.014522
2851,-2.961627,-1.094150,-6.864176,0.024381,0.034240,-0.081271
2866,-2.987964,-1.024718,-6.895301,0.022250,0.011058,-0.126969
2881,-3.167529,-0.926556,-6.739678,0.018519,-0.007594,-0.139093
2896,-3.265691,-0.914585,-6.842628,-0.014389,-0.028112,-0.101922
2911,-3.124433,-0.890643,-6.758832,-0.085934,-0.024914,-0.030910
2926,-3.210624,-0.723049,-6.730101,-0.157746,-0.026380,0.055691
2941,-3.313575,-0.450110,-6.730101,-0.184792,-0.030776,0.121374
2956,-3.289633,-0.160412,-6.811504,-0.162675,-0.031176,0.151750
2971,-3.239355,0.033519,-6.801927,-0.075409,-0.038237,0.146021
2986,-3.193865,0.021548,-6.861782,0.044100,-0.028645,0.116178
3001,-3.519476,-0.363919,-6.979098,0.120974,-0.002132,0.096193
3016,-3.514688,-1.086968,-7.043741,0.098591,0.040502,0.056890
3031,-3.201048,-1.268927,-6.876147,0.073277,0.057156,-0.021051
3046,-3.160346,-1.244985,-7.055712,0.057689,0.050228,-0.093662
3061,-3.232172,-1.216254,-7.079654,0.031043,0.004397,-0.125904
3076,-3.414132,-1.278504,-6.897695,-0.068348,0.029311,-0.085534
3091,-3.277662,-1.024718,-6.904878,-0.191320,0.035040,0.000266
3106,-3.177106,-0.687136,-6.813898,-0.249675,0.045165,0.062352
3121,-3.241749,-0.493206,-6.859388,-0.214502,0.060087,0.049296
3136,-3.224990,-0.316035,-6.703764,-0.103654,0.040769,-0.028778
3151,-3.184288,-0.385466,-6.732495,0.005862,0.008793,-0.095127
3166,-3.074155,-0.404620,-6.880936,0.047830,-0.021583,-0.104986
3181,-3.263297,-0.373495,-6.947973,0.040502,-0.025980,-0.050228
3196,-3.464410,-0.378284,-6.847417,0.010792,-0.015988,0.034640
3211,-3.550601,-0.150835,-6.797139,0.021717,0.009992,0.104054
3226,-3.380613,-0.165200,-6.926425,0.053559,0.048230,0.137228
3241,-3.490746,-0.758962,-7.129932,0.058222,0.090864,0.130433
3256,-3.318363,-1.333570,-6.969521,0.029311,0.126303,0.057423
3271,-3.150769,-1.582567,-6.928820,-0.005729,0.126703,-0.033041
3286,-2.868254,-1.572991,-6.928820,-0.071145,0.088599,-0.105386
3301,-2.995146,-1.314417,-6.749255,-0.111115,0.039303,-0.142158
3316,-3.043030,-0.900220,-6.629544,-0.133631,0.009593,-0.128701
3331,-3.086126,-0.533907,-6.612785,-0.120308,-0.031842,-0.081404
3346,-3.019088,-0.296881,-6.576872,-0.082337,-0.073677,-0.021450
3361,-3.186682,-0.167594,-6.639121,-0.039969,-0.100989,0.041968
3376,-3.311181,-0.258574,-6.703764,-0.003198,-0.080472,0.071812
3391,-3.457227,-0.691924,-6.787562,0.025314,-0.035972,0.045299
3406,-3.208230,-1.130063,-6.801927,0.030110,0.030377,-0.033574
3421,-3.009511,-1.182736,-6.720524,0.005063,0.019185,-0.101123
3436,-3.083732,-1.103727,-6.842628,-0.030910,-0.026779,-0.139760
3451,-3.373430,-0.845153,-6.842628,-0.073410,-0.043700,-0.130300
3466,-3.198653,-0.545878,-6.770802,-0.088199,-0.057689,-0.091530
3481,-3.227384,-0.213084,-6.794744,-0.091663,-0.067149,-0.000666
3496,-3.418920,-0.196325,-6.919243,-0.092596,-0.023582,0.108051
3511,-3.512294,0.002394,-6.993463,-0.059554,-0.002665,0.171469
3526,-3.457227,-0.055067,-7.113173,0.016521,0.040103,0.172801
3541,-3.280056,-0.605733,-6.974309,0.059288,0.043300,0.119109
3556,-3.112462,-1.053449,-6.967127,0.086734,0.056623,0.004263
3571,-3.179500,-1.441309,-7.058106,0.087400,0.016121,-0.106851
3586,-3.248932,-1.450886,-7.094019,0.026247,-0.013057,-0.163741
3601,-3.325546,-1.175553,-6.988675,-0.055025,-0.023049,-0.158279
3616,-3.332729,-0.725443,-6.921637,-0.109383,-0.009326,-0.098591
3631,-3.344700,-0.354342,-6.895301,-0.111381,-0.016654,-0.019851
3646,-3.433285,-0.088585,-6.921637,-0.087133,-0.018253,0.063418
3661,-3.392584,-0.100556,-6.955156,-0.065550,-0.013057,0.140959
3676,-3.433285,-0.107739,-6.974309,-0.037571,0.008926,0.181328
3691,-3.493140,-0.268151,-6.926425,-0.005862,0.040103,0.186124
3706,-3.505111,-0.632069,-6.809110,0.031975,0.067815,0.136695
3721,-3.181894,-0.957681,-6.794744,0.080871,0.077807,0.014922
3736,-3.009511,-1.199495,-6.801927,0.121507,0.041302,-0.108850
3751,-3.107674,-1.314417,-6.993463,0.126570,-0.005063,-0.187057
3766,-3.445256,-1.458069,-6.900089,0.068747,-0.004263,-0.188789
3781,-3.359065,-1.132457,-6.876147,-0.027446,0.003064,-0.127103
3796,-3.287239,-0.881066,-6.763620,-0.109250,0.012257,-0.024914
3811,-3.335123,-0.632069,-6.713341,-0.161610,0.019985,0.074343
3826,-3.287239,-0.246603,-6.710947,-0.144689,-0.007194,0.139093
3841,-3.258508,0.000000,-6.787562,-0.079806,-0.008394,0.157613
3856,-3.299210,0.040701,-6.916849,0.014256,-0.007727,0.145888
3871,-3.404555,-0.088585,-6.830657,0.110049,0.012657,0.130567
3886,-3.509900,-0.895431,-6.789956,0.133631,0.074743,0.082470
3901,-3.095703,-1.513135,-6.703764,0.109916,0.027845,0.004530
3916,-2.990358,-1.673547,-6.823475,0.038770,0.042501,-0.099391
3931,-2.952051,-1.465251,-6.677428,0.022916,-0.025980,-0.174666
3946,-3.275268,-1.398214,-6.866570,-0.013856,-0.022649,-0.192786
3961,-3.397372,-1.273715,-6.830657,-0.088199,-0.048763,-0.138827
3976,-3.519476,-1.103727,-7.003040,-0.195317,-0.044100,-0.025980
3991,-3.311181,-0.600945,-6.811504,-0.264064,-0.001732,0.078340
4006,-3.469198,-0.052672,-6.837840,-0.222096,-0.012657,0.140026
4021,-3.538630,0.131681,-6.856994,-0.117377,0.026247,0.154415
4036,-3.562572,-0.079009,-7.024588,-0.002398,0.065017,0.124038
4051,-3.342305,-0.799663,-6.964733,0.073677,0.123639,0.042900
4066,-2.973598,-1.403002,-6.845023,0.107384,0.079006,-0.083270
4081,-3.172317,-1.484405,-6.943185,0.071545,0.055691,-0.170136
4096,-3.035848,-1.266533,-6.785168,0.057689,-0.003464,-0.233421
4111,-3.088520,-0.960075,-6.655880,0.057423,-0.039303,-0.250075
4126,-3.327940,-1.113304,-6.646304,0.020518,-0.052227,-0.185858
4141,-3.404555,-1.053449,-6.715735,-0.086467,-0.014789,-0.067282
4156,-3.375824,-0.603339,-6.813898,-0.151351,-0.011724,0.050628
4171,-3.383007,-0.462081,-6.904878,-0.186391,0.024115,0.137761
4186,-3.330334,-0.043096,-6.854599,-0.152816,0.047564,0.150418
4201,-3.299210,-0.021548,-6.895301,-0.048496,0.058888,0.108850
4216,-3.292027,-0.299275,-6.936002,0.046897,0.063018,0.042234
4231,-3.093308,-0.866701,-6.871359,0.083669,0.062752,-0.044100
4246,-2.937685,-1.003170,-6.847417,0.075142,0.030643,-0.095660
4261,-3.076549,-1.084573,-6.708553,0.042634,0.011191,-0.100989
4276,-3.177106,-0.835576,-6.787562,0.015188,-0.001865,-0.077674
4291,-3.201048,-0.632069,-6.732495,0.009859,-0.007328,-0.038104
4306,-3.294421,-0.782904,-6.873753,-0.017720,0.001599,0.026913
4321,-3.509900,-0.957681,-6.962338,-0.078873,0.003864,0.094061
4336,-3.512294,-0.897826,-6.928820,-0.183593,0.053959,0.154681
4351,-3.354276,-0.471658,-6.837840,-0.223162,0.055424,0.180395
4366,-3.220201,-0.251391,-6.837840,-0.160011,0.052760,0.165340
4381,-3.052607,-0.529119,-6.713341,-0.027046,0.015855,0.101389
4396,-2.997540,-0.691924,-6.643909,0.051028,0.046364,-0.001199
4411,-3.069366,-1.043872,-6.763620,0.094461,0.001865,-0.075142
4426,-2.964022,-1.072602,-6.739678,0.098991,-0.032109,-0.115911
4441,-3.203442,-0.926556,-6.828263,0.085668,-0.035706,-0.112447
4456,-3.210624,-0.818817,-6.818686,0.079139,-0.030377,-0.089132
4471,-3.198653,-0.684742,-6.797139,0.087000,-0.030110,-0.041302
4486,-3.572149,-1.003170,-6.864176,0.027979,-0.010126,0.027312
4501,-3.490746,-0.914585,-6.890512,-0.052227,0.011591,0.091130
4516,-3.428497,-0.924162,-6.974309,-0.119508,0.026113,0.134430
4531,-3.323152,-0.905008,-6.981492,-0.170403,0.051294,0.155348
4546,-3.332729,-0.833182,-6.811504,-0.166939,0.076342,0.116577
4561,-3.287239,-0.746991,-6.737284,-0.069413,0.064351,0.023182
4576,-3.047819,-0.907402,-6.811504,0.020251,0.013057,-0.072478
4591,-2.952051,-0.988805,-6.809110,0.064750,0.003331,-0.141492
4606,-3.088520,-1.005565,-6.756437,0.077674,-0.022916,-0.160677
4621,-3.330334,-0.993594,-6.780379,0.053159,-0.024381,-0.126836
4636,-3.349488,-0.986411,-6.816292,0.006662,-0.012524,-0.066882
4651,-3.303998,-0.780510,-6.835446,-0.045165,-0.010525,0.000933
4666,-3.402161,-0.739808,-6.835446,-0.089665,0.020384,0.059021
4681,-3.404555,-0.732626,-6.770802,-0.117243,0.027579,0.095527
4696,-3.383007,-0.754174,-6.888118,-0.139626,0.031043,0.117910
4711,-3.174711,-0.555455,-6.816292,-0.117243,0.027845,0.094461
4726,-3.129222,-0.684742,-6.847417,-0.059554,0.019585,0.040769
4741,-3.186682,-0.897826,-6.780379,-0.008527,0.022649,-0.022649
4756,-3.174711,-0.924162,-6.696582,0.009593,-0.003997,-0.060487
4771,-3.122039,-0.802058,-6.811504,0.000400,-0.007861,-0.064617
4786,-3.069366,-0.711078,-6.665457,-0.009593,-0.028378,-0.034107
4801,-3.203442,-0.588974,-6.694188,0.000666,-0.033841,-0.001998
4816,-3.234566,-0.517148,-6.821081,0.036106,-0.049029,0.013456
4831,-3.404555,-0.617704,-6.878541,0.064617,-0.065283,0.027979
4846,-3.552995,-1.185130,-7.067683,-0.016521,-0.009726,0.056623
4861,-3.363853,-1.237802,-6.964733,-0.107251,0.006395,0.074609
4876,-3.505111,-1.314417,-7.050924,-0.181727,0.035040,0.073410
4891,-3.227384,-0.969652,-6.957550,-0.228625,0.075409,0.046231
4906,-3.088520,-0.469264,-6.895301,-0.168005,0.031576,0.007861
4921,-3.031059,-0.158017,-6.667851,-0.038504,-0.015455,-0.023715
4936,-3.311181,-0.500388,-6.789956,0.005196,0.007194,-0.043966
4951,-3.294421,-0.507571,-6.890512,0.041435,-0.041035,-0.033175
4966,-3.256114,-0.629675,-6.909666,0.041302,-0.036505,-0.017054
4981,-3.430891,-0.579397,-6.897695,0.039969,-0.032242,-0.003997
4996,-3.541024,-0.672771,-7.022193,0.027712,0.004663,0.002132
5011,-3.495534,-0.794875,-6.909666,-0.000799,0.038504,0.001998
5026,-3.308787,-0.773327,-6.785168,-0.011458,0.059021,-0.005862
5041,-3.196259,-0.847547,-6.847417,-0.026913,0.038104,-0.000533
5056,-3.397372,-1.077391,-6.821081,-0.085268,0.045698,0.029977
5071,-3.258508,-0.799663,-6.813898,-0.137228,0.044366,0.055824
5086,-3.172317,-0.474052,-6.773197,-0.114845,0.023715,0.060487
5101,-3.093308,-0.378284,-6.691793,-0.064750,0.016121,0.048629
5116,-3.145981,-0.541090,-6.809110,-0.010525,0.003331,0.022383
5131,-3.232172,-0.617704,-6.797139,0.032642,-0.019319,-0.009992
5146,-3.253720,-0.703895,-6.797139,0.069813,-0.031975,-0.037971
5161,-3.239355,-0.696713,-6.835446,0.079939,-0.033441,-0.050628
5176,-3.289633,-0.845153,-6.876147,0.072877,-0.025714,-0.045165
5191,-3.416526,-0.916979,-6.876147,0.039303,-0.027446,-0.013323
5206,-3.476381,-1.017536,-6.885724,-0.035706,0.001998,0.042368
5221,-3.380613,-0.806846,-6.847417,-0.105919,0.019319,0.098191
5236,-3.454833,-0.828394,-6.761226,-0.136029,0.042767,0.130700
5251,-3.354276,-0.773327,-6.859388,-0.133498,0.046897,0.115645
5266,-3.213019,-0.677559,-6.720524,-0.073544,0.025181,0.067149
5281,-2.899378,-0.526724,-6.789956,-0.005995,0.037172,-0.033974
5296,-3.502717,-1.165976,-6.816292,0.059421,-0.034240,-0.062086
5311,-3.138798,-0.962469,-6.588843,0.044632,-0.063152,-0.086867
5326,-3.502717,-0.936133,-6.847417,0.008260,-0.024781,-0.062352
5341,-3.354276,-0.737414,-6.907272,-0.010658,-0.046098,-0.020651
5356,-3.476381,-0.711078,-6.818686,-0.033841,0.010126,0.032375
5371,-3.696647,-0.732626,-7.089231,-0.042368,0.039969,0.078340
5386,-3.557784,-0.806846,-6.995857,-0.050228,0.069813,0.105786
5401,-3.361459,-0.861913,-6.754043,-0.070613,0.063418,0.118443
5416,-3.327940,-1.012747,-6.746861,-0.110315,0.065550,0.124172
5431,-3.292027,-1.122881,-6.732495,-0.133098,0.070879,0.084202
5446,-3.189077,-0.936133,-6.713341,-0.092329,0.037971,0.003198
5461,-3.062184,-0.931344,-6.754043,-0.027979,-0.007727,-0.075142
5476,-3.107674,-0.871489,-6.658275,0.007328,-0.044499,-0.131233
5491,-3.153164,-0.842759,-6.684611,0.015455,-0.073943,-0.138960
5506,-3.409343,-0.746991,-6.727706,0.002665,-0.088732,-0.105652
5521,-3.442862,-0.711078,-6.871359,-0.017853,-0.081937,-0.044100
5536,-3.608062,-0.665588,-7.098808,-0.054358,-0.044499,0.028378
5551,-3.797204,-0.620098,-7.218518,-0.093129,0.039037,0.070746
5566,-3.715801,-0.533907,-7.084443,-0.078340,0.072078,0.072345
5581,-3.605668,-0.577003,-7.132327,-0.073410,0.110848,0.067548
5596,-3.260903,-0.648829,-6.871359,-0.082737,0.097525,0.066083
5611,-3.155558,-0.811634,-6.619967,-0.077807,0.085534,0.026646
5626,-3.112462,-0.718261,-6.631938,-0.035706,0.033175,-0.037571
5641,-3.150769,-0.739808,-6.677428,0.003864,-0.019185,-0.085268
5656,-3.165135,-0.682347,-6.670246,0.025980,-0.046098,-0.107518
5671,-3.232172,-0.639252,-6.588843,0.025580,-0.074077,-0.091130
5686,-3.354276,-0.682347,-6.785168,0.009593,-0.082204,-0.050495
5701,-3.658340,-0.703895,-6.840234,-0.024115,-0.069547,0.011591
5716,-3.670311,-0.866701,-6.883330,-0.110049,0.008527,0.078340
5731,-3.610456,-0.617704,-6.904878,-0.159611,0.040502,0.122173
5746,-3.555389,-0.624887,-6.993463,-0.165740,0.084735,0.128968
5761,-3.299210,-0.486023,-6.900089,-0.130966,0.078207,0.104054
5776,-3.119645,-0.452504,-6.782773,-0.070213,0.057556,0.071412
5791,-3.055001,-0.612916,-6.811504,-0.019851,0.022649,0.035972
5806,-3.131616,-0.924162,-6.828263,0.006129,0.000533,0.003864
5821,-3.186682,-0.938527,-6.694188,0.022116,-0.012657,-0.030243
5836,-3.289633,-0.909797,-6.792350,0.028645,-0.025047,-0.044499
5851,-3.263297,-0.960075,-6.933608,0.021317,-0.028112,-0.044233
5866,-3.387795,-0.969652,-6.864176,-0.008660,-0.017187,-0.027046
5881,-3.648763,-1.010353,-6.969521,-0.045432,0.014922,0.002531
5896,-3.600879,-0.957681,-6.773197,-0.127369,0.071145,0.039836
5911,-3.452439,-0.806846,-6.782773,-0.165606,0.076208,0.062619
5926,-3.303998,-0.780510,-6.821081,-0.198115,0.094861,0.057822
5941,-3.232172,-0.588974,-6.603208,-0.178663,0.058622,0.031443
5956,-3.244143,-0.418985,-6.552930,-0.120041,0.025447,-0.010126
5971,-3.189077,-0.320823,-6.756437,-0.048096,-0.014655,-0.048230
5986,-3.248932,-0.440533,-6.833052,0.002931,-0.035706,-0.069813
6001,-3.342305,-0.565032,-6.957550,0.017187,-0.047830,-0.059554
6016,-3.459621,-0.533907,-6.952762,0.017986,-0.045565,-0.038504
6031,-3.457227,-0.565032,-7.010222,0.002531,-0.008660,-0.027579
6046,-3.301604,-0.507571,-6.988675,0.019185,0.014123,-0.038770
6061,-3.263297,-0.541090,-6.847417,0.053825,0.020518,-0.064750
6076,-3.440468,-0.871489,-6.828263,0.036372,0.023848,-0.061686
6091,-3.383007,-1.007959,-6.775591,-0.047963,0.029577,-0.024115
6106,-3.191471,-0.976834,-6.801927,-0.143357,0.033574,0.031043
6121,-3.277662,-0.679953,-6.852205,-0.198781,0.032508,0.066349
6136,-3.227384,-0.363919,-6.916849,-0.170669,0.019052,0.064750
6151,-3.208230,-0.253785,-6.809110,-0.096060,0.014123,0.043167
6166,-3.160346,-0.222661,-6.864176,-0.023848,0.012790,0.003064
6181,-3.335123,-0.541090,-6.921637,0.012124,0.015188,-0.017320
6196,-3.363853,-0.670376,-6.775591,0.015855,0.005329,-0.042501
6211,-3.406949,-0.524330,-6.873753,0.017853,-0.018919,-0.047697
6226,-3.466804,-0.462081,-6.916849,0.036372,-0.020251,-0.054758
6241,-3.536236,-0.282516,-6.976704,0.081271,-0.027179,-0.069680
6256,-3.794810,-0.399832,-7.010222,0.126170,-0.025847,-0.081671
6271,-4.027047,-0.840365,-7.048530,0.082337,-0.008527,-0.045565
6286,-4.034230,-1.371878,-6.976704,-0.111648,0.073677,0.043966
6301,-3.861847,-1.197101,-7.019799,-0.320288,0.127236,0.136296
6316,-3.131616,0.435745,-6.732495,-0.334544,0.165606,0.143224
6331,-3.976769,-0.129287,-7.268796,-0.197848,0.128168,0.076475
6346,-3.581726,-0.081403,-7.077260,-0.052227,0.071678,0.034640
6361,-3.196259,-0.074220,-6.907272,0.080072,0.042368,-0.011058
6376,-3.512294,-0.584185,-6.916849,0.105519,0.073544,-0.029178
6391,-3.488352,-0.653617,-6.861782,0.096193,0.048096,-0.024248
6406,-3.421314,-0.569820,-6.785168,0.081005,0.089931,-0.018386
6421,-3.167529,-0.385466,-6.677428,0.135629,0.065949,-0.028378
6436,-3.521871,-0.981623,-6.849811,0.122573,0.072478,0.009326
6451,-3.335123,-1.429338,-6.768408,-0.013057,0.114179,0.052760
6466,-3.169923,-1.307234,-6.766014,-0.121240,0.102588,0.096326
6481,-2.908955,-1.225831,-6.607996,-0.208507,0.121374,0.109783
6496,-2.861071,-0.737414,-6.533776,-0.206908,0.092462,0.079806
6511,-2.873042,-0.488417,-6.473921,-0.113113,0.047830,0.022649
6526,-2.896984,-0.385466,-6.447585,-0.001466,0.009193,-0.028378
6541,-2.851494,-0.586579,-6.543353,0.060221,-0.030643,-0.051427
6556,-2.913743,-0.821211,-6.677428,0.068348,-0.036639,-0.054225
6571,-3.227384,-0.938527,-6.770802,0.048363,-0.025980,-0.051294
6586,-3.184288,-0.893037,-6.639121,0.034107,0.023315,-0.050361
6601,-3.026271,-0.749385,-6.722918,0.046897,0.034107,-0.063285
6616,-3.009511,-1.108515,-6.797139,0.026113,0.028245,-0.062352
6631,-2.940080,-1.206678,-6.677428,-0.045698,0.003597,-0.052626
6646,-3.134010,-1.316811,-6.665457,-0.155747,-0.005063,-0.015588
6661,-2.743755,-0.883460,-6.706159,-0.234487,-0.020384,0.010126
6676,-2.861071,-0.442927,-6.715735,-0.224761,-0.039303,0.005596
6691,-2.995146,-0.131681,-6.746861,-0.143357,-0.070746,-0.022516
6706,-3.100491,-0.076614,-6.830657,-0.042368,-0.088199,-0.059688
6721,-3.196259,-0.268151,-6.883330,0.004796,-0.084202,-0.071012
6736,-3.196259,-0.375890,-6.938396,0.007328,-0.053825,-0.061553
6751,-3.294421,-0.512359,-6.952762,-0.021983,-0.031709,-0.041968
6766,-3.287239,-0.404620,-6.828263,-0.032642,-0.035839,-0.028645
6781,-3.356671,-0.581791,-6.761226,-0.061420,-0.029444,-0.000533
6796,-3.062184,-0.371101,-6.785168,-0.098858,-0.040369,0.020651
6811,-3.306392,-0.351948,-6.799533,-0.111115,-0.056224,0.041835
6826,-3.327940,-0.390255,-6.780379,-0.130700,-0.071412,0.064217
6841,-3.368642,-0.043096,-6.878541,-0.104720,-0.080871,0.069813
6856,-3.371036,0.021548,-6.856994,-0.052360,-0.082204,0.066083
6871,-3.409343,-0.179565,-6.868965,-0.005862,-0.073410,0.047564
6886,-3.567360,-0.411803,-6.921637,0.020784,-0.061153,0.034107
6901,-3.507505,-0.426168,-6.943185,0.039303,-0.074476,0.025847
6916,-3.514688,-0.493206,-6.979098,0.041035,-0.063418,0.019319
6931,-3.600879,-0.500388,-7.019799,0.043833,-0.062485,0.020118
6946,-3.780444,-0.727837,-7.086837,0.013190,-0.076208,0.037438
6961,-3.785233,-0.746991,-7.082048,-0.033041,-0.007328,0.062885
6976,-3.722984,-0.679953,-7.022193,-0.058888,-0.011591,0.079939
6991,-3.648763,-0.715866,-6.991069,-0.068214,-0.006662,0.082204
7006,-3.713407,-0.691924,-6.900089,-0.062619,0.008527,0.069813
7021,-3.696647,-0.658405,-6.919243,-0.033841,-0.006528,0.042234
7036,-3.562572,-0.629675,-6.936002,0.001066,-0.022649,0.010925
7051,-3.569755,-0.766145,-7.019799,0.014922,-0.020251,-0.006795
7066,-3.620033,-0.751779,-7.168240,0.021983,-0.012257,-0.020118
7081,-3.773262,-0.840365,-7.180211,0.029844,-0.006928,-0.031842
7096,-3.883395,-0.861913,-7.151480,0.005862,0.030377,-0.032775
7111,-3.811569,-0.782904,-7.122750,-0.027312,0.074876,-0.029711
7126,-3.684676,-0.811634,-6.943185,-0.070479,0.127769,-0.024381
7141,-3.730166,-0.639252,-6.880936,-0.082070,0.121640,-0.015188
7156,-3.627216,-0.689530,-6.799533,-0.098858,0.130567,-0.002265
7171,-3.356671,-0.464475,-6.722918,-0.091130,0.099524,0.006795
7186,-3.251326,-0.459687,-6.622362,-0.063685,0.072744,0.007594
7201,-3.457227,-0.476446,-6.591237,-0.033308,0.054092,0.000666
7216,-3.411737,-0.454898,-6.588843,-0.014256,0.041835,-0.006528
7231,-3.311181,-0.383072,-6.636727,0.004663,0.032642,-0.008926
7246,-3.270479,-0.469264,-6.687005,0.022516,0.034107,-0.011058
7261,-3.605668,-0.665588,-6.811504,0.014389,0.052493,0.001199
7276,-3.524265,-0.778116,-6.876147,-0.009326,0.092462,0.005995
7291,-3.299210,-0.687136,-6.792350,-0.012257,0.079006,-0.001998
7306,-3.323152,-0.876278,-6.842628,-0.015188,0.096060,-0.021450
7321,-3.263297,-0.706289,-6.701370,-0.019718,0.063818,-0.028112
7336,-3.335123,-0.854730,-6.677428,-0.028645,0.064750,-0.027845
7351,-3.193865,-0.617704,-6.785168,-0.029444,0.032375,-0.019185
7366,-3.148375,-0.610521,-6.672640,-0.023049,0.038637,-0.003331
7381,-3.339911,-0.648829,-6.804321,-0.027579,0.040769,0.012257
7396,-3.421314,-0.622492,-6.818686,-0.020651,0.057423,0.013456
7411,-3.402161,-0.782904,-6.809110,-0.014655,0.104054,-0.003730
7426,-3.184288,-0.869095,-6.809110,-0.034773,0.121907,-0.012257
7441,-3.043030,-0.837971,-6.794744,-0.058755,0.110449,-0.012657
7456,-3.007117,-0.787692,-6.629544,-0.069813,0.068348,-0.022383
7471,-3.045424,-0.627281,-6.591237,-0.057423,0.038504,-0.029711
7486,-2.904167,-0.541090,-6.545747,-0.043167,0.004930,-0.027046
7501,-2.954445,-0.627281,-6.591237,-0.039436,-0.008527,-0.023715
7516,-2.980781,-0.641646,-6.651092,-0.030643,-0.024781,-0.029711
7531,-3.019088,-0.672771,-6.533776,-0.027179,-0.030377,-0.044899
7546,-2.861071,-0.529119,-6.648698,-0.038637,-0.041568,-0.045299
7561,-2.999935,-0.466869,-6.694188,-0.016787,-0.038637,-0.052626
7576,-3.086126,-0.421380,-6.758832,0.006262,-0.033175,-0.063152
7591,-3.110068,-0.541090,-6.727706,0.020917,-0.036505,-0.060887
7606,-3.086126,-0.586579,-6.643909,0.003730,-0.047430,-0.051294
7621,-3.019088,-0.651223,-6.665457,-0.032508,-0.034240,-0.039170
7636,-3.289633,-0.435745,-6.847417,-0.047564,-0.046098,-0.029844
7651,-3.239355,-0.402226,-6.856994,-0.026247,-0.040636,-0.027446
7666,-3.153164,-0.438139,-6.734890,-0.023848,-0.052893,-0.033574
7681,-3.239355,-0.375890,-6.856994,-0.004130,-0.061420,-0.030910
7696,-3.258508,-0.533907,-6.768408,-0.009859,-0.052093,-0.021184
7711,-3.375824,-0.433351,-6.792350,-0.012524,-0.070479,-0.002132
7726,-3.435679,-0.569820,-6.804321,-0.009593,-0.078740,-0.008660
7741,-3.327940,-0.395043,-6.818686,0.013456,-0.092729,-0.003997
7756,-3.505111,-0.541090,-6.830657,0.006928,-0.057956,-0.000400
7771,-3.605668,-0.567426,-6.993463,-0.000400,-0.066216,0.016254
7786,-3.581726,-0.577003,-6.854599,0.000133,-0.055824,0.020917
7801,-3.287239,-0.464475,-6.766014,0.011191,-0.065816,0.030377
7816,-3.737349,-0.634463,-6.945579,0.016121,-0.012391,0.035173
7831,-3.790021,-0.679953,-6.864176,0.021850,-0.047031,0.040236
7846,-3.689465,-0.665588,-7.015011,0.020784,-0.024515,0.038237
7861,-3.665523,-0.811634,-6.959944,0.027312,-0.009726,0.030510
7876,-3.694253,-0.837971,-7.005434,0.016254,0.014922,0.025580
7891,-3.677494,-0.897826,-6.998251,0.037971,0.007461,0.021450
7906,-3.756502,-1.019930,-6.864176,0.028645,0.014123,0.015721
7921,-3.545813,-0.993594,-6.981492,0.003864,0.013723,0.016521
7936,-3.421314,-1.007959,-6.919243,-0.015188,-0.002798,0.008260
7951,-3.725378,-1.098939,-6.854599,-0.037438,-0.014522,-0.009593
7966,-3.675100,-1.010353,-6.789956,-0.037704,-0.013723,-0.035440
7981,-3.581726,-0.866701,-6.924031,-0.034374,0.002931,-0.047031
7996,-3.617639,-0.818817,-6.840234,-0.021450,0.015588,-0.048763
8011,-3.533842,-0.821211,-6.849811,-0.004796,0.016254,-0.051960
8026,-3.670311,-0.833182,-6.900089,0.002398,0.016121,-0.045299
8041,-3.653552,-0.924162,-6.864176,-0.015988,0.020651,-0.029044
8056,-3.615244,-1.103727,-6.801927,-0.056224,0.024248,-0.021583
8071,-3.679888,-0.912191,-7.015011,-0.091796,0.040369,-0.020917
8086,-3.720589,-0.809240,-6.739678,-0.094461,0.056490,-0.023315
8101,-3.600879,-0.653617,-6.770802,-0.078873,0.054625,-0.024515
8116,-3.502717,-0.615310,-6.777985,-0.042101,0.065683,-0.031842
8131,-3.588908,-0.787692,-6.971915,-0.032908,0.067149,-0.029577
8146,-3.658340,-0.790087,-6.861782,-0.043433,0.073943,-0.022516
8161,-3.548207,-0.766145,-6.828263,-0.041168,0.076741,-0.024248
8176,-3.560178,-0.651223,-6.789956,-0.048363,0.094861,-0.015055
8191,-3.390190,-0.775721,-6.828263,-0.037838,0.084735,-0.017720
8206,-3.416526,-0.696713,-6.746861,-0.048096,0.079539,-0.008793
8221,-3.392584,-0.749385,-6.660669,-0.044766,0.065550,-0.005196
8236,-3.306392,-0.758962,-6.763620,-0.058489,0.073144,0.005329
8251,-3.239355,-0.790087,-6.725312,-0.063152,0.074476,0.004663
8266,-3.349488,-0.737414,-6.727706,-0.053559,0.062752,-0.011858
8281,-3.411737,-0.708684,-6.821081,-0.039303,0.061953,-0.021583
8296,-3.244143,-0.660800,-6.663063,-0.029178,0.055691,-0.031043
8311,-3.263297,-0.758962,-6.830657,-0.031975,0.059021,-0.036639
8326,-3.325546,-0.823605,-6.675034,-0.031309,0.047697,-0.042900
8341,-3.394978,-0.770933,-6.766014,-0.039170,0.059155,-0.037838
8356,-3.320758,-0.737414,-6.854599,-0.054358,0.063152,-0.031176
8371,-3.167529,-0.670376,-6.710947,-0.062086,0.068081,-0.032109
8386,-3.145981,-0.572214,-6.758832,-0.052626,0.072611,-0.016920
8401,-3.141193,-0.646434,-6.837840,-0.055158,0.064484,-0.007461
8416,-3.019088,-0.562637,-6.804321,-0.060221,0.037305,-0.006528
8431,-3.186682,-0.684742,-6.861782,-0.049296,0.021717,-0.009726
8446,-3.248932,-0.742203,-6.873753,-0.037305,0.021051,-0.025314
8461,-3.162740,-0.644040,-6.813898,-0.029444,0.021317,-0.030243
8476,-3.184288,-0.689530,-6.770802,-0.043034,0.049296,-0.030776
8491,-3.169923,-0.694318,-6.833052,-0.057289,0.044899,-0.021051
8506,-3.114856,-0.742203,-6.742072,-0.058222,0.039969,-0.015988
8521,-3.028665,-0.701501,-6.619967,-0.063951,0.037971,-0.004263
8536,-2.935291,-0.560243,-6.619967,-0.044366,0.020917,-0.005596
8551,-3.071761,-0.672771,-6.722918,-0.036505,0.023182,-0.011458
8566,-3.157952,-0.723049,-6.619967,-0.037971,0.033041,-0.021184
8581,-3.045424,-0.667982,-6.536170,-0.049562,0.019851,-0.016654
8596,-2.930503,-0.533907,-6.550536,-0.060087,0.001865,-0.007194
8611,-2.935291,-0.519542,-6.550536,-0.058489,-0.020784,-0.003331
8626,-3.050213,-0.507571,-6.612785,-0.051028,-0.045032,0.004397
8641,-3.150769,-0.411803,-6.543353,-0.037305,-0.062619,0.011858
8656,-3.066972,-0.426168,-6.596025,-0.020917,-0.081404,0.009459
8671,-3.112462,-0.512359,-6.631938,-0.003464,-0.088998,-0.004263
8686,-3.215413,-0.533907,-6.734890,0.016254,-0.092995,-0.014256
8701,-3.349488,-0.538695,-6.797139,0.032508,-0.106452,-0.017587
8716,-3.344700,-0.538695,-6.813898,0.021583,-0.101655,-0.000799
8731,-3.397372,-0.596156,-6.916849,0.001066,-0.104720,0.025314
8746,-3.452439,-0.732626,-6.859388,-0.037838,-0.106985,0.053825
8761,-3.663129,-0.605733,-7.029376,-0.036639,-0.100323,0.070479
8776,-3.667917,-0.588974,-6.936002,-0.029844,-0.093129,0.082870
8791,-3.624821,-0.667982,-7.127538,-0.022250,-0.074876,0.079139
8806,-3.727772,-0.737414,-7.010222,-0.019452,-0.052360,0.072345
8821,-3.778050,-0.893037,-6.916849,-0.021450,-0.042234,0.051028
8836,-3.775656,-0.818817,-6.952762,-0.026646,-0.023449,0.035440
8851,-3.596091,-0.691924,-6.914454,-0.018786,-0.018919,0.023315
8866,-3.699042,-0.725443,-6.914454,0.004530,-0.016254,0.016254
8881,-3.749320,-0.802058,-6.969521,0.018519,0.005329,0.011191
8896,-3.720589,-0.828394,-6.947973,0.025714,0.005862,0.012257
8911,-3.660734,-0.852336,-6.940791,0.011458,0.023582,0.020784
8926,-3.727772,-0.972046,-7.010222,-0.012124,0.029844,0.025447
8941,-3.744531,-0.976834,-6.988675,-0.036372,0.050894,0.021717
8956,-3.694253,-0.866701,-6.876147,-0.054358,0.052093,0.015855
8971,-3.562572,-0.696713,-6.837840,-0.043034,0.057023,0.003864
8986,-3.538630,-0.667982,-6.852205,-0.013057,0.055025,-0.008394
9001,-3.567360,-0.699107,-6.813898,0.005729,0.047031,-0.005729
9016,-3.629610,-0.854730,-6.761226,0.002398,0.053559,0.006795
9031,-3.459621,-0.866701,-6.804321,-0.012657,0.064617,0.005462
9046,-3.421314,-0.881066,-6.777985,-0.017054,0.078074,0.000666
9061,-3.569755,-0.924162,-6.754043,-0.018386,0.075675,-0.004130
9076,-3.493140,-0.912191,-6.703764,-0.036372,0.068881,-0.006928
9091,-3.363853,-0.790087,-6.660669,-0.043700,0.059554,-0.002132
9106,-3.277662,-0.768539,-6.617573,-0.045698,0.047564,0.005462
9121,-3.356671,-0.761356,-6.596025,-0.049695,0.044366,0.011724
9136,-3.402161,-0.785298,-6.715735,-0.040502,0.025314,0.017187
9151,-3.450045,-0.742203,-6.655880,-0.031576,0.027179,0.016521
9166,-3.303998,-0.794875,-6.766014,-0.036372,0.029977,0.014922
9181,-3.363853,-0.715866,-6.720524,-0.024248,0.030110,0.008260
9196,-3.493140,-0.821211,-6.856994,-0.022116,0.056357,0.002265
9211,-3.366247,-0.835576,-6.782773,-0.032508,0.068481,-0.002132
9226,-3.193865,-0.818817,-6.856994,-0.039303,0.049962,-0.005196
9241,-3.265691,-0.854730,-6.787562,-0.045832,0.030377,-0.015188
9256,-3.344700,-0.866701,-6.801927,-0.058222,0.020784,-0.015588
9271,-3.313575,-0.737414,-6.775591,-0.072877,0.015588,-0.007061
9286,-3.148375,-0.718261,-6.725312,-0.096459,0.007194,0.002265
9301,-3.165135,-0.646434,-6.706159,-0.079806,0.007194,0.001066
9316,-3.294421,-0.636858,-6.653486,-0.067015,0.009859,-0.003064
9331,-3.263297,-0.526724,-6.596025,-0.046231,0.012923,-0.007061
9346,-3.251326,-0.481235,-6.665457,-0.021583,0.009193,-0.015055
9361,-3.093308,-0.600945,-6.679822,-0.009593,0.014789,-0.017054
9376,-3.114856,-0.608127,-6.524199,-0.001998,0.008394,-0.021583
9391,-3.196259,-0.675165,-6.629544,0.005462,-0.013190,-0.021317
9406,-3.148375,-0.656011,-6.641515,0.005862,-0.022783,-0.020784
9421,-3.153164,-0.627281,-6.619967,-0.001732,-0.049828,-0.017720
9436,-3.303998,-0.706289,-6.818686,-0.030776,-0.044499,-0.005063
9451,-3.411737,-0.646434,-6.643909,-0.059288,-0.048363,0.016521
9466,-3.325546,-0.512359,-6.713341,-0.059421,-0.033841,0.028911
9481,-3.222595,-0.414197,-6.672640,-0.042101,-0.029711,0.038237
9496,-3.277662,-0.550666,-6.742072,-0.026779,-0.022250,0.038371
9511,-3.375824,-0.579397,-6.548141,-0.012923,-0.047830,0.028378
9526,-3.313575,-0.708684,-6.763620,-0.019851,-0.046764,0.015455
9541,-3.327940,-0.517148,-6.703764,-0.010925,-0.061286,0.001466
9556,-3.502717,-0.667982,-6.830657,-0.002931,-0.068481,-0.003064
9571,-3.672705,-0.694318,-6.799533,-0.003064,-0.073144,0.005196
9586,-3.569755,-0.715866,-6.789956,-0.018652,-0.066083,0.027979
9601,-3.560178,-0.768539,-6.773197,-0.063551,-0.060221,0.058888
9616,-3.517082,-0.672771,-6.825869,-0.080338,-0.061286,0.074609
9631,-3.620033,-0.691924,-6.828263,-0.064084,-0.063551,0.072877
9646,-3.725378,-0.766145,-6.974309,-0.044499,-0.049695,0.053825
9661,-3.672705,-0.672771,-6.840234,-0.024781,-0.016387,0.035040
9676,-3.536236,-0.696713,-6.806715,-0.007061,0.001199,0.018253
9691,-3.701436,-0.739808,-6.861782,0.006528,-0.007328,-0.001199
9706,-3.785233,-0.744597,-6.864176,0.013989,-0.006528,-0.006795
9721,-3.684676,-0.751779,-6.861782,0.017453,-0.004796,-0.000533
9736,-3.701436,-0.828394,-6.845023,0.005063,0.002665,0.011191
9751,-3.801992,-0.916979,-6.909666,-0.020384,0.002265,0.022783
9766,-3.888184,-0.895431,-6.974309,-0.043833,0.014256,0.030110
9781,-3.766079,-0.964863,-6.947973,-0.058755,0.020118,0.023848
9796,-3.651158,-0.864307,-6.864176,-0.077541,0.049695,0.012391
9811,-3.699042,-0.790087,-6.811504,-0.081404,0.045832,-0.000133
9826,-3.734955,-0.627281,-6.871359,-0.061553,0.039836,-0.003464
9841,-3.691859,-0.555455,-6.842628,-0.032242,0.033441,0.000133
9856,-3.576937,-0.615310,-6.821081,-0.016787,0.037571,0.013856
9871,-3.658340,-0.696713,-6.900089,-0.016920,0.045165,0.030110
9886,-3.675100,-0.670376,-6.912060,-0.006928,0.063152,0.031842
9901,-3.782839,-0.969652,-6.780379,-0.000799,0.093528,0.010658
9916,-3.375824,-1.024718,-6.823475,-0.024648,0.104587,-0.011191
9931,-3.251326,-1.120486,-6.598420,-0.055025,0.103521,-0.018652
9946,-3.256114,-0.900220,-6.560112,-0.078606,0.071412,-0.019718
9961,-3.205836,-0.746991,-6.332664,-0.075542,0.047297,-0.012524
9976,-3.093308,-0.718261,-6.428432,-0.055291,0.013590,-0.005862
9991,-2.959233,-0.701501,-6.311116,-0.046631,-0.018253,0.001599
10006,-3.131616,-0.790087,-6.428432,-0.042634,-0.041968,0.005063
10021,-3.196259,-0.672771,-6.404490,-0.039436,-0.057156,0.002665
10036,-3.301604,-0.442927,-6.531382,-0.003064,-0.058222,-0.012257
10051,-3.301604,-0.735020,-6.670246,0.030510,-0.019985,-0.041168
10066,-3.335123,-0.950498,-6.754043,0.021717,0.012790,-0.074343
10081,-3.172317,-1.077391,-6.768408,-0.001732,-0.002265,-0.104720
10096,-3.213019,-0.974440,-6.706159,-0.039436,-0.055291,-0.109116
10111,-3.215413,-0.775721,-6.696582,-0.079806,-0.096193,-0.095260
10126,-3.402161,-0.603339,-6.708553,-0.096459,-0.124438,-0.067815
10141,-3.660734,-0.416591,-6.756437,-0.089531,-0.130833,-0.040902
10156,-3.706224,-0.323217,-6.806715,-0.063551,-0.099391,-0.027179
10171,-3.687071,-0.213084,-6.833052,-0.044366,-0.081005,-0.011724
10186,-3.756502,-0.248997,-6.921637,-0.029178,-0.070346,-0.000266
10201,-3.804386,-0.225055,-7.038953,-0.017587,-0.054358,0.016654
10216,-3.821146,-0.237026,-6.883330,0.011858,-0.040502,0.027712
10231,-3.732560,-0.299275,-6.876147,0.015988,-0.019319,0.040769
10246,-3.694253,-0.466869,-6.811504,0.015188,-0.026113,0.057556
10261,-3.799598,-0.588974,-6.751649,-0.009992,-0.032242,0.076608
10276,-3.904943,-0.588974,-6.837840,-0.035306,-0.041835,0.109116
10291,-3.816357,-0.548272,-6.895301,-0.054092,-0.031576,0.119642
10306,-3.921702,-0.555455,-6.926425,-0.042234,0.003730,0.106718
10321,-4.003105,-0.679953,-6.995857,-0.028378,0.029577,0.082070
10336,-4.098873,-0.660800,-6.890512,-0.004663,0.051028,0.059821
10351,-3.857059,-0.632069,-6.974309,0.017853,0.061819,0.043966
10366,-3.842694,-0.725443,-6.873753,0.022383,0.069946,0.037571
10381,-3.804386,-0.763750,-6.782773,0.025047,0.057956,0.048496
10396,-3.933673,-0.895431,-6.833052,0.023582,0.058622,0.057023
10411,-3.909731,-0.976834,-6.799533,0.005729,0.053692,0.065417
10426,-3.857059,-1.063026,-6.835446,-0.015721,0.074343,0.060487
10441,-3.835511,-1.022324,-6.900089,-0.010792,0.085934,0.042234
10456,-3.928885,-1.187524,-6.835446,-0.017587,0.108850,0.021983
10471,-3.696647,-1.156399,-6.821081,-0.037704,0.101389,0.006129
10486,-3.624821,-0.962469,-6.766014,-0.030377,0.089132,-0.008260
10501,-3.608062,-0.967257,-6.706159,-0.015721,0.097525,-0.020917
10516,-3.648763,-0.972046,-6.612785,-0.008926,0.103920,-0.029044
10531,-3.541024,-0.967257,-6.624756,-0.012524,0.106851,-0.025181
10546,-3.354276,-0.950498,-6.509834,-0.022250,0.105786,-0.028511
10561,-3.198653,-0.914585,-6.528988,-0.023449,0.101522,-0.033574
10576,-3.248932,-0.940921,-6.409278,-0.023982,0.087933,-0.051294
10591,-3.277662,-1.051054,-6.469133,-0.029178,0.075809,-0.069680
10606,-3.055001,-0.919373,-6.411672,-0.041435,0.087133,-0.081271
10621,-2.940080,-0.809240,-6.325481,-0.042234,0.051560,-0.086334
10636,-2.999935,-0.902614,-6.253655,-0.062086,0.019851,-0.076342
10651,-2.997540,-0.768539,-6.339846,-0.081671,-0.002398,-0.068348
10666,-2.920926,-0.670376,-6.370971,-0.077807,-0.021051,-0.063018
10681,-2.892196,-0.471658,-6.483498,-0.068747,-0.039703,-0.061819
10696,-3.090914,-0.421380,-6.476315,-0.037571,-0.060354,-0.063418
10711,-3.213019,-0.543484,-6.488286,-0.029711,-0.070479,-0.066349
10726,-3.093308,-0.541090,-6.452374,-0.037172,-0.071145,-0.061286
10741,-3.066972,-0.445322,-6.555324,-0.031043,-0.101655,-0.056623
10756,-3.253720,-0.399832,-6.603208,-0.029844,-0.105652,-0.044100
10771,-3.426103,-0.433351,-6.533776,-0.016654,-0.142824,-0.031443
10786,-3.548207,-0.399832,-6.684611,0.000933,-0.163608,-0.014789
10801,-3.655946,-0.658405,-6.770802,-0.034507,-0.146421,0.020384
10816,-3.828328,-0.634463,-6.806715,-0.086201,-0.122173,0.053959
10831,-4.000711,-0.588974,-6.916849,-0.110315,-0.078473,0.077407
10846,-3.967192,-0.531513,-6.933608,-0.109783,-0.032908,0.084469
10861,-3.708618,-0.363919,-6.895301,-0.086600,-0.018919,0.081671
10876,-3.639187,-0.268151,-6.799533,-0.037571,-0.025580,0.060753
10891,-4.264073,-0.794875,-7.094019,-0.001599,-0.046897,0.049162
10906,-3.818752,-0.586579,-6.897695,0.046098,-0.081271,0.037038
10921,-3.849876,-0.660800,-6.828263,0.060487,-0.043167,0.031975
10936,-3.861847,-0.790087,-6.964733,0.057956,-0.055424,0.043567
10951,-3.926491,-0.940921,-6.947973,0.031309,-0.025047,0.053825
10966,-4.074931,-0.960075,-6.900089,0.001332,-0.005995,0.061953
10981,-3.936068,-1.015141,-6.883330,-0.028378,-0.006129,0.067415
10996,-3.969586,-0.988805,-6.943185,-0.069413,0.010392,0.067282
11011,-4.048595,-0.830788,-6.902483,-0.074609,0.019851,0.053559
11026,-4.134786,-0.775721,-6.859388,-0.016787,-0.035972,0.024648
11041,-4.189853,-0.780510,-6.967127,-0.005462,0.069413,0.007061
11056,-4.019865,-0.720655,-6.861782,0.013723,0.046897,-0.001066
11071,-4.043807,-0.919373,-6.976704,0.004263,0.089398,-0.004130
11086,-3.971981,-0.924162,-6.859388,-0.001066,0.089798,-0.007994
11101,-3.993528,-0.837971,-6.871359,0.001066,0.085934,-0.018386
11116,-3.864241,-0.811634,-6.840234,0.001732,0.087133,-0.026913
11131,-3.881001,-0.797269,-6.868965,0.004397,0.101123,-0.021983
11146,-4.031836,-0.950498,-6.909666,-0.023182,0.122573,-0.003464
11161,-3.809175,-0.945710,-6.799533,-0.070613,0.154282,0.026380
11176,-3.684676,-0.878672,-6.761226,-0.097259,0.169070,0.042368
11191,-3.454833,-0.711078,-6.655880,-0.087533,0.157613,0.037704
11206,-3.457227,-0.780510,-6.524199,-0.054891,0.141758,0.012657
11221,-3.421314,-0.835576,-6.416461,-0.019585,0.128035,-0.006262
11236,-3.380613,-0.854730,-6.402095,-0.006662,0.127236,-0.026247
11251,-3.155558,-0.859518,-6.306327,-0.012524,0.133498,-0.031176
11266,-3.050213,-0.778116,-6.229712,-0.012524,0.105786,-0.023982
11281,-3.052607,-0.847547,-6.107608,-0.012923,0.061819,-0.018119
11296,-3.028665,-0.746991,-6.208165,-0.015188,0.033175,-0.005862
11311,-2.899378,-0.708684,-6.136339,-0.022383,0.006528,0.011191
11326,-3.033453,-0.735020,-6.236896,-0.028778,-0.013456,0.023315
11341,-3.007117,-0.782904,-6.102820,-0.028911,-0.038371,0.026113
11356,-2.937685,-0.713472,-6.289568,-0.025714,-0.075675,0.031043
11371,-2.856282,-0.735020,-6.279991,-0.014789,-0.113779,0.021450
11386,-2.952051,-0.751779,-6.354211,-0.006928,-0.150418,-0.000933
11401,-3.335123,-0.828394,-6.584054,0.029444,-0.173067,-0.032109
11416,-3.502717,-0.727837,-6.761226,0.050894,-0.144956,-0.061153
11431,-3.586514,-0.754174,-7.117961,0.049695,-0.087666,-0.070080
11446,-3.648763,-0.847547,-7.127538,0.022383,-0.026380,-0.051960
11461,-3.900155,-0.952892,-7.041347,-0.052360,0.024248,-0.000666
11476,-3.780444,-0.826000,-7.007828,-0.113913,0.005462,0.036239
11491,-3.706224,-0.775721,-6.845023,-0.171469,-0.008260,0.061819
11506,-3.524265,-0.526724,-6.916849,-0.168538,-0.033175,0.052227
11521,-3.725378,-0.407014,-6.909666,-0.101256,-0.051560,0.009726
11536,-3.849876,-0.320823,-6.979098,-0.038104,-0.045965,-0.023715
11551,-3.732560,-0.330400,-6.768408,0.008260,-0.031443,-0.046231
11566,-3.804386,-0.407014,-6.818686,0.022116,-0.023715,-0.041035
11581,-3.797204,-0.392649,-6.842628,0.022516,-0.039836,-0.015588
11596,-4.015076,-0.272939,-6.845023,0.037038,-0.040369,0.016121
11611,-3.979163,-0.169988,-6.835446,0.054225,-0.041435,0.045565
11626,-4.019865,-0.390255,-6.797139,0.073144,-0.047164,0.067282
11641,-4.161122,-0.732626,-6.780379,0.050495,-0.016387,0.089132
11656,-4.256891,-1.024718,-6.773197,-0.013057,0.023982,0.120308
11671,-3.945644,-0.984017,-6.607996,-0.061286,0.034507,0.134963
11686,-3.854665,-0.869095,-6.634333,-0.072078,0.050095,0.128302
11701,-3.825934,-0.720655,-6.758832,-0.034640,0.048096,0.107917
11716,-3.833117,-0.806846,-6.751649,0.013723,0.051427,0.093928
11731,-3.797204,-0.907402,-6.708553,0.046364,0.049562,0.082204
11746,-3.634398,-1.005565,-6.665457,0.045299,0.053692,0.076608
11761,-3.699042,-1.132457,-6.531382,0.042634,0.043567,0.062352
11776,-3.761291,-1.225831,-6.550536,0.035706,0.049962,0.037971
11791,-3.588908,-1.261744,-6.610391,0.032508,0.036905,0.018253
11806,-3.507505,-1.264138,-6.459556,0.036905,0.025580,-0.007861
11821,-3.519476,-1.410185,-6.382942,0.000133,0.027312,-0.020118
11836,-3.538630,-1.501164,-6.421249,-0.057023,0.035972,-0.015588
11851,-3.514688,-1.304840,-6.426037,-0.102721,0.031842,-0.013323
11866,-3.397372,-1.113304,-6.452374,-0.125237,0.032775,-0.015455
11881,-3.246537,-0.909797,-6.299145,-0.110182,0.023848,-0.036239
11896,-3.217807,-0.828394,-6.387730,-0.077940,-0.000133,-0.057689
11911,-3.201048,-0.703895,-6.394913,-0.036639,-0.024248,-0.084202
11926,-3.165135,-0.608127,-6.337452,-0.003597,-0.058355,-0.099257
11941,-3.126827,-0.620098,-6.380548,0.013723,-0.091530,-0.103121
11956,-3.294421,-0.790087,-6.538565,0.012790,-0.112314,-0.099923
11971,-3.485958,-0.806846,-6.452374,-0.003198,-0.128701,-0.106585
11986,-3.430891,-0.629675,-6.478710,0.005995,-0.129234,-0.115911
12001,-3.581726,-0.562637,-6.521805,0.032508,-0.138161,-0.127369
12016,-3.691859,-0.830788,-6.754043,-0.005862,-0.110582,-0.117110
12031,-3.881001,-0.943315,-6.849811,-0.084202,-0.098858,-0.074876
12046,-3.734955,-0.718261,-6.830657,-0.143623,-0.111115,-0.025447
12061,-3.804386,-0.466869,-6.842628,-0.158279,-0.093395,0.007194
12076,-3.940856,-0.253785,-6.845023,-0.120441,-0.084202,0.016521
12091,-4.070143,-0.189142,-6.892907,-0.061286,-0.057023,0.012391
12106,-4.134786,-0.244209,-6.806715,-0.018253,-0.048230,0.020651
12121,-3.991134,-0.368707,-6.928820,0.011858,-0.032908,0.031975
12136,-4.048595,-0.474052,-6.842628,0.044233,-0.027845,0.025714
12151,-4.268862,-0.742203,-6.969521,0.060221,-0.034240,0.029044
12166,-4.321534,-0.713472,-7.024588,0.040902,-0.036639,0.046364
12181,-4.378995,-0.718261,-6.979098,0.035040,-0.002531,0.057156
12196,-4.544195,-1.096544,-6.904878,-0.012790,0.008127,0.080072
12211,-4.378995,-1.036689,-6.904878,-0.082737,0.053825,0.093795
12226,-4.635174,-1.175553,-7.050924,-0.134697,0.078740,0.112447
12241,-4.209006,-0.806846,-6.928820,-0.151617,0.106985,0.107384
12256,-4.522647,-0.778116,-7.074866,-0.080871,0.090464,0.094194
12271,-4.046201,-0.574608,-6.684611,-0.012790,0.170403,0.044899
12286,-4.163517,-0.816423,-6.629544,0.043300,0.160810,0.029178
12301,-3.782839,-0.945710,-6.442797,0.065949,0.134297,0.022383
12316,-3.598485,-1.108515,-6.337452,0.064750,0.120441,0.023715
12331,-3.591302,-1.074997,-6.337452,0.063018,0.076208,0.011724
12346,-3.502717,-1.113304,-6.402095,0.074210,0.052893,-0.007461
12361,-3.469198,-1.074997,-6.323087,0.091130,0.037305,-0.033308
12376,-3.574543,-1.237802,-6.342240,0.105519,0.029844,-0.056757
12391,-3.842694,-1.716643,-6.438008,0.037438,0.063285,-0.046498
12406,-3.306392,-1.436521,-6.203376,-0.065017,0.086467,-0.036239
12421,-3.196259,-1.240196,-6.277597,-0.106718,0.055824,-0.033708
12436,-3.224990,-1.048660,-6.315904,-0.102855,0.038237,-0.045565
12451,-3.191471,-0.914585,-6.318298,-0.079273,0.003464,-0.069680
12466,-3.198653,-0.756568,-6.210559,-0.032508,-0.036372,-0.089132
12481,-3.177106,-0.878672,-6.402095,-0.017320,-0.070479,-0.101922
12496,-3.435679,-0.871489,-6.488286,-0.021317,-0.090464,-0.108850
12511,-3.655946,-0.706289,-6.538565,-0.015322,-0.119375,-0.111515
12526,-3.842694,-0.648829,-6.639121,-0.015322,-0.122839,-0.105386
12541,-3.873818,-0.521936,-6.766014,0.006795,-0.100190,-0.101655
12556,-4.094085,-0.526724,-7.079654,0.038770,-0.092196,-0.083936
12571,-4.364630,-0.969652,-7.158663,-0.055691,-0.003997,-0.034773
12586,-4.410120,-0.921768,-7.165845,-0.135763,-0.002531,0.047297
12601,-4.153940,-0.883460,-7.046135,-0.253939,0.123639,0.101123
12616,-3.780444,-0.320823,-6.940791,-0.236219,0.083136,0.114046
12631,-3.912126,-0.217872,-6.821081,-0.082204,0.020251,0.077940
12646,-3.773262,-0.064643,-6.584054,-0.014655,0.121640,0.044100
12661,-3.847482,-0.464475,-6.636727,0.052893,0.082204,0.026913
12676,-3.445256,-0.634463,-6.366182,0.079939,0.060087,0.022516
12691,-3.675100,-0.890643,-6.375759,0.068348,0.039170,0.027579
12706,-3.600879,-0.890643,-6.287174,0.051294,0.009326,0.029311
12721,-3.730166,-1.019930,-6.234501,0.042368,0.001865,0.039037
12736,-3.749320,-1.113304,-6.236896,-0.013590,0.042767,0.062219
12751,-3.725378,-1.173159,-6.167463,-0.069680,0.011325,0.082204
12766,-3.792415,-1.125275,-6.332664,-0.110582,0.053825,0.103521
12781,-3.605668,-1.048660,-6.390124,-0.135896,0.042900,0.109783
12796,-3.179500,-0.756568,-6.244078,-0.118842,0.058355,0.049429
12811,-3.756502,-0.998382,-6.433220,-0.028245,-0.025980,0.031576
12826,-3.294421,-0.814029,-6.212953,0.042368,-0.070213,-0.034240
12841,-3.737349,-1.204283,-6.442797,0.066482,-0.064351,-0.072877
12856,-3.514688,-1.098939,-6.574478,0.066083,-0.133764,-0.091930
12871,-3.861847,-1.139640,-6.663063,0.030377,-0.112714,-0.091263
12886,-3.988740,-0.907402,-6.833052,0.032508,-0.109116,-0.091130
12901,-4.108450,-0.897826,-6.904878,0.053026,-0.088332,-0.088599
12916,-4.292804,-1.223437,-6.955156,-0.002531,-0.043567,-0.046897
12931,-4.084508,-1.216254,-6.938396,-0.112980,0.011325,0.007994
12946,-4.292804,-1.115698,-7.055712,-0.203178,0.048496,0.051560
12961,-4.113238,-0.732626,-6.885724,-0.220498,0.061953,0.056090
12976,-3.962404,-0.512359,-6.766014,-0.170936,0.075409,0.033041
12991,-3.823540,-0.265756,-6.744466,-0.075942,0.063285,0.007461
13006,-3.895366,-0.383072,-6.837840,-0.004130,0.045965,-0.001199
13021,-3.928885,-0.538695,-6.732495,0.028511,0.039436,0.011724
13036,-3.806781,-0.708684,-6.708553,0.040236,0.038770,0.029444
13051,-3.835511,-0.828394,-6.825869,0.023449,0.048230,0.033708
13066,-3.732560,-0.881066,-6.629544,0.012124,0.054492,0.024914
13081,-3.914520,-1.058237,-6.605602,-0.003198,0.065017,0.026779
13096,-3.636792,-1.024718,-6.385336,-0.055025,0.097525,0.023582
13111,-3.392584,-0.881066,-6.325481,-0.050095,0.055957,0.027845
13126,-3.435679,-1.158794,-6.337452,-0.077008,0.034773,0.037704
13141,-3.423708,-1.108515,-6.337452,-0.133631,0.034773,0.054092
13156,-3.292027,-0.665588,-6.339846,-0.087133,-0.029577,0.041968
13171,-3.550601,-0.723049,-6.404490,-0.032908,-0.033441,-0.004930
13186,-3.603273,-0.667982,-6.493075,0.020784,-0.048230,-0.048363
13201,-3.768473,-0.849942,-6.430826,0.047564,-0.049296,-0.074609
13216,-3.907337,-0.895431,-6.653486,0.049162,-0.063951,-0.092196
13231,-4.041412,-0.885855,-6.730101,0.010525,-0.068081,-0.073677
13246,-4.225766,-0.991199,-6.789956,-0.060753,-0.034107,-0.029444
13261,-4.271256,-0.811634,-6.758832,-0.107384,-0.006129,0.019985
13276,-4.362236,-0.902614,-7.026982,-0.162142,0.044899,0.062352
13291,-3.679888,0.181959,-6.710947,-0.093928,0.007727,0.098458
13306,-4.235343,-0.636858,-6.749255,-0.087533,0.082870,0.052626
13321,-3.924097,-0.514753,-6.706159,-0.027046,0.029311,0.021850
13336,-4.017470,-0.665588,-6.768408,0.004796,0.072877,0.002132
13351,-3.950433,-0.727837,-6.689399,0.010126,0.050761,0.000933
13366,-3.756502,-0.706289,-6.634333,0.029711,0.058355,0.001066
13381,-3.787627,-0.756568,-6.562507,0.059021,0.042501,0.001599
13396,-3.801992,-0.823605,-6.488286,0.081005,0.058888,-0.000666
13411,-3.641581,-0.967257,-6.545747,0.091930,0.036772,-0.003597
13426,-3.593697,-1.127669,-6.500257,0.066616,0.027979,-0.006662
13441,-3.749320,-1.333570,-6.411672,0.007994,0.036372,-0.008260
13456,-3.701436,-1.314417,-6.251261,-0.053159,0.041302,-0.006129
13471,-3.806781,-1.340753,-6.406884,-0.121507,0.038637,0.013456
13486,-3.354276,-0.912191,-6.315904,-0.144156,0.030776,0.017453
13501,-3.426103,-0.548272,-6.387730,-0.067815,-0.009593,-0.000400
13516,-3.620033,-0.715866,-6.404490,0.013057,-0.028378,-0.026779
13531,-3.811569,-0.912191,-6.531382,0.028645,-0.039570,-0.028112
13546,-3.696647,-0.986411,-6.612785,0.015188,-0.042900,-0.024781
13561,-3.809175,-0.957681,-6.655880,0.003730,-0.024914,-0.028378
13576,-3.940856,-0.921768,-6.754043,-0.002798,-0.014256,-0.030910
13591,-3.902549,-0.811634,-6.742072,0.023182,-0.014655,-0.034907
13606,-3.967192,-0.964863,-6.749255,0.023982,0.001865,-0.026113
13621,-3.924097,-1.221043,-6.806715,-0.049429,0.057822,0.005462
13636,-3.897760,-1.288080,-6.813898,-0.131766,0.073677,0.040103
13651,-3.809175,-1.146823,-6.631938,-0.191187,0.092196,0.056090
13666,-3.785233,-0.727837,-6.619967,-0.196250,0.084602,0.040636
13681,-3.610456,-0.442927,-6.639121,-0.127103,0.063285,0.011058
13696,-3.624821,-0.426168,-6.581660,-0.041968,0.030243,-0.020518
13711,-3.816357,-0.577003,-6.670246,0.009593,0.016920,-0.038770
13726,-3.737349,-0.644040,-6.552930,0.024914,0.024248,-0.037438
13741,-3.610456,-0.758962,-6.581660,0.024781,0.011325,-0.031443
13756,-3.596091,-0.883460,-6.442797,0.008926,0.010525,-0.029977
13771,-3.552995,-0.773327,-6.385336,0.025714,-0.003331,-0.052626
13786,-3.722984,-0.905008,-6.495469,0.035173,-0.013590,-0.060753
13801,-3.605668,-1.122881,-6.533776,-0.030110,0.003997,-0.034240
13816,-3.718195,-1.053449,-6.588843,-0.098058,-0.024381,0.008394
13831,-3.890578,-1.151611,-6.691793,-0.195983,0.031176,0.056623
13846,-3.713407,-0.596156,-6.552930,-0.241681,0.029044,0.088865
13861,-3.933673,-0.174777,-6.806715,-0.157080,0.012124,0.063551
13876,-3.617639,-0.210690,-6.600814,-0.045965,0.023049,0.041435
13891,-3.720589,-0.272939,-6.517017,0.056224,-0.043966,0.019585
13906,-3.761291,-0.684742,-6.509834,0.096726,-0.046098,-0.005063
13921,-3.778050,-0.756568,-6.509834,0.102988,-0.076475,-0.010525
13936,-3.866636,-0.895431,-6.751649,0.077141,-0.067681,-0.005329
13951,-3.938462,-0.672771,-6.730101,0.095793,-0.072478,-0.011724
13966,-4.242526,-1.091756,-6.904878,0.108450,-0.085934,0.004663
13981,-4.331111,-1.474828,-7.031770,-0.005862,0.013590,0.053825
13996,-4.122815,-1.551443,-6.988675,-0.124838,0.033175,0.112847
14011,-4.022259,-1.429338,-6.940791,-0.243014,0.142691,0.129634
14026,-3.572149,-0.447716,-6.631938,-0.187989,0.089798,0.120974
14041,-3.993528,-0.916979,-6.564901,-0.140559,0.149086,0.044632
14056,-3.493140,-0.445322,-6.476315,-0.035040,0.065550,-0.008926
14071,-3.617639,-0.770933,-6.433220,0.045565,0.037172,-0.044366
14086,-3.646369,-0.794875,-6.430826,0.069413,-0.020118,-0.052893
14101,-3.730166,-0.883460,-6.517017,0.080738,-0.051294,-0.062752
14116,-3.770868,-0.723049,-6.473921,0.081538,-0.043034,-0.076874
14131,-3.787627,-0.660800,-6.449979,0.137761,-0.036239,-0.101655
14146,-3.924097,-0.823605,-6.550536,0.180795,-0.049162,-0.111914
14161,-4.240131,-1.546654,-6.718130,0.089265,0.005596,-0.051161
14176,-3.624821,-1.371878,-6.593631,-0.065283,0.052227,0.015055
14191,-3.840299,-1.201889,-6.677428,-0.152283,0.028378,0.072211
14206,-3.751714,-1.034295,-6.627150,-0.188522,0.049296,0.091530
14221,-3.818752,-0.696713,-6.773197,-0.143090,0.034640,0.073277
14236,-3.725378,-0.550666,-6.526594,-0.059821,0.036905,0.035706
14251,-3.730166,-0.718261,-6.528988,0.007727,0.039037,0.003997
14266,-3.639187,-0.912191,-6.430826,0.036905,0.027179,-0.019985
14281,-3.691859,-1.070208,-6.387730,0.036905,-0.005196,-0.032908
14296,-3.701436,-0.976834,-6.447585,0.019319,-0.024381,-0.037838
14311,-3.531447,-0.869095,-6.428432,0.030643,-0.049296,-0.050495
14326,-3.792415,-0.823605,-6.359000,0.062619,-0.059954,-0.059954
14341,-4.096479,-1.312023,-6.584054,0.006662,-0.019319,-0.019185
14356,-3.797204,-1.302446,-6.505046,-0.096459,-0.006928,0.043034
14371,-3.924097,-1.333570,-6.596025,-0.236885,0.070479,0.108850
14386,-3.564966,-0.885855,-6.670246,-0.286047,0.049162,0.133631
14401,-3.744531,-0.351948,-6.658275,-0.201446,0.025181,0.096726
14416,-3.785233,-0.421380,-6.536170,-0.078340,0.019452,0.023582
14431,-3.677494,-0.665588,-6.567295,0.026380,-0.005196,-0.051560
14446,-3.787627,-0.826000,-6.636727,0.043300,0.000799,-0.073277
14461,-3.689465,-0.842759,-6.500257,0.049562,-0.022250,-0.080072
14476,-3.828328,-0.737414,-6.612785,0.061819,-0.045299,-0.079273
14491,-3.703830,-0.509965,-6.586449,0.093662,-0.055025,-0.075142
14506,-4.039018,-0.864307,-6.842628,0.100856,-0.060887,-0.049828
14521,-4.206612,-1.319205,-6.816292,-0.005729,-0.020651,0.004130
14536,-4.266468,-1.194707,-7.010222,-0.119508,-0.000533,0.070213
14551,-4.197035,-1.304840,-6.871359,-0.244346,0.108717,0.105386
14566,-3.854665,-0.687136,-6.770802,-0.264464,0.098058,0.094861
14581,-3.782839,-0.313640,-6.562507,-0.157613,0.121374,0.051960
14596,-3.816357,-0.308852,-6.416461,-0.032908,0.107251,-0.000266
14611,-3.550601,-0.404620,-6.359000,0.059688,0.053692,-0.031576
14626,-3.500323,-0.768539,-6.354211,0.097925,0.009326,-0.043167
14641,-3.560178,-0.909797,-6.430826,0.094328,-0.043300,-0.037305
14656,-3.818752,-1.034295,-6.442797,0.074476,-0.055957,-0.032109
14671,-4.015076,-1.139640,-6.682217,0.044899,-0.035706,-0.018119
14686,-3.964798,-1.161188,-6.682217,-0.014389,0.007328,0.002265
14701,-4.091691,-1.441309,-6.710947,-0.103254,0.065949,0.040369
14716,-3.859453,-1.455675,-6.536170,-0.201579,0.116044,0.076874
14731,-3.715801,-1.228225,-6.440403,-0.281384,0.147887,0.098991
14746,-3.454833,-0.500388,-6.289568,-0.205176,0.035573,0.076075
14761,-3.335123,-0.588974,-6.136339,-0.167605,0.157479,0.047430
14776,-3.284845,-0.569820,-6.030994,-0.063551,-0.022516,0.010925
14791,-3.306392,-0.715866,-6.054936,0.013323,-0.051028,-0.028778
14806,-3.289633,-0.878672,-5.971139,0.032775,-0.092995,-0.061153
14821,-3.378219,-0.732626,-6.203376,0.043433,-0.143623,-0.082204
14836,-3.586514,-0.809240,-6.239290,0.071545,-0.155214,-0.098458
14851,-3.727772,-0.852336,-6.385336,0.059021,-0.149885,-0.082204
14866,-4.067749,-1.118092,-6.667851,-0.010925,-0.139093,-0.026247
14881,-3.926491,-0.988805,-6.780379,-0.088199,-0.119109,0.031043
14896,-4.220977,-0.955286,-6.921637,-0.149485,-0.083270,0.075009
14911,-4.156334,-0.782904,-7.046135,-0.158012,-0.088066,0.076342
14926,-4.218583,-0.462081,-6.991069,-0.102055,-0.063418,0.052760
14941,-4.216189,-0.354342,-6.859388,0.032508,-0.036905,-0.010658
14956,-4.352659,-0.670376,-6.964733,0.033841,0.018652,-0.038637
14971,-4.295198,-0.718261,-7.113173,0.063685,-0.043700,-0.056090
14986,-4.278439,-0.916979,-6.823475,0.038504,0.020784,-0.070613
15001,-4.127604,-0.811634,-6.880936,0.020784,-0.002265,-0.075409
15016,-4.046201,-0.543484,-6.775591,0.053692,0.005063,-0.084069
15031,-4.359841,-0.787692,-6.708553,0.068881,-0.000133,-0.064884
15046,-4.316746,-1.206678,-6.782773,-0.017054,0.058622,-0.008260
15061,-4.211401,-1.276109,-6.777985,-0.147087,0.088066,0.074476
15076,-3.895366,-1.084573,-6.607996,-0.264997,0.161077,0.132698
15091,-3.878607,-0.770933,-6.591237,-0.273257,0.129501,0.140692
15106,-3.732560,-0.433351,-6.380548,-0.209040,0.119109,0.100323
15121,-3.493140,-0.502782,-6.251261,-0.081671,0.039836,0.041568
15136,-3.493140,-0.380678,-6.313510,-0.009459,0.085934,-0.011325
15151,-3.713407,-0.708684,-6.196194,0.053026,-0.000266,-0.047830
15166,-3.658340,-0.715866,-6.200982,0.069813,-0.031443,-0.065683
15181,-3.718195,-0.665588,-6.351817,0.078207,-0.077274,-0.063418
15196,-3.859453,-0.699107,-6.366182,0.076208,-0.072078,-0.056623
15211,-3.912126,-0.636858,-6.452374,0.094861,-0.075542,-0.052227
15226,-4.232948,-1.019930,-6.682217,0.053426,-0.025980,-0.013590
15241,-4.010288,-1.163582,-6.538565,-0.050228,0.018386,0.041168
15256,-3.976769,-1.151611,-6.519411,-0.112847,0.017187,0.073943
15271,-3.818752,-1.019930,-6.617573,-0.169204,0.056357,0.082737
15286,-3.902549,-0.735020,-6.366182,-0.122440,0.043034,0.057423
15301,-3.682282,-0.758962,-6.440403,-0.051960,-0.023182,0.008926
15316,-3.763685,-0.830788,-6.394913,-0.000133,-0.007461,-0.044100
15331,-3.706224,-0.821211,-6.428432,0.028245,-0.052360,-0.070746
15346,-3.928885,-0.893037,-6.411672,0.054891,-0.058355,-0.082737
15361,-4.029441,-0.943315,-6.557718,0.034773,-0.053292,-0.079806
15376,-3.835511,-0.658405,-6.466739,0.026646,-0.048629,-0.063818
15391,-3.854665,-0.476446,-6.473921,0.068348,-0.068348,-0.071678
15406,-4.125209,-0.586579,-6.519411,0.131899,-0.108717,-0.082337
15421,-4.776433,-1.520318,-6.696582,-0.005995,0.014522,-0.030643
15436,-4.297592,-1.247379,-6.617573,-0.168538,-0.018786,0.045965
15451,-4.323928,-1.165976,-6.804321,-0.299237,0.079672,0.103920
15466,-4.151546,-0.404620,-6.813898,-0.334277,0.079139,0.134830
15481,-4.070143,-0.050278,-6.763620,-0.226760,0.095394,0.110582
15496,-3.885789,-0.055067,-6.572083,-0.085401,0.079539,0.065417
15511,-3.722984,-0.244209,-6.485892,0.024381,0.052893,0.039037
15526,-3.761291,-0.691924,-6.493075,0.078873,0.020917,0.012790
15541,-3.706224,-0.787692,-6.457162,0.109250,-0.036372,-0.012790
15556,-3.823540,-0.833182,-6.517017,0.127902,-0.044366,-0.040369
15571,-3.816357,-0.861913,-6.519411,0.156813,-0.069547,-0.077541
15586,-4.153940,-1.206678,-6.636727,0.140426,-0.065017,-0.063285
15601,-4.326323,-1.709460,-6.687005,-0.020118,0.051161,-0.005729
15616,-4.091691,-1.529895,-6.605602,-0.175732,0.080072,0.065150
15631,-3.821146,-1.137246,-6.524199,-0.263531,0.113247,0.096726
15646,-3.617639,-0.715866,-6.301539,-0.233688,0.085002,0.082603
15661,-3.703830,-0.471658,-6.248867,-0.139493,0.055557,0.031176
15676,-3.641581,-0.526724,-6.220136,-0.042368,-0.015188,-0.031975
15691,-3.713407,-0.696713,-6.150704,0.021850,-0.059554,-0.076608
15706,-3.742137,-0.785298,-6.263232,0.033441,-0.095127,-0.103920
15721,-4.082114,-0.653617,-6.342240,0.032375,-0.120841,-0.109116
15736,-4.082114,-0.577003,-6.572083,0.037305,-0.108983,-0.101789
15751,-4.065354,-0.292093,-6.473921,0.085801,-0.120574,-0.098191
15766,-4.326323,-0.517148,-6.782773,0.117377,-0.092729,-0.073277
15781,-4.647145,-1.127669,-6.993463,0.014123,-0.015588,0.009060
15796,-4.424485,-1.206678,-6.902483,-0.146821,0.057023,0.106452
15811,-4.242526,-1.051054,-6.931214,-0.267129,0.118176,0.166006
15826,-3.967192,-0.584185,-6.708553,-0.306299,0.148153,0.186391
15841,-3.639187,-0.193930,-6.548141,-0.199980,0.115511,0.137495
15856,-4.015076,-0.363919,-6.677428,-0.035839,0.005196,0.048096
15871,-3.488352,-0.280122,-6.476315,0.069547,0.031443,-0.013590
15886,-3.780444,-0.744597,-6.423643,0.117510,-0.024648,-0.049828
15901,-3.751714,-0.708684,-6.421249,0.132965,-0.058489,-0.061953
15916,-4.015076,-0.916979,-6.493075,0.113513,-0.040369,-0.060753
15931,-3.952827,-0.670376,-6.414066,0.134830,-0.047963,-0.073410
15946,-4.211401,-0.878672,-6.452374,0.146288,-0.045165,-0.061819
15961,-4.376601,-1.450886,-6.476315,0.029044,0.019452,-0.007061
15976,-4.244920,-1.532289,-6.404490,-0.149485,0.048629,0.063152
15991,-4.127604,-1.022324,-6.370971,-0.241548,0.055824,0.094994
16006,-3.957615,-0.543484,-6.464345,-0.213969,0.025580,0.083403
16021,-3.926491,-0.318429,-6.526594,-0.107384,0.011191,0.036505
16036,-4.046201,-0.328006,-6.581660,0.021184,-0.021317,-0.008260
16051,-4.144363,-0.711078,-6.622362,0.072078,-0.016521,-0.027712
16066,-4.046201,-0.799663,-6.665457,0.086600,-0.029577,-0.031975
16081,-4.086902,-0.960075,-6.744466,0.069014,0.011191,-0.026113
16096,-3.960010,-0.852336,-6.684611,0.070746,0.007727,-0.036239
16111,-4.058172,-0.730232,-6.584054,0.121374,-0.002665,-0.064351
16126,-4.120421,-1.043872,-6.584054,0.142025,-0.019452,-0.067149
16141,-4.161122,-1.450886,-6.598420,0.027446,0.038904,-0.030776
16156,-3.852270,-1.173159,-6.435614,-0.075675,0.026247,0.008127
16171,-4.443638,-1.266533,-6.586449,-0.176931,0.076874,0.049828
16186,-4.074931,-0.699107,-6.574478,-0.221963,0.075409,0.076075
16201,-3.871424,-0.335188,-6.428432,-0.147620,0.069946,0.061286
16216,-3.921702,-0.337582,-6.430826,-0.052227,0.049429,0.031443
16231,-3.919308,-0.531513,-6.426037,0.040636,0.025847,0.000933
16246,-3.921702,-0.773327,-6.406884,0.086467,0.013723,-0.023182
16261,-3.787627,-0.885855,-6.375759,0.089931,-0.018253,-0.034107
16276,-3.995923,-1.082179,-6.524199,0.058489,-0.029577,-0.029311
16291,-3.943250,-1.000776,-6.540959,0.048629,-0.042101,-0.023049
16306,-4.122815,-1.137246,-6.701370,0.010925,-0.007061,0.000533
16321,-4.031836,-1.199495,-6.619967,-0.064351,0.044100,0.033175
16336,-4.326323,-1.302446,-6.746861,-0.131499,0.056490,0.070213
16351,-4.072537,-1.055843,-6.524199,-0.201179,0.096326,0.098724
16366,-3.900155,-0.672771,-6.512228,-0.175466,0.092596,0.090730
16381,-3.864241,-0.567426,-6.488286,-0.101522,0.065017,0.053559
16396,-3.962404,-0.627281,-6.409278,-0.020784,0.042900,0.012923
16411,-3.907337,-0.763750,-6.337452,0.033974,0.012524,-0.025447
16426,-3.866636,-0.859518,-6.457162,0.064750,-0.016254,-0.053026
16441,-3.926491,-0.938527,-6.576872,0.066482,-0.025580,-0.063818
16456,-4.034230,-0.995988,-6.617573,0.071545,-0.014389,-0.081538
16471,-4.043807,-0.933739,-6.507440,0.090198,-0.009459,-0.104587
16486,-4.290410,-1.225831,-6.670246,0.050894,0.001066,-0.090464
16501,-4.110844,-1.450886,-6.658275,-0.090064,0.073011,-0.030377
16516,-4.242526,-1.381454,-6.617573,-0.248743,0.117776,0.045165
16531,-4.041412,-0.881066,-6.584054,-0.307631,0.090198,0.095260
16546,-3.813963,-0.361524,-6.545747,-0.274323,0.128568,0.091930
16561,-3.617639,-0.112527,-6.603208,-0.158678,0.114179,0.026380
16576,-3.952827,-0.411803,-6.691793,-0.023715,0.067815,-0.018652
16591,-3.722984,-0.562637,-6.344635,0.045299,0.024515,-0.053825
16606,-3.780444,-0.818817,-6.359000,0.065683,0.021051,-0.080338
16621,-3.588908,-0.742203,-6.327875,0.076741,-0.020518,-0.096726
16636,-3.713407,-0.691924,-6.224924,0.085268,-0.013057,-0.107784
16651,-3.778050,-0.474052,-6.241684,0.131499,-0.037571,-0.122040
16666,-4.010288,-0.780510,-6.368577,0.147354,-0.068214,-0.090198
16681,-4.039018,-1.357512,-6.363788,0.008260,-0.008793,-0.013723
16696,-4.197035,-1.343147,-6.643909,-0.176665,0.000799,0.100190
16711,-4.240131,-1.149217,-6.698976,-0.311095,0.060354,0.185858
16726,-3.907337,-0.464475,-6.720524,-0.313893,0.078207,0.185724
16741,-3.730166,-0.033519,-6.576872,-0.178663,0.067282,0.131499
16756,-3.591302,-0.203507,-6.562507,-0.025181,0.046631,0.053159
16771,-3.526659,-0.368707,-6.418855,0.092462,0.015455,-0.007994
16786,-3.722984,-1.012747,-6.354211,0.107518,-0.000533,-0.032508
16801,-3.569755,-0.974440,-6.325481,0.105652,-0.097392,-0.038504
16816,-3.636792,-0.873884,-6.349423,0.104720,-0.082337,-0.063418
16831,-3.749320,-0.682347,-6.227318,0.171069,-0.153083,-0.095527
16846,-4.496311,-1.261744,-6.567295,0.142291,-0.137495,-0.067415
16861,-4.402937,-1.695095,-6.607996,-0.071412,-0.012391,0.027712
16876,-4.206612,-1.340753,-6.770802,-0.237818,0.004930,0.125904
16891,-4.144363,-1.127669,-6.823475,-0.336809,0.072877,0.152949
16906,-3.512294,0.079009,-6.560112,-0.243280,-0.001466,0.169070
16921,-4.390966,-0.452504,-6.660669,-0.122173,0.109116,0.073410
16936,-3.689465,-0.232238,-6.404490,0.031176,-0.033175,0.012790
16951,-3.744531,-0.715866,-6.538565,0.077407,0.013723,-0.027579
16966,-3.857059,-0.840365,-6.236896,0.113513,-0.056623,-0.053959
16981,-3.821146,-0.984017,-6.361394,0.105786,-0.077940,-0.078740
16996,-3.742137,-0.636858,-6.260838,0.146021,-0.126037,-0.107118
17011,-3.837905,-0.426168,-6.313510,0.260467,-0.181194,-0.147620
17026,-4.661510,-1.386243,-6.646304,0.209839,-0.145888,-0.087933
17041,-4.776433,-2.051831,-6.732495,-0.078606,0.041701,0.041435
17056,-4.414908,-1.750161,-6.691793,-0.352263,0.055291,0.184658
17071,-4.062960,-1.012747,-6.588843,-0.465776,0.141758,0.235286
17086,-3.689465,0.045490,-6.222530,-0.349732,0.079406,0.212237
17101,-3.971981,-0.074220,-6.418855,-0.162409,0.123106,0.101256
17116,-3.629610,-0.222661,-6.354211,0.016521,-0.003864,0.004796
17131,-3.658340,-0.732626,-6.440403,0.122573,-0.023582,-0.057822
17146,-3.866636,-1.098939,-6.303933,0.135896,-0.107118,-0.090064
17161,-4.046201,-1.192312,-6.217741,0.102588,-0.109116,-0.096326
17176,-3.900155,-0.615310,-6.260838,0.137361,-0.146688,-0.127236
17191,-4.292804,-0.756568,-6.452374,0.195450,-0.189855,-0.129501
17206,-4.644751,-1.640028,-6.519411,0.053559,-0.039037,-0.066349
17221,-4.395754,-1.321599,-6.409278,-0.090198,-0.052626,0.021450
17236,-4.575319,-1.479617,-6.629544,-0.251008,0.043833,0.103521
17251,-4.036624,-0.936133,-6.596025,-0.336942,0.045565,0.134430
17266,-4.115633,-0.292093,-6.615179,-0.254605,0.040103,0.091263
17281,-4.266468,-0.282516,-6.648698,-0.125371,0.024115,0.026113
17296,-4.170699,-0.311246,-6.732495,-0.004930,-0.011458,-0.025181
17311,-4.089296,-0.562637,-6.665457,0.071012,-0.018519,-0.049962
17326,-4.240131,-0.840365,-6.749255,0.084735,-0.042634,-0.049029
17341,-4.359841,-1.065420,-6.718130,0.046897,-0.004263,-0.044899
17356,-4.156334,-0.696713,-6.579266,0.068747,-0.013590,-0.064617
17371,-3.988740,-0.538695,-6.572083,0.154149,-0.032508,-0.110848
17386,-4.278439,-0.969652,-6.488286,0.196649,-0.033041,-0.119109
17401,-4.558560,-1.920150,-6.713341,-0.005995,0.021983,-0.045965
17416,-4.596867,-1.956063,-6.493075,-0.277920,0.141891,0.070346
17431,-3.852270,-0.794875,-6.294356,-0.380642,0.127236,0.129234
17446,-3.960010,-0.442927,-6.296751,-0.322420,0.149352,0.116977
17461,-3.871424,-0.181959,-6.179434,-0.196783,0.108051,0.064217
17476,-3.722984,-0.148441,-6.155492,-0.041835,0.054092,0.000133
17491,-3.840299,-0.378284,-6.186617,0.073677,-0.007461,-0.058222
17506,-3.708618,-0.624887,-6.102820,0.105253,-0.032642,-0.087933
17521,-4.091691,-0.804452,-6.224924,0.099124,-0.049296,-0.088332
17536,-3.986346,-0.794875,-6.363788,0.085668,-0.072345,-0.092063
17551,-3.995923,-0.517148,-6.366182,0.126037,-0.094328,-0.107917
17566,-4.259285,-0.960075,-6.421249,0.126436,-0.088466,-0.095394
17581,-4.465186,-1.367089,-6.509834,-0.009593,-0.008394,-0.043966
17596,-4.407725,-1.211466,-6.457162,-0.133498,-0.018119,0.032242
17611,-4.714183,-1.510741,-6.813898,-0.314159,0.110449,0.105386
17626,-3.785233,-0.567426,-6.359000,-0.346934,-0.003597,0.120308
17641,-4.362236,-0.105345,-6.634333,-0.268328,0.147487,0.089798
17656,-4.170699,0.074220,-6.629544,-0.109383,0.045698,0.052093
17671,-4.302381,-0.158017,-6.677428,0.000799,0.082470,0.013590
17686,-3.837905,-0.215478,-6.447585,0.094328,-0.014789,0.010925
17701,-4.015076,-0.579397,-6.416461,0.122173,-0.000133,0.007328
17716,-4.237737,-0.792481,-6.435614,0.111115,-0.003730,0.012790
17731,-4.010288,-0.608127,-6.354211,0.145755,0.002265,-0.008660
17746,-3.837905,-0.608127,-6.244078,0.239550,-0.041435,-0.068348
17761,-4.170699,-1.130063,-6.265626,0.261000,-0.074476,-0.072478
17776,-4.453215,-2.118868,-6.454768,0.023848,0.060354,0.020917
17791,-4.331111,-1.994370,-6.473921,-0.198248,0.008926,0.134164
17806,-3.979163,-1.474828,-6.282385,-0.373714,0.126436,0.187456
17821,-3.782839,-0.493206,-6.282385,-0.330280,0.063951,0.166806
17836,-3.876213,-0.268151,-6.356606,-0.159744,0.057689,0.076075
17851,-3.866636,-0.304064,-6.143521,0.022516,0.015055,-0.025980
17866,-3.823540,-0.634463,-6.200982,0.139093,-0.032508,-0.102721
17881,-3.799598,-0.849942,-6.222530,0.188789,-0.101789,-0.135363
17896,-4.120421,-1.031901,-6.363788,0.155481,-0.101123,-0.136162
17911,-4.074931,-0.691924,-6.373365,0.168538,-0.129501,-0.146954
17926,-4.386178,-0.742203,-6.402095,0.217700,-0.180262,-0.152816
17941,-4.905719,-1.673547,-6.696582,0.048230,-0.023582,-0.070213
17956,-4.455609,-1.525106,-6.526594,-0.175199,-0.024515,0.047963
17971,-4.855441,-1.460463,-6.619967,-0.360524,0.104453,0.153216
17986,-4.364630,-0.766145,-6.691793,-0.443394,0.120041,0.194917
18001,-4.000711,0.071826,-6.433220,-0.284182,0.035972,0.148953
18016,-4.192247,0.002394,-6.562507,-0.124838,0.140159,0.073810
18031,-4.089296,-0.229843,-6.375759,0.029977,0.052093,0.009326
18046,-4.010288,-0.545878,-6.397307,0.117510,0.043034,-0.045165
18061,-3.921702,-0.852336,-6.279991,0.140159,-0.011325,-0.072744
18076,-3.763685,-0.835576,-6.256049,0.133631,-0.010259,-0.090997
18091,-3.823540,-0.682347,-6.086061,0.175732,-0.069280,-0.108717
18106,-4.472369,-1.292869,-6.248867,0.118842,-0.031975,-0.069014
18121,-4.240131,-1.496376,-6.160281,-0.063685,0.017853,0.011991
18136,-4.141969,-1.211466,-6.260838,-0.194917,0.035839,0.095127
18151,-4.015076,-1.029507,-6.313510,-0.264064,0.062086,0.122306
18166,-3.981557,-0.526724,-6.359000,-0.240482,0.033308,0.101655
18181,-3.902549,-0.191536,-6.200982,-0.109916,0.014522,0.042767
18196,-3.840299,-0.294487,-6.186617,0.017187,-0.033308,-0.022783
18211,-3.830723,-0.505177,-6.208165,0.097259,-0.056090,-0.061153
18226,-3.950433,-0.780510,-6.335058,0.139227,-0.124305,-0.072345
18241,-4.132392,-0.797269,-6.428432,0.134031,-0.121240,-0.067548
18256,-4.146757,-0.818817,-6.380548,0.133498,-0.153349,-0.059155
18271,-4.613626,-1.223437,-6.682217,0.058888,-0.102855,-0.020384
18286,-4.434062,-1.244985,-6.603208,-0.052493,-0.032908,0.023315
18301,-4.718971,-1.051054,-6.677428,-0.109250,0.005196,0.066749
18316,-4.479551,-1.027112,-6.612785,-0.180795,0.078473,0.105786
18331,-4.230554,-0.718261,-6.495469,-0.171335,0.056490,0.101389
18346,-4.161122,-0.533907,-6.418855,-0.099524,0.052227,0.069280
18361,-4.163517,-0.519542,-6.359000,-0.007194,0.004397,0.019452
18376,-4.156334,-0.644040,-6.505046,0.060087,-0.030510,-0.027979
18391,-4.180276,-0.770933,-6.485892,0.104986,-0.081538,-0.062619
18406,-4.546589,-1.048660,-6.447585,0.092596,-0.057956,-0.071412
18421,-4.642357,-0.902614,-6.624756,0.078074,-0.054625,-0.064884
18436,-4.738125,-1.173159,-6.744466,0.016387,0.003331,-0.026646
18451,-4.560954,-1.173159,-6.691793,-0.072345,0.052360,0.024115
18466,-4.546589,-1.060631,-6.713341,-0.136962,0.107784,0.061153
18481,-4.553771,-0.993594,-6.627150,-0.163608,0.138960,0.086067
18496,-4.266468,-0.751779,-6.576872,-0.161210,0.119508,0.070613
18511,-4.086902,-0.608127,-6.548141,-0.087799,0.098858,0.027979
18526,-4.161122,-0.584185,-6.588843,-0.008926,0.082204,-0.023715
18541,-4.225766,-0.620098,-6.500257,0.059554,0.047297,-0.057822
18556,-4.261679,-0.653617,-6.457162,0.100456,0.030776,-0.078473
18571,-4.285621,-0.768539,-6.461950,0.104320,0.035706,-0.075276
18586,-4.149151,-0.840365,-6.253655,0.091663,0.057156,-0.070479
18601,-4.311957,-0.876278,-6.320693,0.086201,0.056490,-0.062485
18616,-4.422091,-1.309628,-6.291962,0.007461,0.109649,-0.021450
18631,-3.936068,-1.067814,-6.081272,-0.074343,0.089665,0.019985
18646,-4.122815,-1.391031,-6.059724,-0.181861,0.124172,0.072611
18661,-3.845088,-0.945710,-6.126762,-0.242881,0.101789,0.098191
18676,-3.883395,-0.512359,-6.098032,-0.188789,0.071678,0.088998
18691,-3.744531,-0.423774,-6.157887,-0.082070,0.018919,0.041968
18706,-3.768473,-0.347159,-6.224924,0.020384,-0.014922,-0.004796
18721,-3.912126,-0.577003,-6.239290,0.105519,-0.027446,-0.042501
18736,-4.127604,-0.890643,-6.282385,0.133231,-0.042767,-0.057289
18751,-3.928885,-1.070208,-6.301539,0.096060,-0.017187,-0.050495
18766,-3.801992,-0.833182,-6.306327,0.096193,-0.045032,-0.049162
18781,-4.046201,-1.144428,-6.246472,0.086867,-0.048763,-0.038237
18796,-4.376601,-1.663970,-6.426037,-0.056490,0.017187,0.019985
18811,-4.113238,-1.367089,-6.279991,-0.180795,-0.000400,0.080205
18826,-4.144363,-0.854730,-6.076484,-0.222096,0.063285,0.095660
18841,-4.129998,-0.675165,-6.112397,-0.235553,0.038504,0.089398
18856,-4.012682,-0.452504,-6.124368,-0.147887,0.007594,0.053426
18871,-4.000711,-0.330400,-6.093243,-0.027712,-0.004663,0.002665
18886,-3.797204,-0.651223,-6.145916,0.049562,-0.073277,-0.037838
18901,-3.828328,-0.816423,-6.244078,0.083936,-0.098724,-0.061420
18916,-4.201824,-0.912191,-6.349423,0.076208,-0.122972,-0.068747
18931,-4.259285,-0.840365,-6.368577,0.061153,-0.134564,-0.062885
18946,-4.422091,-0.991199,-6.579266,0.037704,-0.142824,-0.027579
18961,-4.548983,-1.343147,-6.581660,-0.085534,-0.061020,0.039436
18976,-4.508282,-1.043872,-6.667851,-0.153083,-0.052893,0.084069
18991,-4.647145,-1.180341,-6.722918,-0.205443,0.033308,0.106851
19006,-4.343082,-0.866701,-6.675034,-0.226493,0.035706,0.098858
19021,-4.235343,-0.541090,-6.581660,-0.167605,0.034374,0.057556
19036,-4.192247,-0.502782,-6.524199,-0.061420,-0.035440,0.007594
19051,-4.350265,-0.493206,-6.447585,0.009726,0.044233,-0.051028
19066,-4.319140,-0.622492,-6.426037,0.055025,-0.025314,-0.070080
19081,-4.240131,-0.629675,-6.428432,0.078074,-0.039703,-0.071012
19096,-4.402937,-0.711078,-6.526594,0.064484,-0.036239,-0.058222
19111,-4.472369,-0.471658,-6.579266,0.093528,-0.047963,-0.060087
19126,-4.620809,-0.689530,-6.457162,0.130700,-0.048763,-0.058089
19141,-4.723760,-1.173159,-6.684611,0.040236,0.041035,-0.012790
19156,-4.730942,-1.561020,-6.588843,-0.140559,0.084868,0.085268
19171,-4.537012,-1.352724,-6.404490,-0.340939,0.211172,0.167472
19186,-4.120421,-0.620098,-6.234501,-0.374113,0.177464,0.180662
19201,-3.821146,-0.093374,-6.071695,-0.239949,0.083003,0.135629
19216,-3.699042,0.062249,-6.047753,-0.085534,0.157479,0.069280
19231,-3.828328,-0.229843,-6.035782,0.074210,-0.027845,0.011191
19246,-3.885789,-0.529119,-6.153098,0.144822,-0.030643,-0.028778
19261,-4.192247,-0.921768,-6.327875,0.146954,-0.100723,-0.035440
19276,-4.122815,-0.869095,-6.265626,0.118842,-0.062885,-0.045165
19291,-4.168305,-0.651223,-6.378153,0.169870,-0.065283,-0.072078
19306,-4.429273,-0.818817,-6.342240,0.221031,-0.089931,-0.084868
19321,-4.857835,-1.829170,-6.646304,0.070346,0.013057,-0.000666
19336,-4.165911,-1.544260,-6.351817,-0.152550,0.043034,0.104720
19351,-4.525041,-1.352724,-6.497863,-0.279519,0.088599,0.170136
19366,-4.338294,-0.852336,-6.512228,-0.290444,0.078873,0.156547
19381,-4.209006,-0.339977,-6.337452,-0.176265,0.074609,0.091530
19396,-3.919308,-0.320823,-6.327875,-0.015855,0.041835,0.007328
19411,-4.019865,-0.773327,-6.277597,0.076208,-0.009193,-0.055824
19426,-3.998317,-0.969652,-6.232107,0.110982,-0.035306,-0.087933
19441,-4.240131,-0.993594,-6.409278,0.095527,-0.047031,-0.095127
19456,-4.007894,-0.919373,-6.210559,0.084069,-0.057289,-0.103521
19471,-4.101267,-0.691924,-6.363788,0.106851,-0.071012,-0.115645
19486,-4.606444,-1.182736,-6.411672,0.076475,-0.053159,-0.087400
19501,-4.405331,-1.309628,-6.363788,-0.076342,0.026113,-0.020917
19516,-4.513070,-1.288080,-6.500257,-0.208773,0.039703,0.058489
19531,-4.177882,-0.995988,-6.361394,-0.304034,0.089265,0.100323
19546,-4.108450,-0.414197,-6.291962,-0.267528,0.060620,0.081937
19561,-4.144363,-0.047884,-6.373365,-0.145355,0.050761,0.028112
19576,-3.969586,-0.067038,-6.299145,0.011724,-0.012391,-0.034240
19591,-3.983952,-0.378284,-6.394913,0.097525,-0.033708,-0.075409
19606,-4.161122,-0.675165,-6.382942,0.124971,-0.070613,-0.079006
19621,-4.218583,-0.883460,-6.449979,0.094994,-0.063818,-0.060354
19636,-4.209006,-0.667982,-6.536170,0.095260,-0.078340,-0.060620
19651,-4.522647,-0.746991,-6.519411,0.104187,-0.072211,-0.044899
19666,-4.627992,-1.235408,-6.438008,-0.007194,0.038904,0.004130
19681,-4.572925,-1.127669,-6.447585,-0.126303,0.064617,0.066482
19696,-4.587290,-1.170765,-6.457162,-0.227292,0.107518,0.122306
19711,-4.072537,-0.696713,-6.232107,-0.276721,0.111381,0.148420
19726,-4.053383,-0.263362,-6.296751,-0.191320,0.075942,0.122706
19741,-4.149151,-0.282516,-6.133945,-0.049828,0.021983,0.061819
19756,-4.240131,-0.490811,-6.256049,0.047564,0.005729,0.020651
19771,-4.062960,-0.651223,-6.141127,0.111248,-0.051827,-0.010392
19786,-4.367024,-1.039083,-6.212953,0.098458,-0.029444,-0.017054
19801,-4.228160,-0.921768,-6.246472,0.078740,-0.040236,-0.012257
19816,-4.252102,-0.761356,-6.320693,0.113513,-0.065283,-0.026247
19831,-4.307169,-0.967257,-6.387730,0.132165,-0.070613,-0.033308
19846,-4.618415,-1.568202,-6.435614,0.019585,0.005862,0.013323
19861,-4.359841,-1.422156,-6.323087,-0.100190,0.034907,0.053426
19876,-4.568137,-1.254562,-6.318298,-0.154815,0.049296,0.079006
19891,-4.276044,-1.082179,-6.382942,-0.229957,0.096060,0.092063
19906,-4.043807,-0.588974,-6.325481,-0.185458,0.041035,0.059421
19921,-4.132392,-0.337582,-6.440403,-0.079139,0.015855,0.006662
19936,-4.335899,-0.469264,-6.375759,0.033308,-0.025847,-0.037704
19951,-4.355053,-0.699107,-6.313510,0.088466,-0.036106,-0.071412
19966,-4.362236,-0.845153,-6.485892,0.096459,-0.044632,-0.072478
19981,-4.434062,-0.881066,-6.512228,0.078207,-0.027446,-0.070080
19996,-4.568137,-0.737414,-6.481104,0.089132,-0.026247,-0.077541
20011,-4.675876,-1.091756,-6.524199,0.062752,0.009992,-0.050361
20026,-4.386178,-1.285686,-6.318298,-0.060087,0.096459,0.010792
20041,-4.381389,-1.228225,-6.361394,-0.170136,0.099923,0.076475
20056,-4.244920,-1.077391,-6.229712,-0.246078,0.129900,0.111781
20071,-4.048595,-0.605733,-6.093243,-0.235553,0.097259,0.094861
20086,-3.849876,-0.239420,-6.160281,-0.133764,0.057556,0.041568
20101,-3.926491,-0.320823,-6.179434,-0.007994,-0.003730,-0.022516
20116,-4.122815,-0.483629,-6.153098,0.080072,-0.038637,-0.063418
20131,-4.170699,-0.689530,-6.181828,0.123106,-0.084335,-0.078074
20146,-4.254497,-0.878672,-6.370971,0.098591,-0.059554,-0.066349
20161,-4.122815,-0.744597,-6.361394,0.083270,-0.063551,-0.060087
20176,-4.402937,-0.804452,-6.507440,0.094594,-0.066749,-0.054092
20191,-4.728548,-1.302446,-6.605602,-0.000266,0.018652,-0.016654
20206,-4.419696,-1.043872,-6.418855,-0.087000,0.012657,0.034240
20221,-4.632780,-1.249773,-6.347029,-0.209040,0.121773,0.101123
20236,-4.177882,-0.835576,-6.265626,-0.258469,0.083136,0.127769
20251,-3.897760,-0.454898,-6.165069,-0.217966,0.093528,0.112447
20266,-3.801992,-0.270545,-6.066907,-0.108583,0.026113,0.065283
20281,-3.928885,-0.373495,-6.042965,0.023315,-0.037704,0.008127
20296,-4.120421,-0.794875,-6.198588,0.076208,-0.076342,-0.033308
20311,-4.125209,-0.763750,-6.344635,0.091130,-0.121640,-0.052227
20326,-4.299986,-0.972046,-6.363788,0.063818,-0.090064,-0.049162
20341,-4.443638,-0.706289,-6.354211,0.066216,-0.077541,-0.048763
20356,-4.613626,-0.878672,-6.476315,0.068881,-0.062352,-0.039037
20371,-4.582502,-1.142034,-6.507440,0.007328,-0.011591,0.005196
20386,-4.532224,-1.197101,-6.414066,-0.090064,0.011858,0.062752
20401,-4.465186,-1.175553,-6.368577,-0.186790,0.059155,0.099657
20416,-4.467580,-0.871489,-6.418855,-0.209173,0.041835,0.107118
20431,-4.328717,-0.555455,-6.404490,-0.160011,0.032508,0.078873
20446,-4.261679,-0.517148,-6.411672,-0.084735,0.002398,0.031975
20461,-4.311957,-0.562637,-6.414066,-0.000533,-0.021583,-0.011325
20476,-4.467580,-0.737414,-6.366182,0.035440,-0.027046,-0.037305
20491,-4.434062,-0.780510,-6.428432,0.045698,-0.054758,-0.043433
20506,-4.460398,-0.797269,-6.545747,0.030510,-0.037571,-0.035440
20521,-4.716577,-0.878672,-6.624756,0.004796,-0.030510,-0.010792
20536,-4.793192,-0.969652,-6.665457,-0.053426,0.019452,0.018119
20551,-4.747702,-1.010353,-6.746861,-0.109516,0.063018,0.044499
20566,-4.520253,-0.708684,-6.744466,-0.118176,0.088998,0.040369
20581,-4.501099,-0.646434,-6.517017,-0.079006,0.098591,0.015455
20596,-4.469975,-0.675165,-6.481104,-0.046764,0.112714,-0.011991
20611,-4.352659,-0.588974,-6.349423,-0.018386,0.099524,-0.027179
20626,-4.256891,-0.617704,-6.253655,0.002132,0.085934,-0.032242
20641,-4.151546,-0.670376,-6.157887,0.020118,0.063951,-0.027446
20656,-4.235343,-0.632069,-6.167463,0.041568,0.039836,-0.031309
20671,-4.256891,-0.656011,-6.196194,0.045565,0.030110,-0.032642
20686,-4.280833,-0.768539,-6.124368,0.029444,0.019452,-0.023049
20701,-4.235343,-0.943315,-6.291962,-0.042634,0.038104,0.008394
20716,-4.288015,-0.780510,-6.155492,-0.069813,0.028112,0.039703
20731,-4.321534,-0.691924,-6.318298,-0.085268,0.045565,0.056090
20746,-4.127604,-0.682347,-6.129156,-0.093795,0.043700,0.069946
20761,-4.060566,-0.548272,-6.162675,-0.066216,0.031309,0.060221
20776,-4.127604,-0.648829,-6.260838,-0.025847,0.015855,0.043966
20791,-4.249708,-0.770933,-6.332664,0.002398,-0.005063,0.033974
20806,-4.141969,-0.797269,-6.220136,0.019585,-0.006262,0.020251
20821,-4.139575,-0.897826,-6.251261,0.031576,-0.001998,0.013057
20836,-4.151546,-0.905008,-6.220136,0.035040,0.003331,-0.000400
20851,-4.232948,-1.106121,-6.260838,0.033974,-0.020651,-0.011591
20866,-4.335899,-1.259350,-6.256049,-0.029977,-0.004130,-0.005196
20881,-4.161122,-1.108515,-6.215347,-0.076608,-0.002265,0.003064
20896,-4.283227,-1.015141,-6.174646,-0.097525,0.009193,0.007594
20911,-4.369418,-0.960075,-6.325481,-0.127236,0.023182,0.015721
20926,-4.173093,-0.701501,-6.279991,-0.112047,0.004130,0.009193
20941,-4.137180,-0.531513,-6.241684,-0.055158,-0.026913,-0.004796
20956,-4.192247,-0.591368,-6.375759,-0.003464,-0.045165,-0.025314
20971,-4.407725,-0.780510,-6.433220,0.023848,-0.048763,-0.038104
20986,-4.419696,-0.782904,-6.469133,0.031309,-0.050361,-0.043167
21001,-4.424485,-0.802058,-6.579266,0.013456,-0.029977,-0.043300
21016,-4.271256,-0.711078,-6.536170,0.010525,-0.012790,-0.052893
21031,-4.395754,-0.694318,-6.447585,0.052093,-0.026779,-0.073410
21046,-4.740520,-0.998382,-6.552930,0.023982,-0.001732,-0.045299
21061,-4.546589,-1.237802,-6.363788,-0.112847,0.058089,0.030510
21076,-4.381389,-1.039083,-6.416461,-0.230890,0.077807,0.097126
21091,-4.364630,-0.641646,-6.378153,-0.280319,0.094861,0.120041
21106,-4.316746,-0.198719,-6.315904,-0.208907,0.021051,0.090864
21121,-4.328717,-0.107739,-6.380548,-0.116044,0.079006,0.054225
21136,-4.163517,-0.136469,-6.186617,-0.008260,0.001466,0.018386
21151,-4.158728,-0.282516,-6.248867,0.064084,-0.000933,-0.005329
21166,-4.297592,-0.512359,-6.291962,0.098325,-0.031176,-0.011991
21181,-4.333505,-0.706289,-6.344635,0.103787,-0.016121,-0.007727
21196,-4.062960,-0.588974,-6.284780,0.131899,-0.026380,-0.025447
21211,-4.134786,-0.584185,-6.205770,0.195317,-0.053692,-0.058089
21226,-4.711789,-1.422156,-6.394913,0.136962,-0.017986,-0.038504
21241,-4.429273,-1.537077,-6.189011,-0.019718,0.020118,0.021583
21256,-4.424485,-1.407791,-6.387730,-0.154015,0.042368,0.090331
21271,-4.132392,-1.034295,-6.303933,-0.241815,0.050495,0.126303
21286,-4.223372,-0.502782,-6.330269,-0.199181,0.027446,0.102188
21301,-4.340688,-0.328006,-6.299145,-0.083136,0.017187,0.041035
21316,-4.244920,-0.423774,-6.222530,0.032109,-0.010925,-0.013456
21331,-4.125209,-0.521936,-6.179434,0.106319,-0.023582,-0.059155
21346,-4.371812,-0.926556,-6.215347,0.116577,-0.054625,-0.070346
21361,-4.285621,-0.883460,-6.239290,0.083403,-0.044366,-0.056490
21376,-4.213795,-0.756568,-6.205770,0.095527,-0.077807,-0.049695
21391,-4.568137,-1.122881,-6.327875,0.046498,-0.066749,-0.023449
21406,-4.546589,-1.379060,-6.330269,-0.073677,0.001466,0.029178
21421,-4.671087,-1.333570,-6.430826,-0.199314,0.064084,0.085268
21436,-4.304775,-0.780510,-6.296751,-0.219698,0.040103,0.095127
21451,-4.216189,-0.555455,-6.200982,-0.166273,0.040902,0.063551
21466,-4.158728,-0.368707,-6.076484,-0.054625,-0.005462,0.007194
21481,-4.374207,-0.442927,-6.131550,0.050361,-0.052227,-0.042101
21496,-4.364630,-0.538695,-6.323087,0.114179,-0.089398,-0.074743
21511,-4.620809,-0.775721,-6.485892,0.113380,-0.085002,-0.070080
21526,-4.592079,-0.912191,-6.536170,0.072877,-0.049029,-0.056890
21541,-4.544195,-0.646434,-6.569689,0.080605,-0.042234,-0.050894
21556,-4.850653,-1.060631,-6.576872,0.054225,-0.003997,-0.037704
21571,-4.608838,-1.077391,-6.469133,-0.020518,0.043034,-0.007461
21586,-4.647145,-1.206678,-6.495469,-0.111515,0.092063,0.056623
21601,-4.422091,-1.113304,-6.488286,-0.197182,0.090331,0.096593
21616,-4.450821,-0.847547,-6.399701,-0.218233,0.099923,0.093528
21631,-4.273650,-0.423774,-6.332664,-0.138427,0.060221,0.041435
21646,-4.276044,-0.371101,-6.272809,-0.025447,0.048496,-0.025047
21661,-4.455609,-0.608127,-6.253655,0.035972,0.042900,-0.059421
21676,-4.309563,-0.665588,-6.064513,0.075675,0.009326,-0.069547
21691,-4.376601,-0.837971,-6.193799,0.066882,0.023582,-0.059954
21706,-4.177882,-0.737414,-6.076484,0.058089,0.005862,-0.044366
21721,-4.201824,-0.610521,-6.076484,0.109783,-0.016387,-0.059821
21736,-4.321534,-0.826000,-6.133945,0.158012,-0.065550,-0.086334
21751,-4.627992,-1.508347,-6.279991,0.036372,0.011724,-0.046364
21766,-4.434062,-1.532289,-6.236896,-0.121240,0.005196,0.035573
21781,-4.508282,-1.458069,-6.380548,-0.296972,0.125770,0.113113
21796,-4.304775,-0.782904,-6.263232,-0.320421,0.087266,0.131899
21811,-4.199430,-0.402226,-6.260838,-0.219432,0.103254,0.082870
21826,-4.043807,-0.217872,-6.198588,-0.075009,0.041302,0.012124
21841,-4.070143,-0.466869,-6.284780,0.046631,-0.017187,-0.052493
21856,-4.237737,-0.782904,-6.196194,0.094194,-0.043567,-0.086201
21871,-4.486734,-1.096544,-6.320693,0.058222,-0.058755,-0.075142
21886,-4.359841,-0.883460,-6.313510,0.018386,-0.034374,-0.065017
21901,-4.201824,-0.536301,-6.344635,0.053825,-0.033441,-0.084868
21916,-4.355053,-0.493206,-6.320693,0.145888,-0.061553,-0.123505
21931,-4.908113,-1.125275,-6.457162,0.127369,-0.041968,-0.093928
21946,-4.675876,-1.465251,-6.543353,-0.063951,0.014389,0.005729
21961,-4.917690,-1.707066,-6.502652,-0.348533,0.167605,0.146954
21976,-4.070143,-0.553061,-6.411672,-0.428738,0.102188,0.190920
21991,-4.465186,0.016759,-6.349423,-0.298971,0.138694,0.140159
22006,-4.139575,0.117316,-6.239290,-0.111515,0.103387,0.055691
22021,-3.936068,-0.050278,-6.071695,0.068348,0.042501,-0.022250
22036,-4.024653,-0.531513,-6.038177,0.153882,-0.008260,-0.073677
22051,-4.355053,-0.972046,-6.244078,0.152417,-0.047697,-0.079806
22066,-4.189853,-0.924162,-6.112397,0.105919,-0.059421,-0.064750
22081,-4.283227,-0.718261,-6.205770,0.099923,-0.080738,-0.048896
22096,-4.558560,-1.122881,-6.327875,0.041035,-0.030643,-0.003864
22111,-4.630386,-1.292869,-6.325481,-0.097525,0.044100,0.068881
22126,-4.611232,-1.278504,-6.466739,-0.235686,0.098191,0.148553
22141,-4.060566,-0.967257,-6.337452,-0.310029,0.104720,0.172002
22156,-4.149151,-0.481235,-6.394913,-0.202645,-0.024381,0.116977
22171,-4.247314,-0.177171,-6.294356,-0.080338,0.082603,0.031842
22186,-4.347870,-0.471658,-6.244078,0.056357,-0.008527,-0.036639
22201,-4.003105,-0.502782,-6.064513,0.130167,-0.030776,-0.083270
22216,-4.314352,-0.969652,-6.260838,0.115645,-0.039969,-0.080605
22231,-4.192247,-0.864307,-6.272809,0.085934,-0.061286,-0.074476
22246,-4.335899,-0.560243,-6.136339,0.135496,-0.091263,-0.095127
22261,-4.448427,-0.746991,-6.275203,0.190387,-0.128302,-0.091130
22276,-4.838682,-1.853112,-6.461950,-0.023049,0.005729,-0.014522
22291,-4.953603,-1.948880,-6.639121,-0.294041,0.028378,0.120574
22306,-4.608838,-1.551443,-6.359000,-0.528129,0.149752,0.221830
22321,-4.046201,-0.222661,-6.344635,-0.508011,0.114845,0.205176
22336,-4.355053,0.076614,-6.409278,-0.352263,0.154015,0.139626
22351,-4.434062,0.375890,-6.181828,-0.147887,0.015322,0.053692
22366,-4.022259,0.052672,-6.155492,0.044899,0.037971,-0.035972
22381,-4.232948,-0.248997,-6.064513,0.185591,-0.021583,-0.099391
22396,-4.290410,-0.687136,-6.251261,0.218766,-0.055424,-0.120574
22411,-4.158728,-0.615310,-6.236896,0.213836,-0.068481,-0.135096
22426,-4.213795,-0.306458,-6.181828,0.295773,-0.099524,-0.169870
22441,-4.833893,-1.154005,-6.275203,0.306432,-0.135629,-0.153749
22456,-5.027823,-2.114080,-6.473921,-0.020251,0.089265,-0.020251
22471,-4.062960,-1.381454,-6.196194,-0.284449,0.084202,0.103521
22486,-4.378995,-0.696713,-6.272809,-0.341738,0.075409,0.145489
22501,-4.299986,-0.251391,-6.287174,-0.258735,0.047697,0.106319
22516,-4.199430,0.167594,-6.124368,-0.083936,0.039436,0.032642
22531,-4.237737,-0.086191,-6.234501,0.051827,-0.032508,-0.024115
22546,-4.240131,-0.509965,-6.133945,0.117510,-0.028645,-0.044499
22561,-4.469975,-0.864307,-6.378153,0.109383,-0.054891,-0.039836
22576,-4.328717,-0.742203,-6.363788,0.084602,-0.056890,-0.037571
22591,-4.429273,-0.636858,-6.483498,0.108983,-0.059421,-0.055158
22606,-4.893748,-1.079785,-6.481104,0.090064,-0.039436,-0.026247
22621,-5.063736,-1.821988,-6.519411,-0.129101,0.106319,0.075675
22636,-4.225766,-1.249773,-6.330269,-0.326017,0.158678,0.157080
22651,-4.168305,-0.502782,-6.342240,-0.309496,0.111115,0.154548
22666,-4.110844,-0.203507,-6.270414,-0.179196,0.090198,0.078606
22681,-4.015076,-0.201113,-6.062119,0.000533,0.029844,-0.026247
22696,-4.127604,-0.407014,-6.107608,0.126303,-0.040236,-0.104320
22711,-4.247314,-0.732626,-6.133945,0.177198,-0.109516,-0.131766
22726,-4.522647,-1.024718,-6.404490,0.108317,-0.078606,-0.112047
22741,-4.525041,-0.768539,-6.478710,0.067548,-0.088865,-0.080738
22756,-4.697423,-0.679953,-6.655880,0.071678,-0.066749,-0.054891
22771,-5.030218,-1.362301,-6.725312,-0.044899,0.066749,0.029977
22786,-4.316746,-1.189918,-6.394913,-0.210639,0.163608,0.122306
22801,-4.584896,-1.015141,-6.493075,-0.290044,0.153749,0.200113
22816,-4.328717,-0.888249,-6.394913,-0.361989,0.194651,0.236885
22831,-4.027047,-0.246603,-6.342240,-0.288446,0.126436,0.205176
22846,-4.120421,0.062249,-6.246472,-0.136695,0.075009,0.129101
22861,-4.328717,-0.114922,-6.246472,-0.006528,0.052893,0.059554
22876,-4.364630,-0.318429,-6.291962,0.076208,0.042634,0.014789
22891,-4.340688,-0.629675,-6.239290,0.094194,0.032775,0.015322
22906,-4.074931,-0.701501,-6.294356,0.067415,0.030910,0.028511
22921,-4.132392,-0.512359,-6.246472,0.109116,-0.017986,0.007061
22936,-4.539406,-0.699107,-6.509834,0.158545,-0.043966,-0.012257
22951,-4.608838,-1.345541,-6.481104,0.057289,0.036239,0.016254
22966,-4.369418,-1.235408,-6.485892,-0.053292,0.022916,0.047963
22981,-4.728548,-1.520318,-6.679822,-0.212237,0.110449,0.095394
22996,-4.738125,-1.074997,-6.646304,-0.357593,0.167205,0.152949
23011,-4.254497,-0.332794,-6.258443,-0.356927,0.164141,0.157613
23026,-4.103662,0.069432,-6.172252,-0.233821,0.148953,0.111515
23041,-3.936068,0.038307,-5.966351,-0.083536,0.106319,0.050761
23056,-3.979163,-0.169988,-6.023811,0.047430,0.017187,-0.001998
23071,-4.079720,-0.447716,-5.930438,0.100057,-0.024381,-0.042101
23086,-4.211401,-0.780510,-6.107608,0.079006,-0.033708,-0.053692
23101,-4.062960,-0.656011,-6.114791,0.067548,-0.042900,-0.085801
23116,-4.141969,-0.335188,-6.143521,0.130567,-0.038904,-0.128035
23131,-4.228160,-0.538695,-6.121974,0.207041,-0.086600,-0.144822
23146,-4.718971,-1.697489,-6.471527,0.017054,0.038104,-0.063951
23161,-4.537012,-1.623269,-6.464345,-0.241015,0.008926,0.066216
23176,-4.520253,-1.283292,-6.612785,-0.486560,0.140959,0.183060
23191,-4.453215,-0.418985,-6.502652,-0.584352,0.164940,0.223695
23206,-4.046201,0.447716,-6.382942,-0.433401,0.075809,0.179862
23221,-3.960010,0.478840,-6.351817,-0.231822,0.138560,0.097925
23236,-3.667917,0.263362,-6.189011,-0.034907,0.063818,0.006795
23251,-3.811569,0.033519,-6.174646,0.116844,-0.016387,-0.068614
23266,-3.835511,-0.349553,-6.287174,0.198381,-0.110982,-0.125237
23281,-3.950433,-0.411803,-6.212953,0.221164,-0.124038,-0.169470
23296,-3.926491,-0.150835,-6.227318,0.331080,-0.205576,-0.230623
23311,-4.553771,-0.569820,-6.370971,0.403024,-0.243547,-0.246744
23326,-5.370194,-2.078167,-6.646304,0.178263,-0.096326,-0.108450
23341,-4.970363,-2.382231,-6.780379,-0.331613,0.124704,0.137628
23356,-4.331111,-1.465251,-6.426037,-0.629917,0.204910,0.313626
23371,-4.199430,-0.332794,-6.469133,-0.734237,0.252606,0.360790
23386,-4.268862,0.339977,-6.402095,-0.525198,0.149619,0.253273
23401,-3.663129,0.988805,-6.359000,-0.229158,0.116977,0.087400
23416,-4.019865,0.428562,-6.172252,0.031842,-0.029044,-0.070080
23431,-3.818752,0.208296,-6.382942,0.197049,-0.083536,-0.175199
23446,-4.467580,-0.260968,-6.461950,0.261266,-0.161743,-0.197315
23461,-4.019865,-0.055067,-6.473921,0.263398,-0.134031,-0.221963
23476,-4.091691,0.265756,-6.476315,0.412217,-0.237551,-0.274989
23491,-4.809951,-0.517148,-6.655880,0.444859,-0.245145,-0.257136
23506,-5.777209,-2.305616,-6.936002,0.090597,0.029311,-0.069946
23521,-4.280833,-1.340753,-6.270414,-0.253273,0.087533,0.103521
23536,-4.738125,-0.995988,-6.481104,-0.458049,0.213303,0.218366
23551,-4.084508,-0.021548,-6.308722,-0.489358,0.170802,0.226626
23566,-3.964798,0.586579,-6.177040,-0.284315,0.100856,0.143890
23581,-3.854665,0.718261,-6.105214,-0.041302,0.044632,0.033974
23596,-4.036624,0.246603,-5.990293,0.152683,-0.012524,-0.051960
23611,-4.003105,-0.275333,-6.215347,0.228758,-0.106185,-0.080072
23626,-4.216189,-0.742203,-6.337452,0.178930,-0.052227,-0.072478
23641,-4.022259,-0.280122,-6.229712,0.211704,-0.151351,-0.099790
23656,-4.173093,-0.241814,-6.347029,0.328815,-0.183726,-0.155348
23671,-5.185841,-1.735796,-6.646304,0.221564,-0.124704,-0.080605
23686,-4.829105,-2.032677,-6.449979,-0.173334,0.069946,0.088199
23701,-5.183446,-2.066196,-6.840234,-0.537188,0.183060,0.279652
23716,-3.986346,-0.481235,-6.426037,-0.735436,0.191986,0.359991
23731,-3.991134,0.806846,-6.394913,-0.488825,0.099923,0.264464
23746,-4.153940,0.854730,-6.229712,-0.162009,0.115245,0.107251
23761,-4.029441,0.488417,-5.930438,0.116711,0.059288,-0.045032
23776,-3.780444,0.043096,-5.930438,0.276988,-0.051161,-0.132165
23791,-4.065354,-0.639252,-6.162675,0.275655,-0.064217,-0.157080
23806,-3.881001,-0.495600,-6.246472,0.242747,-0.152283,-0.167472
23821,-4.350265,-0.191536,-6.311116,0.329614,-0.239550,-0.208507
23836,-5.427655,-1.467646,-6.873753,0.214636,-0.136162,-0.129368
23851,-4.625597,-1.429338,-6.574478,-0.069680,0.041968,-0.000799
23866,-4.848258,-1.264138,-6.545747,-0.258602,0.096459,0.123905
23881,-4.517859,-1.070208,-6.670246,-0.391567,0.166273,0.187590
23896,-4.043807,-0.512359,-6.622362,-0.459914,0.185058,0.200247
23911,-3.823540,0.418985,-6.270414,-0.301769,0.121907,0.138028
23926,-3.988740,0.390255,-6.093243,-0.088732,0.074210,0.032109
23941,-3.986346,0.086191,-6.174646,0.086734,-0.004130,-0.065683
23956,-4.108450,-0.100556,-6.227318,0.192519,-0.031309,-0.126969
23971,-4.163517,-0.548272,-6.260838,0.179729,-0.045165,-0.135230
23986,-3.948039,-0.323217,-6.224924,0.175998,-0.080205,-0.145755
24001,-4.197035,-0.057461,-6.239290,0.282317,-0.150018,-0.182926
24016,-5.027823,-1.012747,-6.447585,0.255937,-0.163475,-0.123239
24031,-4.905719,-1.831564,-6.588843,-0.108583,0.088466,0.031576
24046,-4.941632,-1.659182,-6.624756,-0.439130,0.108850,0.219565
24061,-4.704606,-0.694318,-6.359000,-0.645372,0.302701,0.297106
24076,-4.460398,0.579397,-6.507440,-0.560104,0.119908,0.256337
24091,-4.106056,1.048660,-6.325481,-0.295240,0.193452,0.136429
24106,-3.861847,0.797269,-6.179434,-0.035706,0.141225,0.014123
24121,-3.655946,0.569820,-6.050148,0.197315,-0.010126,-0.080605
24136,-3.926491,0.009577,-6.162675,0.315358,-0.124172,-0.125904
24151,-4.086902,-0.366313,-6.244078,0.316557,-0.131899,-0.146554
24166,-4.034230,0.086191,-6.260838,0.437531,-0.254472,-0.218632
24181,-4.560954,-0.280122,-6.545747,0.559171,-0.293242,-0.276721
24196,-5.585672,-1.963245,-6.902483,0.322153,-0.129101,-0.134164
24211,-5.169081,-2.624045,-6.552930,-0.229158,0.208240,0.113380
24226,-4.556166,-1.714248,-6.758832,-0.585818,0.230357,0.324551
24241,-4.539406,-0.490811,-6.332664,-0.683476,0.377444,0.386904
24256,-4.062960,0.545878,-6.275203,-0.537055,0.273124,0.316824
24271,-3.967192,0.770933,-6.169858,-0.212371,0.175732,0.180528
24286,-3.751714,0.385466,-5.930438,0.046231,0.145622,0.028911
24301,-3.703830,-0.122104,-6.138733,0.223562,-0.000666,-0.086867
24316,-3.725378,-0.514753,-6.086061,0.285515,-0.105119,-0.157346
24331,-3.857059,-0.545878,-6.066907,0.295507,-0.153349,-0.200646
24346,-3.837905,-0.196325,-6.035782,0.413017,-0.255005,-0.277121
24361,-4.436456,-0.493206,-6.241684,0.524931,-0.341472,-0.313760
24376,-5.762844,-2.339135,-6.722918,0.242481,-0.143890,-0.156946
24391,-4.850653,-2.379837,-6.416461,-0.288979,0.124305,0.072744
24406,-4.932055,-1.683124,-6.751649,-0.650568,0.215701,0.272991
24421,-4.242526,-0.098162,-6.574478,-0.660161,0.257403,0.285248
24436,-4.331111,0.818817,-6.284780,-0.410752,0.191986,0.180129
24451,-3.873818,0.837971,-6.301539,-0.111648,0.163342,0.029178
24466,-3.852270,0.390255,-6.076484,0.146021,0.027712,-0.096193
24481,-3.847482,-0.241814,-6.124368,0.249009,-0.057289,-0.153349
24496,-4.137180,-0.737414,-6.105214,0.195983,-0.047430,-0.163874
24511,-3.806781,-0.248997,-6.047753,0.219432,-0.161476,-0.180795
24526,-4.220977,-0.162806,-6.418855,0.310695,-0.209440,-0.209173
24541,-5.042189,-1.309628,-6.770802,0.184259,-0.123505,-0.121507
24556,-4.972757,-1.613692,-6.552930,-0.132698,0.092063,0.021583
24571,-4.611232,-1.225831,-6.663063,-0.394631,0.149352,0.151884
24586,-4.304775,-0.320823,-6.670246,-0.451787,0.181061,0.185458
24601,-4.127604,0.402226,-6.402095,-0.317490,0.148819,0.126703
24616,-4.019865,0.732626,-6.253655,-0.098058,0.105519,0.029044
24631,-4.029441,0.383072,-6.248867,0.092729,0.021583,-0.053159
24646,-3.890578,0.052672,-6.232107,0.181994,-0.042634,-0.083802
24661,-4.288015,-0.555455,-6.239290,0.140159,-0.011858,-0.063018
24676,-4.228160,-0.385466,-6.208165,0.103654,-0.051560,-0.053026
24691,-4.434062,-0.418985,-6.272809,0.111781,-0.063018,-0.046764
24706,-4.766856,-1.029507,-6.414066,-0.034507,0.087266,0.022649
24721,-4.328717,-0.905008,-6.392519,-0.153482,0.057822,0.112314
24736,-4.398149,-0.900220,-6.452374,-0.263531,0.171735,0.163741
24751,-4.230554,-0.555455,-6.397307,-0.287646,0.118709,0.174533
24766,-3.895366,-0.014365,-6.253655,-0.200247,0.093528,0.129767
24781,-3.866636,0.014365,-6.177040,-0.063418,0.055824,0.041701
24796,-3.931279,-0.146046,-6.320693,0.057156,-0.010525,-0.040369
24811,-4.027047,-0.275333,-6.181828,0.139093,-0.058089,-0.099124
24826,-4.137180,-0.617704,-6.284780,0.130700,-0.049695,-0.114845
24841,-4.048595,-0.481235,-6.375759,0.113646,-0.064617,-0.126170
24856,-4.055778,-0.225055,-6.378153,0.166406,-0.102055,-0.153882
24871,-4.402937,-0.292093,-6.315904,0.239949,-0.143757,-0.172002
24886,-4.893748,-1.225831,-6.634333,0.115645,-0.044899,-0.097126
24901,-4.544195,-1.398214,-6.557718,-0.157746,0.066482,0.041701
24916,-4.709394,-1.388637,-6.641515,-0.429005,0.192786,0.172801
24931,-4.309563,-0.296881,-6.457162,-0.524931,0.203178,0.227159
24946,-3.998317,0.739808,-6.220136,-0.369450,0.152949,0.172534
24961,-3.924097,0.780510,-6.062119,-0.134164,0.125504,0.072877
24976,-3.617639,0.517148,-5.951985,0.074609,0.043300,-0.019851
24991,-3.730166,0.057461,-5.956774,0.185858,-0.026247,-0.076741
25006,-3.888184,-0.344765,-6.047753,0.193585,-0.103787,-0.084335
25021,-3.734955,-0.301669,-6.004658,0.155481,-0.134697,-0.080205
25036,-3.799598,0.045490,-6.121974,0.226227,-0.184925,-0.109516
25051,-4.357447,-0.493206,-6.423643,0.281251,-0.237685,-0.103521
25066,-4.975151,-1.520318,-6.512228,0.067282,-0.037571,-0.014655
25081,-4.829105,-1.762132,-6.588843,-0.229424,0.031043,0.128701
25096,-4.288015,-0.998382,-6.550536,-0.437665,0.116977,0.213170
25111,-4.254497,0.057461,-6.435614,-0.406888,0.089665,0.195850
25126,-4.220977,0.634463,-6.320693,-0.205976,0.051560,0.110848
25141,-3.799598,0.703895,-6.172252,0.027046,-0.025181,0.002132
25156,-3.888184,0.225055,-6.126762,0.220764,-0.074077,-0.078340
25171,-3.883395,-0.375890,-5.985504,0.274723,-0.189322,-0.096593
25186,-4.261679,-0.864307,-6.320693,0.214369,-0.173201,-0.099524
25201,-4.106056,-0.505177,-6.433220,0.209306,-0.279386,-0.123905
25216,-4.824317,-0.869095,-6.806715,0.195583,-0.221830,-0.126836
25231,-5.044583,-0.938527,-6.835446,0.097259,-0.110982,-0.087933
25246,-5.154716,-0.955286,-6.801927,-0.068747,-0.009326,-0.006928
25261,-5.025429,-0.909797,-6.900089,-0.189055,0.090597,0.065417
25276,-4.481946,-0.237026,-6.770802,-0.197848,0.117377,0.099524
25291,-4.479551,-0.004788,-6.698976,-0.110049,0.090064,0.082204
25306,-4.484340,-0.028730,-6.476315,-0.003331,0.055557,0.049429
25321,-4.436456,-0.253785,-6.385336,0.069680,0.041835,0.023715
25336,-4.331111,-0.474052,-6.287174,0.088066,0.030243,0.016387
25351,-4.347870,-0.586579,-6.155492,0.076874,0.038770,0.012657
25366,-4.285621,-0.675165,-6.119579,0.068614,0.070080,-0.005329
25381,-4.118027,-0.545878,-5.968745,0.090997,0.042900,-0.016254
25396,-4.129998,-0.799663,-5.820304,0.050228,0.010792,0.019851
25411,-3.936068,-0.988805,-5.674258,-0.052760,-0.000133,0.068747
25426,-4.048595,-0.809240,-5.628768,-0.141358,-0.069280,0.124704
25441,-3.948039,-0.248997,-5.647922,-0.138960,-0.127769,0.144023
25456,-3.701436,-0.136469,-5.659893,-0.072744,-0.194651,0.134830
25471,-3.852270,-0.040701,-5.722142,0.025447,-0.243280,0.110715
25486,-4.201824,-0.265756,-6.016629,0.119775,-0.281651,0.067681
25501,-4.364630,-0.823605,-5.899313,0.054358,-0.295107,0.044899
25516,-4.965574,-0.802058,-6.914454,0.116844,-0.255271,0.013323
25531,-5.085284,-0.849942,-7.048530,0.056357,-0.132698,0.034640
25546,-5.504270,-0.859518,-7.180211,0.042634,-0.014256,0.063685
25561,-5.980716,-1.201889,-7.376535,-0.062885,0.201312,0.121507
25576,-5.406107,-1.230620,-7.235278,-0.217167,0.293508,0.194518
25591,-5.142745,-1.144428,-6.861782,-0.357593,0.356660,0.259135
25606,-4.750096,-0.823605,-6.476315,-0.453119,0.366519,0.288312
25621,-4.474763,-0.220267,-6.054936,-0.409819,0.342271,0.255271
25636,-4.115633,0.040701,-5.779603,-0.297905,0.246078,0.176398
25651,-3.701436,0.244209,-5.633556,-0.144423,0.142424,0.071279
25666,-3.454833,0.407014,-5.432444,0.059021,-0.033441,-0.046631
25681,-3.555389,0.124498,-5.360618,0.210639,-0.159078,-0.141625
25696,-3.840299,-0.407014,-5.463568,0.238484,-0.242214,-0.168937
25711,-3.596091,-0.102951,-5.643133,0.260867,-0.343737,-0.195983
25726,-4.091691,-0.004788,-5.980716,0.342671,-0.436199,-0.237685
25741,-5.066131,-1.101333,-6.426037,0.263132,-0.360790,-0.168937
25756,-5.451597,-1.774103,-6.605602,-0.085668,-0.086600,0.000799
25771,-4.936844,-1.165976,-6.720524,-0.406222,0.112314,0.165873
25786,-4.508282,-0.239420,-6.538565,-0.495887,0.124172,0.243547
25801,-4.438850,0.402226,-6.399701,-0.403824,0.084069,0.210639
25816,-4.426879,0.782904,-6.325481,-0.201046,0.042101,0.136296
25831,-4.292804,0.794875,-6.291962,0.046364,-0.066216,0.044100
25846,-4.558560,0.193930,-6.404490,0.189188,-0.059954,-0.026646
25861,-4.745308,-0.272939,-6.414066,0.247810,-0.159744,-0.047164
25876,-4.982334,-0.486023,-6.394913,0.217966,-0.093528,-0.053692
25891,-4.592079,-0.167594,-6.196194,0.257403,-0.125637,-0.089398
25906,-4.651934,-0.160412,-6.203376,0.351064,-0.172268,-0.122040
25921,-5.183446,-1.197101,-6.289568,0.279519,-0.126969,-0.079539
25936,-5.204994,-1.692701,-6.296751,0.011858,0.040502,0.028245
25951,-4.458004,-0.826000,-5.875371,-0.111781,0.016654,0.103121
25966,-4.699818,-0.447716,-6.035782,-0.092995,-0.048496,0.114312
25981,-4.580108,-0.579397,-6.155492,-0.069813,-0.059021,0.096726
25996,-4.754885,-0.584185,-6.241684,-0.031309,-0.093528,0.070346
26011,-4.795586,-0.550666,-6.251261,0.050361,-0.100323,0.027312
26026,-4.843470,-0.849942,-6.411672,0.110582,-0.092862,-0.037971
26041,-4.807557,-0.976834,-6.473921,0.134830,-0.082470,-0.100323
26056,-5.037400,-1.180341,-6.291962,0.094861,-0.028511,-0.120041
26071,-4.932055,-1.029507,-6.339846,0.059688,-0.003997,-0.121907
26086,-4.733336,-0.684742,-6.208165,0.074876,-0.000666,-0.137761
26101,-5.185841,-1.046266,-6.124368,0.048896,-0.027312,-0.097525
26116,-5.102044,-1.383849,-6.157887,-0.134963,0.127902,-0.004130
26131,-5.173870,-1.345541,-6.145916,-0.344536,0.155348,0.120441
26146,-4.666299,-0.641646,-5.904101,-0.494688,0.212104,0.192386
26161,-4.513070,0.047884,-5.932832,-0.469507,0.178130,0.198381
26176,-4.295198,0.507571,-5.865794,-0.308564,0.127902,0.141358
26191,-4.319140,0.447716,-5.822699,-0.127369,0.086334,0.069014
26206,-4.010288,0.390255,-5.552154,0.054092,-0.018519,-0.011458
26221,-4.010288,0.184354,-5.676652,0.186790,-0.100856,-0.078873
26236,-4.237737,-0.244209,-5.820304,0.234620,-0.193851,-0.098191
26251,-4.398149,-0.416591,-6.009446,0.242747,-0.227825,-0.110848
26266,-4.565742,-0.174777,-6.136339,0.323619,-0.293375,-0.172135
26281,-5.207388,-0.572214,-6.392519,0.370516,-0.304567,-0.171202
26296,-6.011840,-1.996764,-6.543353,0.120041,-0.016521,-0.045832
26311,-5.324705,-1.692701,-6.488286,-0.213570,0.173867,0.115511
26326,-5.044583,-1.180341,-6.481104,-0.417547,0.224095,0.239017
26341,-4.764462,-0.739808,-6.370971,-0.538521,0.278986,0.290178
26356,-4.261679,0.311246,-6.033388,-0.422343,0.212104,0.237285
26371,-4.520253,0.380678,-5.844246,-0.209040,0.108184,0.141092
26386,-4.283227,0.220267,-5.755661,-0.037172,0.037438,0.031842
26401,-4.319140,0.095768,-5.786786,0.105386,-0.063951,-0.056224
26416,-4.290410,-0.158017,-5.793968,0.205309,-0.179995,-0.105652
26431,-4.520253,-0.404620,-5.868188,0.229824,-0.180129,-0.132832
26446,-4.434062,-0.284910,-5.911284,0.297772,-0.289112,-0.173600
26461,-4.625597,-0.237026,-6.124368,0.385438,-0.308830,-0.212504
26476,-5.209783,-0.995988,-6.236896,0.365853,-0.346534,-0.180528
26491,-6.347029,-2.398990,-6.629544,0.012524,-0.022383,0.008926
26506,-5.307945,-1.740585,-6.593631,-0.342404,0.177464,0.192786
26521,-5.485116,-1.400608,-6.727706,-0.584619,0.304567,0.315891
26536,-4.489128,-0.100556,-6.359000,-0.599674,0.284449,0.314026
26551,-4.659116,0.521936,-5.968745,-0.371715,0.205976,0.204243
26566,-4.472369,0.404620,-5.861006,-0.132832,0.170136,0.073011
26581,-4.161122,0.320823,-5.513846,0.051694,0.082070,-0.042501
26596,-4.060566,0.038307,-5.518635,0.180662,-0.058089,-0.123106
26611,-4.335899,-0.306458,-5.640739,0.219965,-0.163208,-0.154681
26626,-4.350265,-0.064643,-5.583278,0.262466,-0.255671,-0.171469
26641,-4.460398,0.090980,-5.626374,0.398894,-0.362256,-0.221564
26656,-4.977545,-0.294487,-5.932832,0.498685,-0.418746,-0.234753
26671,-5.264850,-1.048660,-6.145916,0.352930,-0.312560,-0.160011
26686,-6.512228,-3.198653,-6.370971,-0.120041,-0.019052,0.087400
26701,-5.360618,-1.977611,-6.524199,-0.569031,0.110715,0.328548
26716,-5.142745,-0.876278,-6.770802,-0.797123,0.361856,0.382907
26731,-5.035006,0.007183,-6.476315,-0.644972,0.174533,0.354262
26746,-4.764462,0.830788,-6.066907,-0.328282,0.233421,0.201446
26761,-4.934450,0.366313,-5.918467,-0.065550,0.199847,0.045032
26776,-4.232948,0.232238,-5.767632,0.133098,0.081937,-0.073677
26791,-4.316746,-0.153229,-5.686229,0.246611,-0.044100,-0.151617
26806,-4.532224,-0.344765,-5.777209,0.281118,-0.150818,-0.170003
26821,-4.398149,-0.110133,-5.595249,0.359858,-0.261933,-0.214236
26836,-4.738125,-0.083797,-5.858612,0.487360,-0.347067,-0.264331
26851,-5.549759,-1.307234,-6.172252,0.417147,-0.306032,-0.201179
26866,-6.088455,-2.686294,-6.220136,-0.027312,0.027845,-0.001865
26881,-5.358223,-1.929726,-6.181828,-0.442461,0.190121,0.200113
26896,-4.967968,-0.912191,-6.244078,-0.615129,0.220364,0.288579
26911,-4.498705,0.117316,-6.042965,-0.550511,0.201979,0.247410
26926,-4.395754,0.739808,-5.741296,-0.299104,0.119642,0.128968
26941,-4.501099,0.615310,-5.710171,-0.012391,0.042501,-0.018519
26956,-4.635174,0.169988,-5.980716,0.183593,-0.045299,-0.133764
26971,-4.673481,-0.153229,-5.942409,0.262865,-0.108184,-0.160943
26986,-4.769250,-0.632069,-6.002264,0.223296,-0.107784,-0.148553
27001,-4.742914,-0.316035,-6.042965,0.218766,-0.167205,-0.154015
27016,-5.073313,-0.289698,-5.956774,0.273790,-0.207441,-0.143090
27031,-5.963956,-1.716643,-6.117185,0.074210,-0.020651,-0.010658
27046,-5.559336,-2.003947,-6.179434,-0.338407,0.145089,0.201845
27061,-5.193023,-1.527501,-6.119579,-0.690404,0.278320,0.384239
27076,-4.316746,0.232238,-5.951985,-0.732772,0.276855,0.394231
27091,-5.006276,0.656011,-6.066907,-0.490424,0.138028,0.315891
27106,-4.417302,0.854730,-6.009446,-0.193052,0.129900,0.179063
27121,-4.510676,0.490811,-5.810728,0.095793,0.045698,-0.002398
27136,-4.335899,0.071826,-5.872977,0.312827,-0.078873,-0.150152
27151,-4.807557,-0.521936,-5.904101,0.356793,-0.102855,-0.212770
27166,-4.407725,-0.361524,-5.858612,0.379043,-0.187723,-0.276322
27181,-4.934450,-0.289698,-5.863400,0.457649,-0.276588,-0.319222
27196,-5.621585,-1.213860,-6.136339,0.346668,-0.166006,-0.236619
27211,-5.786786,-2.135628,-6.212953,-0.051960,0.072211,-0.034374
27226,-4.939238,-1.297657,-5.951985,-0.386637,0.090464,0.170936
27241,-5.025429,-0.699107,-5.918467,-0.569297,0.122839,0.280851
27256,-4.874595,-0.007183,-5.825093,-0.586617,0.083403,0.284449
27271,-4.793192,0.600945,-5.487510,-0.501616,0.078606,0.226893
27286,-3.842694,1.707066,-5.384560,-0.190121,-0.048096,0.099790
27301,-4.469975,1.285686,-5.774815,0.196116,-0.208507,-0.042634
27316,-4.678270,0.138864,-5.911284,0.363188,-0.245945,-0.093262
27331,-4.764462,-0.644040,-5.928043,0.306832,-0.251407,-0.062485
27346,-4.685452,-0.342371,-6.220136,0.269260,-0.292842,-0.065150
27361,-5.075707,-0.181959,-6.406884,0.355594,-0.330680,-0.128835
27376,-6.315904,-1.426944,-6.543353,0.365587,-0.353329,-0.106985
27391,-6.028600,-1.644817,-6.643909,0.109649,-0.020651,-0.037172
27406,-6.009446,-1.874660,-6.696582,-0.257936,0.214636,0.131499
27421,-5.702988,-1.381454,-6.629544,-0.546781,0.275922,0.303234
27436,-5.128380,-0.131681,-6.126762,-0.623389,0.315891,0.342804
27451,-5.061342,0.761356,-5.772420,-0.405423,0.181861,0.272058
27466,-4.845864,0.754174,-5.659893,-0.144289,0.169337,0.156280
27481,-4.498705,0.634463,-5.492299,0.087000,0.059288,0.042101
27496,-4.582502,0.124498,-5.530606,0.248609,-0.026913,-0.043966
27511,-4.944026,-0.495600,-5.748478,0.270193,-0.074743,-0.070080
27526,-4.596867,-0.536301,-5.628768,0.253806,-0.131366,-0.098724
27541,-4.601655,-0.275333,-5.578490,0.322286,-0.213037,-0.151617
27556,-5.020641,-0.478840,-5.691017,0.401825,-0.261400,-0.196649
27571,-5.370194,-1.268927,-5.719748,0.267129,-0.156014,-0.146421
27586,-5.640739,-2.401384,-5.815516,-0.078740,-0.121107,0.030510
27601,-5.046977,-1.781286,-5.829881,-0.414482,-0.055824,0.228625
27616,-5.293580,-1.137246,-6.086061,-0.640176,0.061953,0.338407
27631,-5.336676,0.198719,-6.124368,-0.582220,0.020118,0.300303
27646,-5.252879,0.926556,-6.098032,-0.267928,0.103387,0.140159
27661,-5.097255,0.296881,-6.011840,0.000666,0.151217,-0.033841
27676,-4.865018,0.038307,-5.961562,0.175199,0.112714,-0.163075
27691,-4.776433,-0.217872,-5.681440,0.274989,0.033841,-0.240749
27706,-4.876989,-0.567426,-5.777209,0.261799,-0.074876,-0.257936
27721,-4.611232,-0.136469,-5.597643,0.284315,-0.187323,-0.270992
27736,-5.013458,-0.014365,-5.549759,0.374779,-0.307764,-0.297372
27751,-5.801151,-0.802058,-5.643133,0.414349,-0.384639,-0.251541
27766,-5.781997,-1.233014,-5.784391,0.176265,-0.122440,-0.123505
27781,-5.954380,-2.035071,-5.961562,-0.270459,0.119775,0.100590
27796,-5.269638,-1.216254,-5.961562,-0.568631,0.165074,0.294974
27811,-5.465962,-0.634463,-6.193799,-0.742498,0.273923,0.384905
27826,-4.599261,1.043872,-5.880159,-0.579156,0.120708,0.330813
27841,-4.977545,1.125275,-5.832275,-0.248743,0.055025,0.196250
27856,-4.790798,0.715866,-5.726930,0.011724,0.027446,0.070080
27871,-4.927267,0.251391,-5.760449,0.187590,-0.037305,-0.041168
27886,-5.106832,-0.272939,-5.844246,0.282450,-0.078740,-0.108317
27901,-5.025429,-0.562637,-5.861006,0.263398,-0.056357,-0.144289
27916,-4.936844,-0.256180,-5.899313,0.300969,-0.110315,-0.183992
27931,-5.197812,-0.402226,-5.961562,0.364254,-0.147753,-0.212637
27946,-5.547365,-1.007959,-5.966351,0.338541,-0.134564,-0.185058
27961,-6.050148,-1.994370,-6.114791,0.045432,0.090331,-0.059021
27976,-5.449203,-1.675941,-5.889736,-0.264997,0.092329,0.116977
27991,-5.760449,-1.369483,-6.014235,-0.565966,0.266196,0.291643
28006,-5.020641,-0.268151,-5.767632,-0.695067,0.232622,0.342271
28021,-4.821922,1.106121,-5.681440,-0.520801,0.152283,0.285648
28036,-4.764462,1.118092,-5.619191,-0.213303,0.116178,0.164674
28051,-4.699818,0.763750,-5.549759,0.035040,0.049296,0.042634
28066,-4.498705,0.296881,-5.492299,0.200913,-0.055957,-0.051560
28081,-4.575319,-0.165200,-5.664681,0.283516,-0.191453,-0.102588
28096,-4.910508,-0.313640,-5.796362,0.294308,-0.215968,-0.145089
28111,-4.903325,-0.023942,-5.920861,0.413283,-0.316557,-0.226626
28126,-5.408502,-0.306458,-6.114791,0.506678,-0.315492,-0.294974
