T,AX,AY,AZ,GX,GY,GZ
46,-3.847482,-0.277727,-6.421249,-0.080738,0.108450,0.002931
61,-3.991134,-0.162806,-6.270414,-0.075942,0.088599,-0.034374
76,-3.873818,-0.033519,-6.234501,-0.049562,0.039170,-0.050095
91,-3.931279,0.155623,-6.382942,-0.014256,0.009193,-0.043567
106,-4.249708,0.186748,-6.698976,0.012657,0.057156,-0.022516
121,-4.374207,-0.014365,-6.883330,-0.000266,0.111515,0.011191
136,-4.393360,-0.021548,-6.957550,-0.041435,0.170936,0.043700
151,-4.029441,-0.237026,-6.852205,-0.094994,0.187723,0.063685
166,-4.012682,-0.076614,-6.732495,-0.149219,0.238884,0.063685
181,-3.773262,0.203507,-6.404490,-0.138960,0.204910,0.034374
196,-3.639187,0.411803,-6.327875,-0.059688,0.116044,-0.004663
211,-3.569755,0.548272,-6.320693,0.032775,0.056357,-0.020118
226,-3.706224,0.356736,-6.579266,0.109649,0.009326,-0.026380
241,-4.304775,0.059855,-6.665457,0.100590,0.032642,-0.000933
256,-4.314352,-0.067038,-6.677428,0.031309,0.134697,0.049695
271,-4.000711,-0.237026,-6.890512,-0.035173,0.221297,0.074743
286,-3.749320,-0.198719,-6.634333,-0.057822,0.228625,0.072345
301,-3.605668,-0.215478,-6.593631,-0.059421,0.199714,0.041701
316,-3.541024,-0.071826,-6.543353,-0.016521,0.155481,-0.014256
331,-3.428497,-0.079009,-6.478710,0.007727,0.091130,-0.050628
346,-3.397372,-0.016759,-6.347029,0.027979,0.008394,-0.059554
361,-3.651158,0.114922,-6.339846,0.027979,-0.009459,-0.024914
376,-3.756502,0.203507,-6.349423,0.007061,-0.020251,0.031443
391,-3.828328,0.294487,-6.411672,-0.006262,0.005995,0.080338
406,-3.749320,0.316035,-6.485892,0.017453,0.066083,0.098724
421,-3.629610,-0.035913,-6.677428,0.058489,0.098591,0.059155
436,-3.521871,-0.361524,-6.615179,0.097392,0.079006,-0.001599
451,-3.517082,-0.545878,-6.701370,0.084735,0.049429,-0.057289
466,-3.493140,-0.646434,-6.572083,0.034640,0.013723,-0.086201
481,-3.605668,-0.490811,-6.433220,-0.022383,0.015588,-0.090864
496,-3.608062,-0.239420,-6.514623,-0.049296,-0.018386,-0.074876
511,-3.782839,-0.031125,-6.497863,-0.063951,-0.042501,-0.030377
526,-3.720589,0.225055,-6.720524,-0.066083,-0.035440,0.036639
541,-4.024653,0.265756,-6.698976,-0.043300,-0.008127,0.092729
556,-4.158728,-0.136469,-6.847417,-0.060887,0.055424,0.127902
571,-3.782839,-0.442927,-6.868965,-0.096060,0.088998,0.098858
586,-3.526659,-0.639252,-6.663063,-0.103654,0.113779,0.005995
601,-3.383007,-0.665588,-6.507440,-0.077141,0.071145,-0.118443
616,-3.469198,-0.768539,-6.366182,-0.066749,0.033441,-0.226760
631,-3.541024,-0.560243,-6.435614,-0.053292,-0.055291,-0.297372
646,-3.696647,-0.339977,-6.428432,-0.071812,-0.095260,-0.296439
661,-3.895366,-0.019154,-6.521805,-0.103654,-0.098591,-0.221031
676,-4.149151,0.330400,-6.667851,-0.140026,-0.060753,-0.079273
691,-4.223372,0.739808,-6.885724,-0.162809,0.024515,0.090198
706,-4.141969,1.106121,-7.015011,-0.108717,0.076342,0.221297
721,-4.060566,1.206678,-6.952762,0.020251,0.126703,0.267528
736,-4.232948,0.502782,-6.940791,0.084069,0.170669,0.273124
751,-3.869030,-0.105345,-6.701370,0.085801,0.207708,0.220364
766,-3.426103,-0.653617,-6.476315,0.088998,0.215302,0.098858
781,-3.011906,-0.890643,-6.478710,0.073544,0.101389,-0.025047
796,-3.078943,-0.895431,-6.354211,0.017320,-0.020384,-0.102988
811,-3.421314,-0.596156,-6.411672,-0.027845,-0.124438,-0.132165
826,-3.734955,-0.366313,-6.543353,-0.054492,-0.154681,-0.108983
841,-4.036624,-0.167594,-6.770802,-0.088066,-0.086201,-0.043433
856,-4.048595,0.011971,-6.885724,-0.122839,-0.000133,0.028378
871,-4.086902,0.232238,-6.866570,-0.110715,0.027845,0.057156
886,-3.830723,0.213084,-6.722918,-0.085268,0.048629,0.062752
901,-3.588908,0.179565,-6.655880,-0.069813,0.063551,0.051960
916,-3.459621,0.038307,-6.670246,-0.019585,0.054492,0.000000
931,-3.663129,-0.177171,-6.665457,0.030510,0.023982,-0.059954
946,-3.744531,-0.404620,-6.720524,0.007061,-0.005596,-0.084335
961,-3.701436,-0.160412,-6.689399,-0.022916,-0.025580,-0.083270
976,-3.881001,-0.045490,-6.720524,-0.052093,-0.016920,-0.057689
991,-4.022259,0.258574,-6.904878,-0.052227,0.017986,-0.013856
1006,-4.022259,0.402226,-6.768408,-0.034240,0.052626,0.037838
1021,-3.878607,0.452504,-6.823475,-0.008527,0.083669,0.085934
1036,-3.804386,0.399832,-6.746861,0.002531,0.099257,0.134830
1051,-3.742137,-0.016759,-6.675034,0.003997,0.120708,0.150285
1066,-3.533842,-0.339977,-6.624756,0.011991,0.124971,0.087533
1081,-3.268085,-0.636858,-6.526594,0.024914,0.099790,-0.021717
1096,-3.098097,-0.794875,-6.466739,0.003597,0.044233,-0.124438
1111,-3.337517,-0.636858,-6.512228,-0.025181,-0.025714,-0.189055
1126,-3.612850,-0.301669,-6.502652,-0.037038,-0.070879,-0.206642
1141,-3.778050,-0.011971,-6.651092,-0.032242,-0.080871,-0.170936
1156,-3.806781,0.158017,-6.718130,-0.053159,-0.042234,-0.082737
1171,-4.000711,0.397437,-6.751649,-0.079273,0.007328,0.035839
1186,-3.873818,0.593762,-6.957550,-0.080205,0.035173,0.131632
1201,-3.739743,0.780510,-6.952762,-0.010392,0.037038,0.174533
1216,-3.859453,0.378284,-6.950367,0.072078,0.059954,0.138427
1231,-3.718195,-0.100556,-6.888118,0.135763,0.091530,0.033041
1246,-3.751714,-0.624887,-6.847417,0.140559,0.100456,-0.066749
1261,-3.603273,-0.878672,-6.833052,0.073810,0.081404,-0.117776
1276,-3.512294,-0.634463,-6.651092,-0.005995,0.043700,-0.129101
1291,-3.529053,-0.275333,-6.552930,-0.032775,0.005462,-0.116311
1306,-3.706224,-0.158017,-6.517017,-0.038237,-0.022116,-0.076208
1321,-3.797204,-0.086191,-6.528988,-0.052093,-0.024381,-0.001599
1336,-3.847482,0.107739,-6.624756,-0.069280,0.003730,0.066749
1351,-3.828328,0.165200,-6.722918,-0.062619,0.048363,0.108051
1366,-3.821146,0.143652,-6.725312,-0.041302,0.099923,0.115645
1381,-3.529053,-0.136469,-6.727706,-0.002531,0.104453,0.084602
1396,-3.280056,-0.344765,-6.555324,0.029311,0.100456,0.011724
1411,-3.349488,-0.694318,-6.497863,0.028911,0.068081,-0.068214
1426,-3.371036,-0.639252,-6.493075,-0.001332,0.011325,-0.117377
1441,-3.476381,-0.404620,-6.588843,-0.022916,-0.049162,-0.131100
1456,-3.687071,-0.191536,-6.651092,-0.038504,-0.067681,-0.106851
1471,-3.790021,0.021548,-6.775591,-0.048629,-0.049695,-0.047164
1486,-4.007894,0.167594,-6.904878,-0.069147,0.020384,0.039969
1501,-4.000711,0.165200,-6.816292,-0.093262,0.077674,0.120441
1516,-3.689465,0.222661,-6.833052,-0.084069,0.125770,0.172268
1531,-3.488352,0.253785,-6.658275,-0.039303,0.095260,0.185858
1546,-3.529053,-0.112527,-6.727706,-0.013723,0.089798,0.164407
1561,-3.438074,-0.328006,-6.564901,0.038371,0.067681,0.087000
1576,-3.361459,-0.699107,-6.579266,0.061153,0.049828,-0.008660
1591,-3.174711,-0.840365,-6.569689,0.036505,0.000933,-0.083136
1606,-3.327940,-0.670376,-6.610391,0.005063,-0.054358,-0.121640
1621,-3.541024,-0.462081,-6.665457,-0.013590,-0.071012,-0.128168
1636,-3.679888,-0.220267,-6.651092,-0.025980,-0.073943,-0.093129
1651,-3.679888,-0.124498,-6.900089,-0.064351,-0.046764,-0.027712
1666,-3.751714,0.052672,-6.943185,-0.096326,-0.013456,0.035040
1681,-3.864241,0.167594,-6.916849,-0.079806,0.013856,0.062086
1696,-3.770868,0.141258,-6.859388,-0.045565,0.038237,0.048496
1711,-3.600879,0.079009,-6.797139,0.007461,0.057689,0.000933
1726,-3.560178,-0.289698,-6.696582,0.054625,0.033574,-0.075009
1741,-3.569755,-0.524330,-6.655880,0.047430,0.016387,-0.130034
1756,-3.737349,-0.505177,-6.708553,0.006795,0.008660,-0.158412
1771,-3.612850,-0.158017,-6.643909,-0.004130,-0.013456,-0.162409
1786,-3.859453,-0.086191,-6.801927,-0.010658,0.032109,-0.129101
1801,-3.861847,-0.071826,-6.840234,-0.019985,0.069014,-0.059421
1816,-3.804386,-0.090980,-6.868965,-0.045165,0.078740,0.014789
1831,-3.632004,-0.026336,-6.710947,-0.069280,0.053559,0.073677
1846,-3.538630,0.055067,-6.593631,-0.053426,0.061686,0.091397
1861,-3.608062,-0.040701,-6.639121,-0.022783,0.063152,0.074609
1876,-3.555389,-0.213084,-6.562507,-0.003597,0.049429,0.040103
1891,-3.435679,-0.344765,-6.562507,0.019985,0.061286,-0.012124
1906,-3.373430,-0.529119,-6.507440,0.007461,0.042634,-0.050628
1921,-3.409343,-0.428562,-6.469133,-0.016787,0.036372,-0.059954
1936,-3.428497,-0.351948,-6.490681,-0.018519,0.028911,-0.046631
1951,-3.390190,-0.165200,-6.478710,-0.015322,0.006928,-0.011191
1966,-3.359065,-0.112527,-6.536170,-0.017054,-0.001332,0.044899
1981,-3.608062,-0.146046,-6.634333,-0.048763,-0.019718,0.118176
1996,-3.667917,-0.019154,-6.648698,-0.087133,-0.014389,0.190787
2011,-3.699042,0.088585,-6.648698,-0.106185,-0.000400,0.246744
2026,-3.471592,0.442927,-6.636727,-0.054358,-0.009726,0.267262
2041,-3.579331,-0.263362,-6.785168,-0.041435,0.032908,0.251674
2056,-3.464410,-0.402226,-6.837840,-0.010925,0.032508,0.162675
2071,-3.411737,-0.708684,-6.789956,0.044632,0.049962,0.018119
2086,-3.354276,-0.962469,-6.746861,0.055824,0.042368,-0.110582
2101,-3.287239,-1.072602,-6.766014,0.016387,0.025980,-0.172135
2116,-3.435679,-0.852336,-6.665457,-0.050495,-0.010126,-0.172534
2131,-3.593697,-0.593762,-6.687005,-0.097392,-0.041435,-0.134830
2146,-3.708618,-0.277727,-6.744466,-0.141891,-0.036106,-0.057556
2161,-3.718195,-0.021548,-6.811504,-0.164940,-0.015855,0.021317
2176,-3.948039,0.076614,-6.945579,-0.172002,0.023182,0.073011
2191,-3.909731,0.244209,-7.122750,-0.122706,0.044366,0.073677
2206,-3.809175,0.165200,-7.015011,-0.059554,0.098858,0.024381
2221,-3.500323,-0.004788,-6.837840,-0.004663,0.100190,-0.050628
2236,-3.507505,-0.272939,-6.813898,0.005862,0.091263,-0.093662
2251,-3.411737,-0.308852,-6.739678,-0.026646,0.053426,-0.109916
2266,-3.414132,-0.143652,-6.572083,-0.049695,-0.004796,-0.097525
2281,-3.438074,0.090980,-6.576872,-0.041701,-0.031176,-0.071279
2296,-3.622427,0.186748,-6.713341,-0.035040,-0.023715,-0.030110
2311,-3.727772,0.150835,-6.754043,-0.039037,0.004130,0.022916
2326,-3.574543,0.131681,-6.684611,-0.054225,0.023982,0.061953
2341,-3.438074,0.086191,-6.643909,-0.047430,0.054492,0.056357
2356,-3.462016,0.057461,-6.562507,-0.017187,0.040902,0.020384
2371,-3.469198,-0.069432,-6.550536,0.003464,0.034640,-0.009593
2386,-3.414132,-0.083797,-6.593631,-0.003064,0.001466,-0.010925
2401,-3.272874,0.035913,-6.603208,-0.015855,-0.007994,0.007461
2416,-3.327940,0.083797,-6.572083,-0.008527,-0.030377,0.032242
2431,-3.576937,0.191536,-6.864176,0.032642,-0.030643,0.044100
2446,-3.610456,-0.129287,-6.873753,0.059288,-0.055291,0.054891
2461,-3.550601,-0.296881,-6.912060,0.037305,-0.036239,0.055025
2476,-3.639187,-0.651223,-6.952762,0.007194,-0.035306,0.029178
2491,-3.742137,-0.656011,-6.902483,-0.035706,-0.010259,-0.008660
2506,-3.852270,-0.490811,-6.933608,-0.047564,0.039969,-0.042501
2521,-3.620033,-0.383072,-6.842628,-0.033841,0.051427,-0.060753
2536,-3.464410,-0.304064,-6.806715,-0.037838,0.043300,-0.049029
2551,-3.634398,-0.193930,-6.744466,-0.020518,0.011325,-0.033308
2566,-3.708618,-0.196325,-6.653486,-0.005729,0.030776,-0.016654
2581,-3.572149,-0.225055,-6.651092,-0.006129,0.017853,0.001865
2596,-3.485958,-0.201113,-6.629544,-0.028511,0.002132,0.024381
2611,-3.493140,-0.162806,-6.732495,-0.033041,-0.014655,0.030377
2626,-3.696647,-0.146046,-6.782773,-0.005063,-0.020518,0.014123
2641,-3.739743,-0.292093,-6.842628,-0.004263,0.013856,0.003597
2656,-3.586514,-0.421380,-6.912060,-0.024781,0.057289,0.000266
2671,-3.524265,-0.526724,-6.801927,-0.059021,0.078207,-0.004130
2686,-3.476381,-0.488417,-6.660669,-0.074476,0.055291,-0.026513
2701,-3.430891,-0.342371,-6.785168,-0.078740,0.035440,-0.040502
2716,-3.428497,-0.126893,-6.584054,-0.064217,-0.005729,-0.050228
2731,-3.531447,0.000000,-6.521805,-0.038637,-0.030643,-0.038104
2746,-3.574543,0.126893,-6.713341,-0.028245,-0.032375,-0.012524
2761,-3.495534,0.119710,-6.787562,-0.041701,-0.044100,0.042234
2776,-3.701436,0.136469,-6.718130,-0.044499,-0.047697,0.101789
2791,-3.713407,-0.043096,-6.646304,-0.047031,-0.007461,0.132698
2806,-3.584120,-0.069432,-6.588843,-0.033175,0.024115,0.095527
2821,-3.289633,-0.320823,-6.639121,-0.008127,0.022649,0.021051
2836,-3.390190,-0.430956,-6.718130,0.016787,0.021051,-0.076608
2851,-3.550601,-0.593762,-6.663063,0.003064,0.006928,-0.129634
2866,-3.550601,-0.426168,-6.677428,-0.038504,-0.001732,-0.125770
2881,-3.490746,-0.189142,-6.643909,-0.075942,-0.006262,-0.091263
2896,-3.675100,0.002394,-6.665457,-0.093528,-0.002531,-0.032109
2911,-3.639187,0.179565,-6.598420,-0.099790,-0.000666,0.034507
2926,-3.655946,0.287304,-6.622362,-0.090730,-0.004663,0.102988
2941,-3.552995,0.375890,-6.756437,-0.055557,-0.020784,0.148153
2956,-3.655946,-0.021548,-6.821081,-0.042368,0.001332,0.152550
2971,-3.610456,-0.277727,-6.797139,-0.012790,-0.002265,0.085934
2986,-3.610456,-0.574608,-6.742072,0.007061,0.022783,-0.008793
3001,-3.418920,-0.560243,-6.722918,-0.007594,0.003198,-0.073810
3016,-3.493140,-0.459687,-6.744466,-0.033841,-0.008793,-0.105519
3031,-3.560178,-0.280122,-6.773197,-0.047164,-0.037971,-0.089531
3046,-3.794810,-0.102951,-6.617573,-0.055957,-0.039570,-0.048629
3061,-3.742137,0.081403,-6.761226,-0.068614,-0.025847,0.021583
3076,-3.706224,0.237026,-6.940791,-0.065283,-0.030377,0.090597
3091,-3.904943,0.270545,-7.101202,-0.047830,-0.011591,0.130966
3106,-4.029441,0.172383,-7.182605,-0.006129,0.041968,0.126703
3121,-3.938462,-0.440533,-7.072472,0.007861,0.117776,0.066083
3136,-3.541024,-0.964863,-6.936002,-0.035706,0.178130,-0.034773
3151,-3.342305,-1.328782,-6.653486,-0.075276,0.154681,-0.149885
3166,-3.234566,-1.204283,-6.459556,-0.118709,0.073677,-0.239017
3181,-3.258508,-0.804452,-6.488286,-0.141891,-0.019718,-0.294974
3196,-3.287239,-0.359130,-6.452374,-0.156813,-0.089931,-0.285914
3211,-3.608062,0.107739,-6.593631,-0.145355,-0.122706,-0.219698
3226,-4.149151,0.464475,-6.610391,-0.149086,-0.087266,-0.082603
3241,-4.376601,0.897826,-6.919243,-0.164940,0.051560,0.093129
3256,-3.940856,1.264138,-7.115567,-0.100456,0.116311,0.222496
3271,-3.797204,1.120486,-7.010222,0.000400,0.169737,0.279119
3286,-3.696647,0.488417,-6.847417,0.060221,0.193985,0.271925
3301,-3.347094,-0.071826,-6.596025,0.085401,0.184259,0.193718
3316,-3.007117,-0.653617,-6.366182,0.065417,0.129634,0.078473
3331,-2.873042,-0.883460,-6.301539,0.013989,0.033175,-0.023315
3346,-3.119645,-0.746991,-6.318298,-0.019985,-0.068481,-0.095260
3361,-3.122039,-0.454898,-6.433220,-0.040369,-0.154681,-0.111781
3376,-3.433285,-0.124498,-6.598420,-0.036372,-0.198781,-0.094461
3391,-3.866636,-0.090980,-6.806715,-0.057156,-0.171735,-0.027179
3406,-4.039018,-0.050278,-7.053318,-0.118309,-0.041168,0.062619
3421,-3.964798,0.071826,-6.971915,-0.110315,0.019452,0.095527
3436,-3.471592,0.047884,-6.744466,-0.072211,0.060753,0.057423
3451,-3.342305,0.031125,-6.670246,-0.006662,0.048763,-0.008127
3466,-3.361459,-0.052672,-6.665457,0.057423,-0.019319,-0.073410
3481,-3.629610,-0.165200,-6.619967,0.068081,-0.053026,-0.088998
3496,-3.711013,-0.138864,-6.627150,0.039303,-0.075675,-0.071812
3511,-3.787627,0.033519,-6.754043,0.000933,-0.072877,-0.024381
3526,-4.012682,0.047884,-6.775591,-0.045032,-0.030377,0.063418
3541,-3.928885,0.256180,-6.816292,-0.070213,0.009992,0.159877
3556,-3.794810,0.387861,-6.883330,-0.048896,0.042634,0.219032
3571,-3.720589,0.387861,-7.060501,-0.004130,0.053426,0.244080
3586,-3.627216,-0.122104,-7.096414,0.006928,0.091796,0.215701
3601,-3.536236,-0.450110,-6.847417,0.036106,0.080738,0.107518
3616,-3.394978,-0.687136,-6.720524,0.045299,0.076075,-0.024781
3631,-3.292027,-0.742203,-6.768408,0.024248,0.023449,-0.118309
3646,-3.438074,-0.488417,-6.636727,-0.007328,-0.024381,-0.163874
3661,-3.675100,-0.210690,-6.653486,-0.025181,-0.042634,-0.146688
3676,-3.792415,-0.069432,-6.574478,-0.037038,-0.058222,-0.094461
3691,-3.840299,0.184354,-6.718130,-0.060354,0.004130,0.000000
3706,-3.689465,0.344765,-6.720524,-0.069813,0.013190,0.081538
3721,-3.799598,0.301669,-6.766014,-0.050095,0.033974,0.135896
3736,-3.682282,0.186748,-6.727706,-0.023449,0.027179,0.151351
3751,-3.488352,0.002394,-6.763620,0.019452,0.053159,0.106985
3766,-3.462016,-0.282516,-6.739678,0.074210,0.050228,0.006795
3781,-3.555389,-0.603339,-6.675034,0.080072,0.057822,-0.073277
3796,-3.519476,-0.586579,-6.567295,0.054358,0.018253,-0.116311
3811,-3.440468,-0.397437,-6.572083,0.019052,-0.013190,-0.118842
3826,-3.543418,-0.167594,-6.478710,-0.001066,-0.040369,-0.094861
3841,-3.713407,-0.112527,-6.478710,-0.016254,-0.055691,-0.049296
3856,-3.828328,-0.088585,-6.677428,-0.053559,-0.046897,0.024115
3871,-3.794810,0.112527,-6.710947,-0.090597,-0.050228,0.097925
3886,-3.904943,0.198719,-6.866570,-0.093129,0.019718,0.154681
3901,-3.797204,0.325611,-6.988675,-0.054492,0.045565,0.168404
3916,-3.715801,0.174777,-6.967127,0.001732,0.069280,0.156413
3931,-3.588908,-0.210690,-6.873753,0.026113,0.108317,0.104320
3946,-3.275268,-0.509965,-6.663063,0.064484,0.083936,0.000400
3961,-3.117250,-0.885855,-6.495469,0.058888,0.042368,-0.097925
3976,-3.359065,-0.866701,-6.497863,0.016387,-0.041302,-0.149086
3991,-3.514688,-0.450110,-6.507440,-0.023848,-0.108450,-0.157613
4006,-3.828328,-0.323217,-6.569689,-0.065150,-0.094861,-0.116844
4021,-4.031836,-0.110133,-6.828263,-0.118443,-0.031842,-0.034240
4036,-4.024653,0.107739,-7.031770,-0.129634,0.035173,0.045698
4051,-3.881001,0.258574,-6.952762,-0.121240,0.058755,0.107251
4066,-3.670311,0.270545,-6.835446,-0.103254,0.071412,0.138694
4081,-3.562572,0.158017,-6.658275,-0.077407,0.076874,0.144423
4096,-3.560178,-0.316035,-6.509834,-0.062352,0.071678,0.099391
4111,-3.280056,-0.332794,-6.509834,-0.027446,0.047164,0.008527
4126,-3.215413,-0.471658,-6.411672,0.018786,-0.020917,-0.080338
4141,-3.339911,-0.392649,-6.598420,0.014123,-0.075009,-0.127502
4156,-3.684676,-0.349553,-6.646304,-0.009193,-0.093662,-0.120308
4171,-3.876213,-0.158017,-6.763620,-0.046764,-0.073544,-0.061686
4186,-3.924097,0.184354,-6.933608,-0.073011,-0.038637,0.019319
4201,-3.983952,0.320823,-7.000646,-0.084602,0.031043,0.101655
4216,-3.897760,0.488417,-6.940791,-0.083403,0.087666,0.176132
4231,-3.821146,0.584185,-6.991069,-0.052093,0.106851,0.225960
4246,-3.564966,0.433351,-6.727706,-0.020384,0.084469,0.245145
4261,-3.445256,0.220267,-6.718130,0.029577,0.080205,0.199714
4276,-3.387795,-0.349553,-6.667851,0.083403,0.066216,0.085934
4291,-3.380613,-0.598550,-6.663063,0.118176,0.040369,-0.044100
4306,-3.430891,-0.763750,-6.706159,0.091930,0.014655,-0.124172
4321,-3.488352,-0.754174,-6.730101,0.012657,-0.011458,-0.138294
4336,-3.598485,-0.418985,-6.672640,-0.056623,-0.017853,-0.101522
4351,-3.694253,-0.141258,-6.581660,-0.087133,-0.038104,-0.046364
4366,-3.727772,0.081403,-6.655880,-0.103254,-0.013856,0.025980
4381,-3.675100,0.196325,-6.749255,-0.103387,-0.010392,0.090730
4396,-3.763685,0.294487,-6.698976,-0.090730,0.017453,0.117377
4411,-3.837905,0.136469,-6.801927,-0.061686,0.042767,0.106052
4426,-3.655946,0.181959,-6.629544,-0.012657,0.035706,0.065283
4441,-3.519476,0.002394,-6.670246,0.017587,0.052626,0.019851
4456,-3.490746,-0.251391,-6.687005,0.029977,0.031043,-0.020384
4471,-3.462016,-0.292093,-6.588843,0.019185,0.011591,-0.040636
4486,-3.552995,-0.402226,-6.536170,-0.007194,-0.005596,-0.049695
4501,-3.447650,-0.349553,-6.574478,-0.028245,-0.033175,-0.051694
4516,-3.493140,-0.210690,-6.641515,-0.055957,-0.027579,-0.036239
4531,-3.720589,0.033519,-6.694188,-0.058089,-0.035972,-0.008394
4546,-3.864241,0.258574,-6.713341,-0.047830,-0.013989,0.039170
4561,-3.864241,0.292093,-6.801927,-0.049962,0.013456,0.100590
4576,-3.667917,0.306458,-6.801927,-0.039836,0.034907,0.155481
4591,-3.684676,0.237026,-6.816292,-0.022250,0.050361,0.183326
4606,-3.672705,-0.067038,-6.768408,0.003331,0.062086,0.167605
4621,-3.440468,-0.335188,-6.715735,0.053292,0.048096,0.081937
4636,-3.246537,-0.792481,-6.758832,0.086467,0.016521,-0.038237
4651,-3.416526,-0.909797,-6.600814,0.051427,-0.023315,-0.133631
4666,-3.605668,-0.830788,-6.615179,0.003597,-0.051960,-0.178130
4681,-3.653552,-0.536301,-6.519411,-0.035839,-0.074609,-0.175599
4696,-3.555389,-0.162806,-6.579266,-0.042234,-0.094328,-0.145622
4711,-3.739743,-0.043096,-6.629544,-0.052760,-0.109649,-0.074743
4726,-4.048595,0.225055,-6.627150,-0.073277,-0.085534,0.025847
4741,-4.218583,0.232238,-6.895301,-0.104054,-0.001865,0.119908
4756,-3.897760,0.306458,-6.873753,-0.120308,0.040769,0.189721
4771,-3.727772,0.474052,-6.830657,-0.073677,0.071678,0.198248
4786,-3.885789,0.076614,-6.823475,-0.019851,0.092596,0.169204
4801,-3.541024,-0.114922,-6.648698,0.048629,0.120175,0.069280
4816,-3.332729,-0.632069,-6.459556,0.092196,0.081538,-0.046098
4831,-3.126827,-0.818817,-6.550536,0.054758,0.000266,-0.116444
4846,-3.361459,-0.610521,-6.497863,0.003597,-0.073410,-0.136962
4861,-3.627216,-0.342371,-6.576872,-0.026247,-0.108850,-0.126703
4876,-3.744531,-0.172383,-6.550536,-0.046231,-0.100989,-0.081937
4891,-3.885789,-0.004788,-6.789956,-0.095793,-0.032109,-0.002132
4906,-3.849876,0.241814,-6.797139,-0.110982,0.002132,0.066349
4921,-3.955221,0.229843,-6.904878,-0.098191,0.036239,0.101256
4936,-3.830723,0.225055,-6.952762,-0.081005,0.046231,0.116977
4951,-3.713407,0.172383,-6.962338,-0.051028,0.063285,0.105253
4966,-3.596091,-0.153229,-6.766014,-0.028245,0.066482,0.053292
4981,-3.464410,-0.344765,-6.528988,0.006262,0.047031,-0.042101
4996,-3.409343,-0.426168,-6.579266,0.014789,-0.009859,-0.120708
5011,-3.433285,-0.263362,-6.552930,0.019718,-0.076475,-0.165207
5026,-3.646369,-0.222661,-6.464345,0.005462,-0.098458,-0.156813
5041,-3.986346,-0.050278,-6.722918,-0.016654,-0.092729,-0.094061
5056,-4.197035,0.184354,-6.849811,-0.043433,-0.001466,0.003597
5071,-4.046201,0.411803,-7.026982,-0.073677,0.063018,0.121107
5086,-3.859453,0.476446,-6.940791,-0.081404,0.096859,0.212637
5101,-3.869030,0.524330,-6.900089,-0.055158,0.092462,0.252606
5116,-3.778050,0.553061,-6.773197,0.015188,0.084868,0.243680
5131,-3.596091,-0.016759,-6.770802,0.058089,0.089398,0.184792
5146,-3.292027,-0.320823,-6.447585,0.086734,0.051694,0.081937
5161,-3.311181,-0.842759,-6.497863,0.083003,0.013456,-0.020384
5176,-3.359065,-0.852336,-6.461950,0.035440,-0.041302,-0.090864
5191,-3.454833,-0.509965,-6.591237,0.003198,-0.079539,-0.117377
5206,-3.679888,-0.292093,-6.481104,-0.022116,-0.088066,-0.100856
5221,-4.012682,-0.184354,-6.696582,-0.045565,-0.029711,-0.042101
5236,-3.981557,-0.050278,-6.801927,-0.069147,0.004530,0.036505
5251,-3.773262,0.102951,-6.701370,-0.081271,0.040369,0.089665
5266,-3.737349,0.105345,-6.694188,-0.066083,0.033841,0.115911
5281,-3.684676,0.169988,-6.665457,-0.029711,0.027845,0.120041
5296,-3.734955,-0.155623,-6.655880,0.002398,0.028378,0.100590
5311,-3.567360,-0.457293,-6.648698,0.018119,0.023449,0.038637
5326,-3.521871,-0.687136,-6.569689,0.028112,-0.001066,-0.049962
5341,-3.596091,-0.727837,-6.607996,0.017453,-0.031176,-0.123639
5356,-3.754108,-0.670376,-6.598420,-0.020917,-0.055158,-0.144423
5371,-3.756502,-0.378284,-6.555324,-0.059954,-0.055824,-0.124571
5386,-3.775656,-0.174777,-6.607996,-0.090064,-0.040769,-0.071412
5401,-3.976769,0.081403,-6.677428,-0.107251,0.010525,0.003864
5416,-3.976769,0.184354,-6.804321,-0.117377,0.045432,0.075009
5431,-3.907337,0.464475,-6.864176,-0.090198,0.057156,0.114312
5446,-3.754108,0.457293,-6.833052,-0.030910,0.070879,0.120708
5461,-3.775656,0.155623,-6.895301,0.003464,0.072611,0.109383
5476,-3.742137,-0.181959,-6.864176,0.019851,0.085534,0.064617
5491,-3.653552,-0.332794,-6.694188,0.036639,0.050228,-0.004397
5506,-3.409343,-0.588974,-6.576872,0.015988,0.026380,-0.049962
5521,-3.354276,-0.454898,-6.483498,-0.014389,-0.014922,-0.084335
5536,-3.447650,-0.361524,-6.502652,-0.028778,-0.042501,-0.096593
5551,-3.620033,-0.095768,-6.536170,-0.020784,-0.072211,-0.085534
5566,-3.684676,0.107739,-6.600814,-0.009593,-0.086734,-0.054891
5581,-3.878607,0.076614,-6.615179,-0.028645,-0.055025,0.000266
5596,-4.180276,0.047884,-6.902483,-0.068881,0.004397,0.069547
5611,-4.089296,0.263362,-6.938396,-0.094194,0.065683,0.130966
5626,-3.897760,0.359130,-6.842628,-0.070213,0.098724,0.151884
5641,-3.754108,0.038307,-6.742072,-0.052626,0.107917,0.154815
5656,-3.488352,-0.186748,-6.598420,-0.040103,0.104054,0.106185
5671,-3.392584,-0.380678,-6.442797,0.005862,0.055424,0.015188
5686,-3.248932,-0.476446,-6.428432,0.040369,-0.022916,-0.070746
5701,-3.330334,-0.497994,-6.449979,0.047031,-0.088732,-0.125637
5716,-3.648763,-0.452504,-6.588843,0.021184,-0.113779,-0.132299
5731,-3.969586,-0.404620,-6.643909,-0.013989,-0.086201,-0.090997
5746,-4.055778,-0.203507,-6.775591,-0.065949,-0.018919,-0.024781
5761,-3.981557,-0.004788,-6.890512,-0.090464,0.040502,0.037704
5776,-3.847482,0.059855,-6.890512,-0.084335,0.061286,0.067282
5791,-3.758897,0.134075,-6.840234,-0.044632,0.050628,0.069946
5806,-3.770868,0.064643,-6.660669,-0.007861,0.033574,0.056090
5821,-3.696647,0.090980,-6.596025,0.006528,0.020384,0.043567
5836,-3.636792,0.059855,-6.653486,0.010259,0.006528,0.042501
5851,-3.828328,-0.074220,-6.624756,0.001732,0.013057,0.050495
5866,-3.766079,-0.119710,-6.469133,-0.007727,0.013190,0.034640
5881,-3.653552,-0.263362,-6.509834,-0.004663,0.012790,-0.001732
5896,-3.605668,-0.284910,-6.691793,0.004796,-0.008394,-0.028245
5911,-3.579331,-0.397437,-6.639121,-0.012391,-0.025447,-0.034374
5926,-3.821146,-0.277727,-6.737284,-0.026779,-0.037571,-0.020651
5941,-3.840299,-0.169988,-6.806715,-0.039436,-0.024248,0.006662
5956,-3.888184,0.000000,-6.813898,-0.047697,-0.007994,0.039703
5971,-4.094085,-0.110133,-6.754043,-0.067282,0.028378,0.079006
5986,-3.945644,-0.002394,-6.746861,-0.085668,0.064884,0.114712
6001,-3.758897,0.136469,-6.488286,-0.065550,0.068081,0.141358
6016,-3.488352,0.057461,-6.593631,-0.033041,0.046364,0.155747
6031,-3.402161,-0.258574,-6.505046,0.005462,0.040369,0.127103
6046,-3.433285,-0.718261,-6.545747,0.038637,0.021583,0.049562
6061,-3.299210,-0.981623,-6.502652,0.045299,-0.003730,-0.048896
6076,-3.236961,-1.070208,-6.588843,0.013456,-0.033175,-0.127502
6091,-3.483563,-0.921768,-6.641515,-0.057023,-0.037704,-0.156280
6106,-3.742137,-0.627281,-6.581660,-0.115378,-0.030510,-0.148420
6121,-3.730166,-0.177171,-6.507440,-0.136429,-0.019319,-0.123905
6136,-3.591302,0.117316,-6.430826,-0.139893,-0.047164,-0.075942
6151,-3.696647,0.258574,-6.550536,-0.126170,-0.062885,-0.024648
6166,-3.888184,0.529119,-6.732495,-0.086334,-0.082870,0.012391
6181,-4.067749,0.586579,-6.868965,-0.043567,-0.075409,0.032242
6196,-4.118027,0.713472,-6.943185,0.006129,-0.045698,0.021450
6211,-4.141969,0.624887,-7.077260,0.071145,0.017054,0.001332
6226,-4.211401,0.284910,-7.146692,0.072744,0.045032,0.013856
6241,-4.046201,0.031125,-6.983886,0.022116,0.088865,0.027712
6256,-3.847482,-0.141258,-6.878541,-0.009326,0.109783,0.022783
6271,-3.622427,-0.158017,-6.677428,-0.017986,0.068214,-0.000400
6286,-3.766079,-0.138864,-6.696582,-0.019452,0.031975,-0.020384
6301,-3.809175,-0.105345,-6.679822,-0.017853,-0.009459,-0.026779
6316,-3.849876,-0.090980,-6.734890,-0.029311,-0.011724,-0.015721
6331,-3.919308,0.045490,-6.696582,-0.049562,0.017587,0.017587
6346,-4.108450,0.167594,-6.713341,-0.055158,0.066749,0.073677
6361,-3.986346,0.191536,-6.691793,-0.060487,0.100723,0.130034
6376,-3.885789,0.308852,-6.665457,-0.031043,0.123639,0.155881
6391,-3.701436,0.325611,-6.643909,0.037571,0.112314,0.147354
6406,-3.677494,-0.028730,-6.670246,0.075809,0.119109,0.130433
6421,-3.663129,-0.440533,-6.514623,0.078473,0.073810,0.088865
6436,-3.473987,-0.708684,-6.464345,0.057822,0.062352,0.030377
6451,-3.442862,-0.749385,-6.507440,0.041835,0.014922,-0.031443
6466,-3.457227,-0.735020,-6.368577,0.012657,-0.023715,-0.070213
6481,-3.646369,-0.579397,-6.380548,-0.027579,-0.053825,-0.072345
6496,-3.742137,-0.414197,-6.531382,-0.066616,-0.044899,-0.043300
6511,-3.840299,-0.138864,-6.627150,-0.090997,-0.021184,0.002531
6526,-3.778050,-0.074220,-6.682217,-0.098191,0.011325,0.046231
6541,-3.778050,0.009577,-6.756437,-0.078074,0.032775,0.069014
6556,-3.701436,-0.026336,-6.782773,-0.048230,0.040236,0.069813
6571,-3.521871,-0.098162,-6.777985,-0.011991,0.035173,0.048096
6586,-3.471592,-0.138864,-6.653486,0.029311,0.022516,-0.002931
6601,-3.586514,-0.627281,-6.679822,0.029311,0.009859,-0.060887
6616,-3.725378,-0.703895,-6.682217,-0.005995,-0.018119,-0.100057
6631,-3.701436,-0.476446,-6.720524,-0.065683,-0.006662,-0.104986
6646,-3.665523,-0.174777,-6.670246,-0.098858,-0.020917,-0.090730
6661,-3.806781,0.074220,-6.713341,-0.088998,-0.033041,-0.062619
6676,-4.005499,0.158017,-6.749255,-0.088732,-0.014389,-0.010126
6691,-4.060566,0.282516,-6.780379,-0.095127,0.050095,0.060087
6706,-3.900155,0.311246,-6.725312,-0.094461,0.099524,0.118443
6721,-3.632004,0.368707,-6.569689,-0.085135,0.093795,0.153349
6736,-3.514688,0.488417,-6.557718,-0.037172,0.070346,0.162942
6751,-3.414132,0.232238,-6.435614,-0.005462,0.039969,0.161343
6766,-3.339911,-0.241814,-6.531382,0.019052,0.028645,0.118176
6781,-3.426103,-0.615310,-6.509834,0.043966,0.001199,0.017986
6796,-3.371036,-0.871489,-6.576872,0.050228,-0.026646,-0.099524
6811,-3.603273,-1.000776,-6.567295,-0.000400,-0.025714,-0.179862
6826,-3.682282,-0.876278,-6.718130,-0.057689,-0.026913,-0.215035
6841,-3.770868,-0.529119,-6.572083,-0.110049,-0.024781,-0.207308
6856,-3.861847,-0.076614,-6.531382,-0.153083,-0.017054,-0.132299
6871,-3.818752,0.440533,-6.476315,-0.161876,-0.038504,-0.038237
6886,-3.828328,0.495600,-6.653486,-0.158279,-0.034773,0.053426
6901,-3.907337,0.988805,-6.512228,-0.077807,-0.059288,0.112314
6916,-4.000711,0.837971,-6.701370,0.006129,-0.025047,0.125904
6931,-3.869030,0.311246,-6.797139,0.066083,0.011058,0.092462
6946,-3.754108,-0.225055,-6.847417,0.089265,0.044233,0.020251
6961,-3.737349,-0.677559,-6.816292,0.053692,0.034507,-0.038504
6976,-3.658340,-0.538695,-6.727706,-0.010658,-0.001998,-0.067282
6991,-3.632004,-0.301669,-6.749255,-0.051427,-0.009992,-0.072078
7006,-3.785233,-0.071826,-6.627150,-0.057689,-0.009326,-0.060087
7021,-3.835511,0.177171,-6.667851,-0.055557,-0.012124,-0.016121
7036,-3.813963,0.349553,-6.691793,-0.056623,-0.025314,0.053026
7051,-3.830723,0.351948,-6.758832,-0.071678,-0.020118,0.130167
7066,-3.785233,0.486023,-6.809110,-0.062219,-0.006528,0.174933
7081,-3.936068,0.605733,-6.998251,-0.005196,0.029844,0.188922
7096,-3.974375,0.304064,-6.883330,0.032642,0.068881,0.183726
7111,-3.593697,-0.079009,-6.830657,0.076741,0.097792,0.126303
7126,-3.447650,-0.670376,-6.670246,0.095793,0.070346,0.037838
7141,-3.483563,-0.881066,-6.615179,0.059155,0.030110,-0.028378
7156,-3.632004,-0.833182,-6.581660,0.012124,-0.004530,-0.072478
7171,-3.567360,-0.514753,-6.435614,-0.023049,-0.036639,-0.082470
7186,-3.754108,-0.301669,-6.454768,-0.041835,-0.038770,-0.064351
7201,-3.813963,-0.021548,-6.435614,-0.037172,-0.055957,-0.025047
7216,-3.986346,0.090980,-6.564901,-0.036905,-0.057423,0.031576
7231,-3.957615,0.158017,-6.734890,-0.042767,-0.035972,0.086201
7246,-4.089296,0.232238,-6.931214,-0.029178,0.034640,0.119642
7261,-3.842694,0.198719,-6.718130,0.007461,0.070613,0.126037
7276,-3.916914,-0.263362,-6.828263,0.013190,0.092596,0.111381
7291,-3.576937,-0.284910,-6.576872,0.025714,0.055691,0.064217
7306,-3.488352,-0.586579,-6.495469,0.006528,0.053825,0.005995
7321,-3.512294,-0.533907,-6.483498,-0.006129,-0.009326,-0.053559
7336,-3.658340,-0.426168,-6.476315,-0.008394,-0.024648,-0.092196
7351,-3.672705,-0.311246,-6.567295,-0.015188,-0.050095,-0.095660
7366,-3.849876,-0.148441,-6.514623,-0.048496,-0.040902,-0.065283
7381,-3.900155,0.102951,-6.732495,-0.068614,-0.010392,-0.019985
7396,-4.039018,0.021548,-6.722918,-0.092329,0.012124,0.040769
7411,-4.012682,0.256180,-6.761226,-0.117910,0.028911,0.095793
7426,-3.799598,0.488417,-6.689399,-0.084069,0.027446,0.116977
7441,-3.732560,0.517148,-6.734890,-0.017187,0.000933,0.121773
7456,-3.948039,0.502782,-6.744466,0.052893,-0.007328,0.119642
7471,-4.000711,0.330400,-6.833052,0.085135,-0.006795,0.143890
7486,-3.825934,-0.064643,-6.782773,0.067149,0.033441,0.156413
7501,-3.620033,-0.474052,-6.722918,0.053426,0.055025,0.102322
7516,-3.500323,-0.871489,-6.708553,0.038104,0.065683,0.013057
7531,-3.459621,-0.972046,-6.607996,0.004796,0.026913,-0.062619
7546,-3.397372,-0.679953,-6.524199,-0.014389,-0.033574,-0.112181
7561,-3.620033,-0.450110,-6.564901,-0.033441,-0.053426,-0.129900
7576,-3.825934,-0.323217,-6.600814,-0.059021,-0.043833,-0.105786
7591,-4.041412,-0.033519,-6.627150,-0.063685,-0.032508,-0.063285
7606,-3.991134,0.079009,-6.715735,-0.082070,-0.029311,-0.010658
7621,-4.000711,0.392649,-6.560112,-0.065949,-0.031975,0.035440
7636,-4.125209,0.478840,-6.885724,-0.023982,0.003331,0.053159
7651,-4.082114,0.509965,-6.849811,0.026779,0.027845,0.066616
7666,-3.976769,0.366313,-6.861782,0.061686,0.048230,0.072877
7681,-3.780444,-0.100556,-6.789956,0.056890,0.058755,0.074343
7696,-3.476381,-0.294487,-6.588843,0.053292,0.031842,0.032375
7711,-3.734955,-0.565032,-6.672640,0.048496,0.025580,-0.030776
7726,-3.703830,-0.509965,-6.648698,0.029844,-0.010525,-0.071412
7741,-3.744531,-0.351948,-6.581660,0.015721,-0.005462,-0.095793
7756,-3.833117,-0.383072,-6.703764,-0.004263,-0.017320,-0.084202
7771,-3.986346,-0.344765,-6.718130,-0.040103,0.013856,-0.047430
7786,-3.933673,-0.280122,-6.581660,-0.071945,0.031043,0.003064
7801,-3.811569,-0.112527,-6.687005,-0.088732,0.044766,0.040902
7816,-3.722984,0.057461,-6.722918,-0.073943,0.041435,0.057289
7831,-3.866636,0.124498,-6.562507,-0.028112,0.035573,0.055424
7846,-3.981557,0.169988,-6.607996,0.019185,0.045965,0.041035
7861,-3.720589,0.102951,-6.481104,0.053159,0.053426,0.040769
7876,-3.562572,-0.004788,-6.497863,0.063551,0.040902,0.054492
7891,-3.533842,-0.385466,-6.414066,0.045165,0.019452,0.066216
7906,-3.473987,-0.732626,-6.423643,0.020518,0.019185,0.020384
7921,-3.387795,-0.924162,-6.471527,0.009326,-0.016254,-0.062619
7936,-3.531447,-1.146823,-6.581660,-0.027446,-0.015588,-0.134830
7951,-3.725378,-0.974440,-6.555324,-0.073011,-0.038637,-0.186391
7966,-3.883395,-0.703895,-6.569689,-0.095127,-0.039836,-0.214103
7981,-4.017470,-0.227449,-6.701370,-0.113113,-0.033441,-0.194118
7996,-4.086902,0.114922,-6.761226,-0.119775,-0.026913,-0.113513
8011,-4.189853,0.505177,-6.775591,-0.121640,0.009593,0.014655
8026,-4.304775,0.648829,-6.981492,-0.133897,0.077141,0.141225
8041,-4.086902,1.010353,-6.852205,-0.035972,0.095260,0.210772
8056,-3.780444,0.794875,-6.897695,0.069147,0.108184,0.221164
8071,-3.682282,0.174777,-6.672640,0.118842,0.114579,0.192519
8086,-3.617639,-0.579397,-6.682217,0.120308,0.119642,0.112847
8101,-3.454833,-1.048660,-6.500257,0.081937,0.094061,0.011991
8116,-3.303998,-1.120486,-6.502652,0.015188,0.047430,-0.056090
8131,-3.318363,-0.840365,-6.481104,-0.044366,-0.010126,-0.098325
8146,-3.481169,-0.565032,-6.435614,-0.058355,-0.048363,-0.112047
8161,-3.706224,-0.306458,-6.449979,-0.055691,-0.067815,-0.090464
8176,-3.746926,-0.114922,-6.569689,-0.056224,-0.049029,-0.051694
8191,-3.804386,-0.035913,-6.706159,-0.069413,-0.035173,-0.006129
8206,-3.967192,0.067038,-6.708553,-0.082337,0.003997,0.038637
8221,-4.046201,0.225055,-6.749255,-0.076208,0.040236,0.060087
8236,-3.732560,0.184354,-6.624756,-0.039303,0.084735,0.055291
8251,-3.476381,-0.119710,-6.411672,-0.007861,0.072478,0.032508
8266,-3.406949,-0.325611,-6.500257,0.016254,0.035706,-0.023049
8281,-3.493140,-0.526724,-6.342240,0.039703,-0.041435,-0.072877
8296,-3.572149,-0.584185,-6.576872,0.018253,-0.088998,-0.104720
8311,-3.790021,-0.438139,-6.605602,0.002798,-0.107784,-0.117910
8326,-4.010288,-0.289698,-6.873753,-0.016254,-0.083936,-0.084735
8341,-4.268862,-0.114922,-6.967127,-0.058489,-0.025580,-0.011058
8356,-4.297592,0.244209,-6.957550,-0.079006,0.032775,0.075542
8371,-4.012682,0.359130,-6.840234,-0.061553,0.068747,0.141758
8386,-3.924097,0.359130,-6.904878,-0.021583,0.086467,0.175865
8401,-3.971981,0.095768,-6.835446,0.046897,0.081138,0.168804
8416,-3.751714,-0.366313,-6.773197,0.085268,0.087799,0.097525
8431,-3.593697,-0.878672,-6.667851,0.090464,0.100856,-0.005729
8446,-3.512294,-1.096544,-6.581660,0.042368,0.061953,-0.087133
8461,-3.636792,-0.940921,-6.493075,-0.025447,0.028911,-0.123505
8476,-3.679888,-0.608127,-6.469133,-0.057689,-0.009726,-0.124438
8491,-3.682282,-0.299275,-6.404490,-0.069280,-0.009859,-0.104187
8506,-3.768473,-0.198719,-6.435614,-0.075142,-0.006928,-0.047297
8521,-3.794810,-0.100556,-6.397307,-0.090064,0.003331,0.013323
8536,-3.751714,0.016759,-6.574478,-0.080472,0.006262,0.056623
8551,-3.684676,0.122104,-6.612785,-0.040502,0.000666,0.059421
8566,-3.687071,-0.059855,-6.636727,-0.000133,0.006662,0.038637
8581,-3.665523,-0.234632,-6.619967,0.033574,-0.006262,-0.000400
8596,-3.821146,-0.663194,-6.617573,0.026247,0.017853,-0.029844
8611,-3.646369,-0.629675,-6.629544,-0.016254,-0.000266,-0.046231
8626,-3.663129,-0.488417,-6.651092,-0.047031,0.013057,-0.065816
8641,-3.763685,-0.342371,-6.667851,-0.046098,-0.004930,-0.064750
8656,-3.861847,-0.210690,-6.615179,-0.044366,-0.002398,-0.042368
8671,-3.878607,-0.011971,-6.619967,-0.038770,-0.016521,0.001732
8686,-3.734955,-0.040701,-6.648698,-0.048230,-0.019319,0.057156
8701,-3.854665,0.043096,-6.758832,-0.065017,-0.011591,0.098458
8716,-4.003105,0.179565,-6.758832,-0.034907,0.012657,0.112847
8731,-3.962404,0.141258,-6.816292,-0.000533,0.041302,0.122573
8746,-3.643975,-0.150835,-6.780379,0.020118,0.071145,0.102322
8761,-3.533842,-0.653617,-6.564901,0.032642,0.065150,0.032375
8776,-3.469198,-0.995988,-6.629544,0.019052,0.029711,-0.056224
8791,-3.632004,-1.103727,-6.665457,-0.030110,0.004530,-0.114979
8806,-3.593697,-0.811634,-6.624756,-0.082470,-0.027712,-0.142025
8821,-3.732560,-0.646434,-6.581660,-0.114446,-0.025047,-0.141492
8836,-3.924097,-0.373495,-6.653486,-0.134564,-0.015721,-0.104853
8851,-3.926491,-0.090980,-6.746861,-0.135763,-0.011058,-0.051161
8866,-3.955221,0.237026,-6.639121,-0.101922,0.001066,-0.007861
8881,-3.835511,0.306458,-6.667851,-0.050495,-0.000666,0.015855
8896,-3.983952,0.270545,-6.766014,-0.004397,0.025980,0.028378
8911,-3.878607,0.184354,-6.761226,0.040636,0.029311,0.032242
8926,-3.737349,-0.040701,-6.684611,0.059821,0.035173,0.024914
8941,-3.576937,-0.490811,-6.646304,0.034640,0.024248,0.005462
8956,-3.509900,-0.545878,-6.555324,0.004397,-0.000400,-0.031443
8971,-3.775656,-0.581791,-6.517017,-0.022250,-0.022516,-0.058489
8986,-3.725378,-0.430956,-6.512228,-0.049029,-0.031176,-0.059021
9001,-3.837905,-0.193930,-6.703764,-0.062619,-0.026247,-0.040236
9016,-3.957615,-0.129287,-6.780379,-0.076741,0.001998,-0.004130
9031,-4.007894,0.031125,-6.878541,-0.079806,0.015188,0.039037
9046,-3.962404,0.141258,-6.845023,-0.091263,0.027179,0.093129
9061,-3.763685,0.349553,-6.840234,-0.068214,0.027046,0.127769
9076,-3.890578,0.414197,-6.766014,-0.013590,0.048896,0.140026
9091,-4.012682,0.105345,-6.785168,0.034240,0.073144,0.144822
9106,-3.691859,-0.237026,-6.703764,0.055158,0.103654,0.112980
9121,-3.450045,-0.596156,-6.629544,0.060487,0.090997,0.053559
9136,-3.337517,-0.842759,-6.548141,0.029711,0.039037,0.002132
9151,-3.531447,-0.802058,-6.481104,0.002132,-0.007861,-0.042101
9166,-3.720589,-0.593762,-6.452374,-0.013723,-0.049029,-0.065683
9181,-3.823540,-0.387861,-6.435614,-0.028112,-0.055557,-0.059021
9196,-3.809175,-0.354342,-6.667851,-0.044100,-0.037971,-0.022116
9211,-3.969586,-0.418985,-6.677428,-0.067815,-0.020784,0.019319
9226,-4.060566,-0.462081,-6.722918,-0.082204,0.003331,0.032109
9241,-3.873818,-0.344765,-6.497863,-0.078606,0.017853,0.015055
9256,-3.804386,-0.251391,-6.540959,-0.066749,0.020784,-0.005329
9271,-3.919308,-0.217872,-6.727706,-0.057556,0.009992,-0.007727
9286,-3.883395,-0.052672,-6.651092,-0.039703,-0.006528,0.003064
9301,-3.854665,-0.059855,-6.687005,-0.028112,0.004130,0.037704
9316,-3.746926,0.033519,-6.655880,-0.017054,0.005596,0.065816
9331,-3.816357,-0.043096,-6.689399,0.000533,0.030110,0.080472
9346,-3.871424,-0.272939,-6.677428,0.001066,0.049162,0.074609
9361,-3.600879,-0.514753,-6.746861,-0.009060,0.047963,0.028778
9376,-3.605668,-0.641646,-6.696582,-0.013190,0.047564,-0.034640
9391,-3.612850,-0.735020,-6.665457,-0.028511,0.026913,-0.085534
9406,-3.780444,-0.617704,-6.488286,-0.059421,0.019851,-0.093528
9421,-3.782839,-0.409408,-6.519411,-0.067415,0.004930,-0.075409
9436,-3.711013,-0.229843,-6.445191,-0.077008,-0.006662,-0.035706
9451,-3.785233,-0.141258,-6.579266,-0.084735,-0.002265,0.015455
9466,-3.849876,-0.047884,-6.651092,-0.089265,-0.010259,0.067815
9481,-3.967192,0.052672,-6.687005,-0.077407,0.016787,0.093928
9496,-3.763685,0.124498,-6.701370,-0.034107,0.041568,0.089265
9511,-3.758897,-0.181959,-6.811504,-0.005462,0.067415,0.061819
9526,-3.536236,-0.565032,-6.658275,-0.003864,0.062086,-0.001732
9541,-3.450045,-0.845153,-6.426037,-0.011991,0.038237,-0.073544
9556,-3.327940,-0.837971,-6.502652,-0.050361,-0.015988,-0.117910
9571,-3.483563,-0.579397,-6.517017,-0.082337,-0.070879,-0.143090
9586,-3.840299,-0.292093,-6.528988,-0.088998,-0.085401,-0.135096
9601,-4.079720,-0.009577,-6.658275,-0.096859,-0.059021,-0.092329
9616,-4.218583,0.213084,-6.818686,-0.118709,-0.002798,-0.001332
9631,-4.113238,0.533907,-6.904878,-0.136828,0.050095,0.104853
9646,-4.062960,0.804452,-6.775591,-0.092995,0.073677,0.175332
9661,-3.892972,0.869095,-6.789956,-0.005729,0.075542,0.205043
9676,-3.763685,0.610521,-6.816292,0.067415,0.072345,0.211971
9691,-3.541024,0.007183,-6.744466,0.097792,0.078873,0.169204
9706,-3.495534,-0.610521,-6.698976,0.101123,0.046897,0.080871
9721,-3.505111,-1.005565,-6.677428,0.060487,0.027845,-0.016654
9736,-3.648763,-0.952892,-6.677428,0.013989,-0.013856,-0.101256
9751,-3.603273,-0.663194,-6.557718,-0.024381,-0.033974,-0.140426
9766,-3.809175,-0.512359,-6.667851,-0.051960,-0.037172,-0.134164
9781,-4.003105,-0.308852,-6.684611,-0.076874,-0.029044,-0.089531
9796,-4.060566,-0.112527,-6.708553,-0.099391,-0.014789,-0.025847
9811,-4.015076,0.126893,-6.682217,-0.106185,0.013989,0.041035
9826,-4.065354,0.251391,-6.727706,-0.070080,0.048230,0.078740
9841,-3.897760,0.253785,-6.658275,-0.009593,0.063285,0.084469
9856,-3.797204,0.153229,-6.615179,0.039570,0.066882,0.075276
9871,-3.588908,-0.146046,-6.569689,0.073677,0.030110,0.054358
9886,-3.471592,-0.356736,-6.540959,0.086600,0.009859,0.018919
9901,-3.679888,-0.687136,-6.665457,0.066749,-0.002398,-0.014655
9916,-3.689465,-0.708684,-6.579266,0.021317,-0.015988,-0.039703
9931,-3.722984,-0.560243,-6.505046,-0.022516,-0.001865,-0.050228
9946,-3.687071,-0.462081,-6.588843,-0.052360,0.001466,-0.041835
9961,-3.749320,-0.354342,-6.552930,-0.062219,0.007594,-0.027845
9976,-3.780444,-0.217872,-6.670246,-0.069680,0.001865,-0.002531
9991,-3.758897,-0.086191,-6.684611,-0.060753,-0.008660,0.021583
10006,-3.708618,-0.043096,-6.713341,-0.037571,-0.005729,0.032375
10021,-3.859453,-0.026336,-6.739678,-0.004663,-0.007461,0.032642
10036,-3.900155,-0.074220,-6.845023,0.022916,0.001865,0.036905
10051,-3.940856,-0.258574,-6.770802,0.029844,0.010925,0.041435
10066,-3.696647,-0.519542,-6.725312,0.010392,0.037571,0.032242
10081,-3.634398,-0.682347,-6.629544,-0.004796,0.044100,-0.008527
10096,-3.672705,-0.883460,-6.591237,-0.026380,0.038504,-0.056357
10111,-3.581726,-0.730232,-6.521805,-0.050894,-0.005063,-0.095394
10126,-3.531447,-0.598550,-6.557718,-0.057822,-0.028378,-0.131899
10141,-3.708618,-0.421380,-6.576872,-0.056890,-0.051694,-0.150152
10156,-4.012682,-0.304064,-6.629544,-0.078207,-0.033574,-0.120041
10171,-4.058172,0.004788,-6.648698,-0.099524,-0.006129,-0.051560
10186,-3.995923,0.330400,-6.696582,-0.096193,0.031443,0.023582
10201,-3.869030,0.421380,-6.701370,-0.058489,0.040769,0.078740
10216,-3.885789,0.464475,-6.706159,0.006662,0.044366,0.110582
10231,-3.823540,0.296881,-6.564901,0.075942,0.034240,0.115911
10246,-3.706224,-0.062249,-6.555324,0.087266,0.042501,0.106185
10261,-3.481169,-0.332794,-6.497863,0.069014,0.021850,0.078340
10276,-3.634398,-0.541090,-6.552930,0.035173,0.001599,0.039836
10291,-3.694253,-0.512359,-6.641515,-0.000933,-0.016787,0.008660
10306,-3.746926,-0.375890,-6.588843,-0.007061,-0.014655,-0.017986
10321,-3.689465,-0.363919,-6.687005,-0.013057,0.000133,-0.027046
10336,-3.756502,-0.375890,-6.787562,-0.025580,-0.004530,-0.015055
10351,-3.938462,-0.232238,-6.619967,-0.035440,-0.010525,0.012391
10366,-3.883395,-0.126893,-6.617573,-0.033175,-0.008127,0.044499
10381,-3.885789,-0.045490,-6.727706,-0.043567,0.014922,0.087000
10396,-3.909731,0.047884,-6.591237,-0.023582,0.027046,0.110315
10411,-3.940856,0.179565,-6.574478,0.026646,0.037172,0.121640
10426,-3.806781,0.079009,-6.562507,0.051960,0.049162,0.140959
10441,-3.643975,-0.277727,-6.572083,0.056757,0.027446,0.147887
10456,-3.469198,-0.644040,-6.536170,0.057423,0.022516,0.097659
10471,-3.658340,-0.928950,-6.454768,0.061020,0.005329,0.002398
10486,-3.699042,-1.132457,-6.588843,0.032242,-0.015322,-0.079939
10501,-3.627216,-1.048660,-6.552930,-0.022649,-0.004263,-0.118842
10516,-3.691859,-0.854730,-6.576872,-0.075009,-0.013456,-0.116178
10531,-3.890578,-0.579397,-6.600814,-0.098458,-0.036505,-0.095127
10546,-3.986346,-0.318429,-6.598420,-0.099790,-0.042368,-0.061420
10561,-3.936068,-0.064643,-6.543353,-0.085534,-0.041568,-0.002398
10576,-4.103662,-0.019154,-6.742072,-0.076342,-0.010392,0.054492
10591,-4.170699,0.148441,-6.897695,-0.051294,0.023449,0.074476
10606,-4.146757,0.198719,-6.947973,0.015855,0.045698,0.070613
10621,-3.948039,-0.129287,-6.809110,0.064351,0.058222,0.055158
10636,-3.648763,-0.483629,-6.758832,0.068214,0.095260,0.013190
10651,-3.742137,-0.938527,-6.629544,0.036372,0.082737,-0.031043
10666,-3.541024,-0.964863,-6.512228,-0.026646,0.068214,-0.061286
10681,-3.560178,-0.667982,-6.373365,-0.058355,0.029711,-0.085268
10696,-3.368642,-0.476446,-6.349423,-0.063018,-0.021450,-0.092729
10711,-3.768473,-0.339977,-6.320693,-0.069680,-0.053825,-0.074077
10726,-3.804386,-0.248997,-6.426037,-0.081005,-0.055291,-0.028112
10741,-3.799598,-0.074220,-6.605602,-0.097659,-0.040369,0.020118
10756,-4.091691,0.033519,-6.593631,-0.103121,0.004930,0.065017
10771,-4.024653,0.227449,-6.730101,-0.062352,0.038504,0.094594
10786,-3.801992,0.270545,-6.696582,-0.007061,0.052626,0.103121
10801,-3.722984,-0.076614,-6.773197,0.040236,0.053692,0.096060
10816,-3.663129,-0.529119,-6.612785,0.049162,0.059021,0.043700
10831,-3.634398,-0.907402,-6.490681,0.049296,0.039303,-0.024515
10846,-3.569755,-1.019930,-6.399701,-0.008260,0.010126,-0.061553
10861,-3.471592,-0.782904,-6.433220,-0.065949,-0.024115,-0.074343
10876,-3.641581,-0.519542,-6.426037,-0.080605,-0.060221,-0.071945
10891,-3.861847,-0.301669,-6.481104,-0.076475,-0.073810,-0.057822
10906,-3.921702,-0.153229,-6.543353,-0.064084,-0.063285,-0.026380
10921,-3.919308,0.079009,-6.629544,-0.050894,-0.053292,0.009859
10936,-4.027047,0.047884,-6.782773,-0.048096,-0.034107,0.045032
10951,-4.163517,0.100556,-6.770802,-0.044632,-0.007061,0.087533
10966,-4.098873,0.110133,-6.766014,-0.022516,0.010126,0.111248
10981,-3.857059,-0.033519,-6.859388,-0.004663,0.036239,0.108717
10996,-3.746926,-0.275333,-6.842628,0.017587,0.041701,0.077541
11011,-3.794810,-0.538695,-6.744466,0.037838,0.027845,0.020518
11026,-3.864241,-0.651223,-6.687005,0.028911,0.023848,-0.027712
11041,-3.746926,-0.579397,-6.651092,0.007994,0.019452,-0.051294
11056,-3.703830,-0.550666,-6.543353,-0.011991,0.010259,-0.060620
11071,-3.816357,-0.447716,-6.471527,-0.021983,-0.002931,-0.058489
11086,-3.811569,-0.306458,-6.519411,-0.012124,-0.012923,-0.047164
11101,-3.801992,-0.165200,-6.574478,-0.014922,-0.023982,-0.030110
11116,-3.797204,-0.177171,-6.572083,-0.018786,-0.016920,-0.007594
11131,-4.077325,-0.213084,-6.665457,-0.025314,0.007061,0.023049
11146,-4.218583,-0.081403,-6.722918,-0.021317,0.021317,0.041302
11161,-4.041412,0.004788,-6.612785,0.014256,0.038104,0.056490
11176,-3.861847,-0.098162,-6.617573,0.041701,0.049296,0.062885
11191,-3.854665,-0.371101,-6.596025,0.049828,0.040769,0.068614
11206,-3.703830,-0.677559,-6.552930,0.025714,0.047164,0.046098
11221,-3.603273,-0.782904,-6.445191,0.010525,0.009593,0.003597
11236,-3.560178,-0.895431,-6.528988,-0.020917,-0.004663,-0.029178
11251,-3.770868,-0.766145,-6.517017,-0.061420,-0.014922,-0.042101
11266,-3.936068,-0.744597,-6.502652,-0.092329,-0.010925,-0.038637
11281,-4.012682,-0.387861,-6.619967,-0.097525,0.006129,-0.019319
11296,-3.825934,-0.248997,-6.624756,-0.089265,0.018386,0.004130
11311,-3.837905,-0.215478,-6.737284,-0.075675,0.018386,0.025847
11326,-4.000711,-0.191536,-6.708553,-0.059021,0.031842,0.039303
11341,-4.036624,-0.222661,-6.651092,-0.054891,0.048230,0.049828
11356,-3.823540,-0.181959,-6.694188,-0.046764,0.054492,0.050095
11371,-3.768473,-0.411803,-6.610391,-0.031176,0.065949,0.029577
11386,-3.636792,-0.629675,-6.643909,-0.030243,0.059554,-0.017054
11401,-3.620033,-0.794875,-6.505046,-0.044100,0.052626,-0.060087
11416,-3.493140,-0.636858,-6.409278,-0.072877,0.003597,-0.090198
11431,-3.478775,-0.526724,-6.387730,-0.080338,-0.033974,-0.109516
11446,-3.713407,-0.363919,-6.476315,-0.073677,-0.072345,-0.121507
11461,-3.938462,-0.189142,-6.533776,-0.073544,-0.071812,-0.101655
11476,-3.962404,-0.076614,-6.708553,-0.080338,-0.051560,-0.051694
11491,-4.055778,0.181959,-6.766014,-0.085534,-0.031309,0.015055
11506,-4.156334,0.296881,-6.871359,-0.073277,0.014922,0.069547
11521,-4.199430,0.378284,-6.967127,-0.022383,0.041568,0.096193
11536,-3.991134,0.409408,-6.885724,0.048096,0.066882,0.100456
11551,-3.849876,-0.064643,-6.828263,0.073677,0.077407,0.095394
11566,-3.627216,-0.591368,-6.706159,0.050894,0.083669,0.059554
11581,-3.663129,-0.948104,-6.564901,0.026380,0.066216,-0.010925
11596,-3.490746,-1.043872,-6.524199,-0.021717,0.031975,-0.070613
11611,-3.615244,-0.893037,-6.416461,-0.067815,0.010525,-0.111914
11626,-3.624821,-0.761356,-6.430826,-0.088732,-0.003997,-0.134430
11641,-3.775656,-0.553061,-6.428432,-0.100456,-0.031709,-0.135896
11656,-3.809175,-0.325611,-6.421249,-0.105519,-0.062619,-0.105519
11671,-3.813963,-0.016759,-6.473921,-0.096459,-0.068614,-0.058222
11686,-3.991134,0.208296,-6.560112,-0.071945,-0.059421,0.006129
11701,-4.259285,0.225055,-6.689399,-0.051294,-0.024248,0.081804
11716,-4.264073,0.490811,-6.744466,-0.015988,0.026380,0.138028
11731,-4.082114,0.543484,-6.732495,0.036772,0.087533,0.160011
11746,-3.938462,-0.076614,-6.847417,0.071945,0.094594,0.169204
11761,-3.639187,-0.555455,-6.706159,0.049429,0.087799,0.145888
11776,-3.529053,-0.931344,-6.416461,0.022649,0.069413,0.069014
11791,-3.526659,-1.096544,-6.418855,0.005462,0.025047,-0.028778
11806,-3.466804,-0.972046,-6.315904,-0.034640,-0.022916,-0.094461
11821,-3.711013,-0.797269,-6.380548,-0.065283,-0.075542,-0.116178
11836,-3.955221,-0.486023,-6.416461,-0.078606,-0.098591,-0.105519
11851,-4.034230,-0.244209,-6.636727,-0.070479,-0.073943,-0.069680
11866,-4.139575,-0.074220,-6.864176,-0.059554,-0.049162,-0.016654
11881,-4.290410,0.086191,-6.811504,-0.053292,-0.008260,0.043034
11896,-4.369418,0.002394,-6.864176,-0.057689,0.044233,0.104187
11911,-4.132392,0.165200,-6.833052,-0.040369,0.075542,0.143890
11926,-3.921702,0.368707,-6.658275,0.031975,0.079939,0.156547
11941,-3.907337,0.083797,-6.643909,0.089398,0.061420,0.152283
11956,-3.818752,-0.423774,-6.651092,0.102455,0.052893,0.118043
11971,-3.737349,-0.902614,-6.708553,0.086467,0.043433,0.045165
11986,-3.543418,-1.101333,-6.648698,0.038371,0.024248,-0.031443
12001,-3.713407,-1.067814,-6.600814,-0.008527,0.011458,-0.089798
12016,-3.883395,-0.837971,-6.627150,-0.045432,-0.001732,-0.112847
12031,-3.940856,-0.555455,-6.562507,-0.069946,-0.004130,-0.100190
12046,-3.888184,-0.325611,-6.550536,-0.099657,0.022649,-0.049695
12061,-3.928885,-0.146046,-6.574478,-0.102988,0.027979,0.012524
12076,-3.945644,0.007183,-6.533776,-0.081404,0.031975,0.055291
12091,-3.888184,0.114922,-6.531382,-0.037971,0.019585,0.083802
12106,-3.890578,0.244209,-6.643909,0.008260,0.020251,0.103654
12121,-3.940856,0.114922,-6.579266,0.046098,0.035173,0.111648
12136,-4.000711,-0.203507,-6.761226,0.072744,0.052893,0.104587
12151,-3.713407,-0.665588,-6.732495,0.051028,0.087000,0.049162
12166,-3.462016,-1.144428,-6.581660,0.027446,0.081271,-0.047430
12181,-3.253720,-1.414973,-6.464345,-0.020651,0.039037,-0.144023
12196,-3.485958,-1.266533,-6.478710,-0.074743,-0.003597,-0.216900
12211,-3.711013,-0.991199,-6.323087,-0.098591,-0.058089,-0.264597
12226,-3.809175,-0.588974,-6.500257,-0.106851,-0.071945,-0.266596
12241,-3.967192,-0.299275,-6.596025,-0.119109,-0.065150,-0.209440
12256,-4.098873,0.083797,-6.598420,-0.125904,-0.046631,-0.108450
12271,-4.278439,0.418985,-6.696582,-0.118443,-0.011991,0.009326
12286,-4.240131,0.701501,-6.763620,-0.063951,0.017320,0.107651
12301,-4.108450,0.663194,-6.818686,-0.006395,0.048096,0.183060
12316,-3.912126,0.780510,-6.770802,0.109516,0.040103,0.207441
12331,-4.034230,0.359130,-6.770802,0.159345,0.094994,0.213836
12346,-3.861847,-0.062249,-6.696582,0.160943,0.091263,0.215168
12361,-3.471592,-0.519542,-6.641515,0.116711,0.102988,0.188123
12376,-3.303998,-0.766145,-6.476315,0.090064,0.056623,0.110982
12391,-3.497929,-0.921768,-6.596025,0.065816,0.017720,0.044366
12406,-3.708618,-0.943315,-6.593631,0.020518,-0.020384,0.018253
12421,-3.725378,-0.797269,-6.634333,-0.018119,-0.029711,0.016387
12436,-3.785233,-0.684742,-6.646304,-0.040769,-0.015055,0.029977
12451,-4.019865,-0.514753,-6.725312,-0.055957,0.013057,0.065816
12466,-3.993528,-0.430956,-6.792350,-0.048896,0.034107,0.097392
12481,-3.787627,-0.529119,-6.663063,-0.044632,0.063951,0.094594
12496,-3.651158,-0.579397,-6.550536,-0.004530,0.040369,0.047830
12511,-3.828328,-0.835576,-6.612785,0.023982,0.045965,-0.022383
12526,-3.842694,-0.837971,-6.505046,0.024381,0.009593,-0.075409
12541,-3.919308,-0.804452,-6.497863,-0.002931,0.010792,-0.095926
12556,-3.890578,-0.557849,-6.378153,-0.029444,0.010525,-0.095260
12571,-3.878607,-0.368707,-6.366182,-0.034107,-0.006795,-0.074609
12586,-4.012682,-0.258574,-6.466739,-0.029178,-0.018652,-0.032109
12601,-4.094085,-0.153229,-6.588843,-0.032775,-0.008793,0.033308
12616,-3.967192,-0.035913,-6.665457,-0.035573,0.018386,0.085668
12631,-3.952827,-0.110133,-6.734890,-0.021983,0.046897,0.115645
12646,-3.888184,-0.378284,-6.785168,-0.019185,0.068214,0.124838
12661,-3.643975,-0.586579,-6.658275,-0.014522,0.072877,0.089132
12676,-3.452439,-0.758962,-6.524199,0.013590,0.045165,0.018386
12691,-3.562572,-0.945710,-6.519411,0.013590,0.017720,-0.054492
12706,-3.761291,-0.988805,-6.540959,-0.009593,0.000799,-0.094194
12721,-3.699042,-0.835576,-6.524199,-0.042101,0.000400,-0.108450
12736,-3.632004,-0.615310,-6.524199,-0.067015,0.003464,-0.095127
12751,-3.775656,-0.316035,-6.588843,-0.078207,-0.014922,-0.067282
12766,-3.912126,-0.210690,-6.495469,-0.078606,-0.017453,-0.016920
12781,-3.998317,-0.014365,-6.648698,-0.087000,-0.021983,0.038637
12796,-3.890578,0.155623,-6.713341,-0.062086,-0.013190,0.076608
12811,-4.000711,0.016759,-6.806715,-0.021051,0.017720,0.077008
12826,-3.979163,-0.258574,-6.766014,0.009859,0.044632,0.058355
12841,-3.825934,-0.505177,-6.667851,0.011458,0.066083,0.022649
12856,-3.579331,-0.565032,-6.497863,0.009992,0.031043,-0.019185
12871,-3.550601,-0.651223,-6.481104,-0.009326,0.005063,-0.046231
12886,-3.744531,-0.555455,-6.490681,-0.015988,-0.018386,-0.050628
12901,-3.938462,-0.533907,-6.519411,-0.018519,-0.022916,-0.036372
12916,-3.974375,-0.407014,-6.794744,-0.039969,-0.013323,0.009726
12931,-3.971981,-0.150835,-6.689399,-0.050095,-0.003997,0.058888
12946,-3.957615,-0.227449,-6.694188,-0.043700,0.020118,0.100856
12961,-3.909731,-0.203507,-6.708553,-0.041035,0.018652,0.129900
12976,-3.892972,-0.275333,-6.703764,-0.015322,0.026646,0.136029
12991,-3.617639,-0.620098,-6.794744,0.000400,0.057023,0.095127
13006,-3.545813,-1.063026,-6.576872,0.009726,0.070613,0.007061
13021,-3.548207,-1.496376,-6.557718,-0.013190,0.065150,-0.102322
13036,-3.493140,-1.580173,-6.430826,-0.054358,0.017986,-0.209573
13051,-3.445256,-1.331176,-6.411672,-0.078873,-0.025847,-0.281917
13066,-3.699042,-1.130063,-6.426037,-0.105786,-0.063685,-0.312427
13081,-3.943250,-0.809240,-6.382942,-0.142957,-0.063685,-0.280452
13096,-4.120421,-0.289698,-6.452374,-0.178130,-0.058489,-0.197182
13111,-4.036624,0.146046,-6.452374,-0.177730,-0.045299,-0.089798
13126,-4.024653,0.524330,-6.536170,-0.142691,-0.043433,0.012257
13141,-4.106056,0.696713,-6.627150,-0.073810,-0.013057,0.085268
13156,-4.074931,0.763750,-6.746861,0.050228,-0.013190,0.100323
13171,-3.986346,0.332794,-6.794744,0.132432,0.017587,0.100057
13186,-3.878607,-0.260968,-6.789956,0.116311,0.051294,0.093662
13201,-3.696647,-0.859518,-6.777985,0.052093,0.077807,0.054225
13216,-3.591302,-1.125275,-6.622362,-0.008260,0.059821,-0.002132
13231,-3.584120,-0.979228,-6.411672,-0.060620,0.023182,-0.039836
13246,-3.517082,-0.682347,-6.497863,-0.091263,-0.014789,-0.053959
13261,-3.739743,-0.466869,-6.519411,-0.085534,-0.030377,-0.042501
13276,-3.907337,-0.383072,-6.505046,-0.092063,-0.032642,-0.007328
13291,-3.933673,-0.227449,-6.607996,-0.104320,-0.025047,0.047830
13306,-3.919308,0.002394,-6.684611,-0.100723,-0.024248,0.095926
13321,-4.048595,0.102951,-6.871359,-0.068747,0.005862,0.117510
13336,-4.165911,0.174777,-6.912060,-0.008926,0.039303,0.119242
13351,-4.170699,-0.172383,-6.962338,0.043700,0.084335,0.100456
13366,-3.768473,-0.519542,-6.804321,0.061819,0.098458,0.051827
13381,-3.711013,-1.000776,-6.548141,0.038237,0.094461,-0.003064
13396,-3.617639,-1.091756,-6.502652,-0.023315,0.048230,-0.039170
13411,-3.610456,-0.802058,-6.454768,-0.052626,-0.008260,-0.066616
13426,-3.531447,-0.572214,-6.270414,-0.048363,-0.066482,-0.085268
13441,-3.792415,-0.390255,-6.502652,-0.040236,-0.090064,-0.072478
13456,-4.082114,-0.363919,-6.629544,-0.050761,-0.074743,-0.026646
13471,-4.197035,-0.174777,-6.730101,-0.070613,-0.051427,0.041035
13486,-4.187459,-0.112527,-6.873753,-0.077274,0.015322,0.088466
13501,-4.003105,0.014365,-6.823475,-0.048096,0.054225,0.101389
13516,-3.988740,-0.174777,-6.816292,0.003064,0.089931,0.087933
13531,-3.770868,-0.632069,-6.766014,0.013323,0.099124,0.043034
13546,-3.442862,-0.871489,-6.536170,0.019052,0.072211,-0.031576
13561,-3.445256,-1.015141,-6.514623,0.003730,0.029311,-0.096859
13576,-3.639187,-0.955286,-6.447585,-0.032508,-0.011058,-0.128968
13591,-3.821146,-0.756568,-6.416461,-0.053026,-0.026113,-0.133498
13606,-3.859453,-0.560243,-6.423643,-0.071012,-0.033308,-0.118842
13621,-3.732560,-0.361524,-6.390124,-0.085268,-0.039436,-0.087266
13636,-3.816357,-0.205901,-6.505046,-0.094061,-0.047564,-0.039969
13651,-4.060566,0.071826,-6.512228,-0.089132,-0.040769,0.003730
13666,-4.077325,0.203507,-6.641515,-0.063018,-0.029444,0.044233
13681,-4.000711,0.263362,-6.715735,-0.021184,0.005862,0.070746
13696,-3.861847,0.210690,-6.725312,0.023182,0.029711,0.085135
13711,-4.010288,0.021548,-6.689399,0.055691,0.041168,0.102055
13726,-3.854665,-0.184354,-6.713341,0.046897,0.038104,0.136962
13741,-3.670311,-0.608127,-6.598420,-0.003997,0.072078,0.141492
13756,-3.543418,-0.718261,-6.308722,-0.008127,0.041435,0.084202
13771,-3.643975,-1.070208,-6.466739,-0.022250,0.038904,0.023449
13786,-3.663129,-0.890643,-6.445191,-0.033175,-0.029711,-0.031709
13801,-3.612850,-0.775721,-6.440403,-0.030110,-0.065417,-0.070346
13816,-3.902549,-0.667982,-6.710947,-0.029444,-0.083802,-0.082737
13831,-4.086902,-0.610521,-6.761226,-0.039170,-0.072877,-0.067681
13846,-4.314352,-0.500388,-6.806715,-0.070479,-0.030377,-0.021850
13861,-4.288015,-0.452504,-6.952762,-0.104054,0.009726,0.029844
13876,-3.979163,-0.294487,-6.698976,-0.113247,0.036239,0.051028
13891,-4.043807,-0.268151,-6.715735,-0.065017,0.046764,0.027312
13906,-3.950433,-0.208296,-6.603208,0.011458,0.029044,-0.014123
13921,-3.962404,-0.378284,-6.689399,0.043833,0.012923,-0.037704
13936,-3.926491,-0.430956,-6.684611,0.021450,0.012790,-0.020917
13951,-4.084508,-0.435745,-6.663063,-0.027712,0.029444,0.018253
13966,-4.115633,-0.239420,-6.572083,-0.049695,0.048096,0.056890
13981,-3.957615,-0.083797,-6.495469,-0.034374,0.071412,0.080072
13996,-3.773262,-0.201113,-6.440403,-0.013590,0.070346,0.092063
14011,-3.579331,-0.658405,-6.473921,-0.020651,0.055824,0.071812
14026,-3.634398,-0.804452,-6.363788,-0.019851,0.022783,0.007194
14041,-3.608062,-1.034295,-6.478710,-0.023182,-0.015721,-0.068881
14056,-3.629610,-0.976834,-6.500257,-0.050095,-0.036106,-0.118576
14071,-3.821146,-0.744597,-6.588843,-0.064884,-0.041968,-0.145489
14086,-4.031836,-0.617704,-6.682217,-0.071279,-0.016920,-0.147087
14101,-4.053383,-0.359130,-6.572083,-0.079139,0.007461,-0.105386
14116,-3.876213,-0.162806,-6.478710,-0.089398,0.008260,-0.035573
14131,-3.811569,0.088585,-6.483498,-0.087666,0.002531,0.045165
14146,-3.931279,0.239420,-6.548141,-0.047297,-0.009859,0.099923
14161,-3.897760,0.318429,-6.564901,0.022116,-0.023715,0.116444
14176,-3.940856,0.086191,-6.658275,0.074876,-0.020384,0.112847
14191,-3.806781,-0.363919,-6.785168,0.075542,-0.000933,0.094594
14206,-3.876213,-0.883460,-6.758832,0.033708,0.028378,0.046098
14221,-3.859453,-1.019930,-6.636727,-0.001732,0.023982,-0.025447
14236,-3.854665,-0.972046,-6.651092,-0.039303,0.027179,-0.078074
14251,-3.833117,-0.814029,-6.552930,-0.071945,0.003997,-0.090864
14266,-3.873818,-0.624887,-6.643909,-0.078740,-0.007727,-0.088599
14281,-3.983952,-0.574608,-6.610391,-0.080738,-0.020651,-0.069280
14296,-4.003105,-0.248997,-6.670246,-0.074210,-0.029844,-0.035573
14311,-4.058172,-0.138864,-6.742072,-0.077274,-0.021717,0.006129
14326,-4.163517,0.059855,-6.639121,-0.077674,0.014522,0.053026
14341,-4.153940,0.270545,-6.646304,-0.036639,0.047430,0.086334
14356,-4.039018,0.186748,-6.634333,0.024381,0.067015,0.103254
14371,-3.813963,0.009577,-6.612785,0.066749,0.062619,0.115911
14386,-3.687071,-0.462081,-6.545747,0.066349,0.061020,0.103920
14401,-3.667917,-0.830788,-6.442797,0.052227,0.043433,0.046364
14416,-3.691859,-1.031901,-6.514623,0.031576,0.015588,-0.029311
14431,-3.682282,-1.024718,-6.418855,-0.015455,0.012923,-0.086201
14446,-3.722984,-0.859518,-6.421249,-0.047963,-0.005729,-0.113113
14461,-3.804386,-0.696713,-6.488286,-0.065150,-0.018919,-0.112714
14476,-3.924097,-0.445322,-6.421249,-0.069680,-0.029977,-0.088199
14491,-3.885789,-0.210690,-6.399701,-0.065816,-0.037971,-0.036905
14506,-3.995923,-0.134075,-6.497863,-0.057556,-0.031576,0.022116
14521,-4.094085,-0.093374,-6.531382,-0.051028,-0.019985,0.075809
14536,-4.177882,0.086191,-6.543353,-0.025181,-0.006795,0.120441
14551,-3.993528,0.208296,-6.603208,0.032908,0.004663,0.142691
14566,-3.974375,0.107739,-6.667851,0.076075,0.016920,0.148153
14581,-4.005499,-0.272939,-6.780379,0.087933,0.049296,0.152949
14596,-3.950433,-0.823605,-6.734890,0.048896,0.076608,0.135629
14611,-3.526659,-1.079785,-6.619967,0.009593,0.057423,0.057822
14626,-3.416526,-1.316811,-6.533776,-0.020917,0.022116,-0.038104
14641,-3.603273,-1.309628,-6.452374,-0.060620,-0.029444,-0.107518
14656,-3.869030,-1.113304,-6.567295,-0.093795,-0.051294,-0.150285
14671,-3.976769,-0.826000,-6.576872,-0.109516,-0.073544,-0.163208
14686,-4.034230,-0.567426,-6.536170,-0.117377,-0.051960,-0.135896
14701,-4.228160,-0.234632,-6.483498,-0.121907,-0.044499,-0.079406
14716,-4.223372,0.014365,-6.612785,-0.103121,-0.023715,-0.013989
14731,-4.197035,0.349553,-6.715735,-0.073011,0.005329,0.048629
14746,-4.192247,0.387861,-6.756437,0.005596,0.043966,0.088732
14761,-4.204218,0.284910,-6.785168,0.074077,0.061819,0.099657
14776,-4.041412,0.093374,-6.706159,0.102988,0.078473,0.112181
14791,-3.809175,-0.553061,-6.756437,0.069547,0.099923,0.104187
14806,-3.612850,-0.948104,-6.531382,0.037172,0.066482,0.036106
14821,-3.584120,-1.189918,-6.457162,0.005329,0.039436,-0.051427
14836,-3.713407,-1.144428,-6.394913,-0.029577,0.003464,-0.114046
14851,-3.667917,-0.840365,-6.471527,-0.062485,-0.029844,-0.141492
14866,-3.921702,-0.732626,-6.495469,-0.081937,-0.029844,-0.143623
14881,-4.070143,-0.533907,-6.440403,-0.092462,-0.025980,-0.106718
14896,-4.120421,-0.272939,-6.469133,-0.105786,0.010525,-0.044766
14911,-4.017470,0.038307,-6.459556,-0.096593,0.017986,0.022383
14926,-4.046201,0.208296,-6.500257,-0.063685,0.027979,0.088199
14941,-4.125209,0.272939,-6.593631,-0.020384,0.040769,0.130433
14956,-4.000711,0.313640,-6.596025,0.052626,0.042368,0.146421
14971,-3.948039,-0.244209,-6.651092,0.085268,0.056890,0.154015
14986,-3.608062,-0.821211,-6.526594,0.068081,0.065550,0.097792
15001,-3.526659,-1.441309,-6.435614,0.036905,0.061153,-0.012790
15016,-3.603273,-1.520318,-6.361394,-0.021983,0.008127,-0.108450
15031,-3.651158,-1.297657,-6.442797,-0.079539,-0.036106,-0.160544
15046,-3.713407,-0.914585,-6.402095,-0.110049,-0.073277,-0.185858
15061,-4.050989,-0.727837,-6.421249,-0.114446,-0.081538,-0.169737
15076,-4.232948,-0.347159,-6.481104,-0.130034,-0.051827,-0.098991
15091,-4.182670,0.007183,-6.440403,-0.141092,-0.032775,0.002531
15106,-4.139575,0.210690,-6.617573,-0.134430,-0.014922,0.104320
15121,-3.983952,0.433351,-6.658275,-0.096326,-0.003064,0.154948
15136,-4.247314,0.505177,-6.631938,0.041968,0.016787,0.149352
15151,-4.060566,0.167594,-6.801927,0.116844,0.020784,0.136962
15166,-3.993528,-0.172383,-6.804321,0.127902,0.038104,0.132432
15181,-3.962404,-0.881066,-6.727706,0.085401,0.063551,0.097659
15196,-3.904943,-1.108515,-6.567295,0.033708,0.065417,0.028645
15211,-3.821146,-1.194707,-6.596025,-0.020384,0.057156,-0.029844
15226,-3.639187,-0.979228,-6.557718,-0.063152,0.020784,-0.063685
15241,-3.667917,-0.742203,-6.442797,-0.077940,-0.022516,-0.068214
15256,-3.909731,-0.560243,-6.562507,-0.088599,-0.050361,-0.044499
15271,-4.058172,-0.363919,-6.531382,-0.108450,-0.053959,0.000799
15286,-4.096479,-0.220267,-6.615179,-0.116577,-0.023315,0.055158
15301,-4.223372,-0.050278,-6.694188,-0.101522,0.017187,0.093795
15316,-4.163517,-0.019154,-6.663063,-0.067015,0.053026,0.108184
15331,-4.050989,0.057461,-6.579266,-0.010525,0.073144,0.106319
15346,-3.902549,0.016759,-6.488286,0.050228,0.064884,0.097525
15361,-3.823540,-0.512359,-6.540959,0.052093,0.072345,0.091130
15376,-3.725378,-0.751779,-6.416461,0.039570,0.032242,0.048096
15391,-3.699042,-1.175553,-6.359000,0.005329,0.030110,-0.012524
15406,-3.586514,-1.058237,-6.311116,-0.027312,-0.025980,-0.069280
15421,-3.562572,-0.794875,-6.473921,-0.049695,-0.055291,-0.101256
15436,-3.780444,-0.665588,-6.404490,-0.058355,-0.094461,-0.106185
15451,-4.029441,-0.517148,-6.402095,-0.063818,-0.104054,-0.082870
15466,-4.180276,-0.258574,-6.646304,-0.081404,-0.088066,-0.026247
15481,-4.247314,-0.004788,-6.718130,-0.083669,-0.069147,0.043433
15496,-4.259285,0.004788,-6.828263,-0.078340,-0.024648,0.095926
15511,-4.352659,0.079009,-6.847417,-0.042234,0.004930,0.119775
15526,-4.144363,0.114922,-6.780379,0.017320,0.033841,0.105786
15541,-4.041412,-0.129287,-6.856994,0.070213,0.051560,0.080338
15556,-3.974375,-0.605733,-6.718130,0.069680,0.052626,0.052626
15571,-3.871424,-1.122881,-6.636727,0.025980,0.060753,-0.000533
15586,-3.629610,-1.142034,-6.344635,-0.006129,0.030510,-0.075409
15601,-3.677494,-1.113304,-6.327875,-0.041568,-0.003864,-0.132432
15616,-3.756502,-0.943315,-6.375759,-0.078740,-0.040769,-0.160677
15631,-3.964798,-0.641646,-6.466739,-0.092862,-0.074743,-0.157746
15646,-4.180276,-0.407014,-6.533776,-0.105786,-0.077008,-0.121374
15661,-4.247314,-0.045490,-6.596025,-0.112847,-0.061153,-0.051560
15676,-4.292804,0.186748,-6.593631,-0.108983,-0.020251,0.035040
15691,-4.362236,0.268151,-6.684611,-0.092729,0.014389,0.118576
15706,-4.295198,0.474052,-6.528988,-0.036106,0.067548,0.172268
15721,-4.153940,0.361524,-6.524199,0.045565,0.108583,0.186124
15736,-3.914520,0.083797,-6.584054,0.113779,0.092196,0.183726
15751,-3.881001,-0.409408,-6.588843,0.129900,0.078740,0.155081
15766,-3.713407,-1.211466,-6.500257,0.107384,0.056757,0.073011
15781,-3.519476,-1.417367,-6.363788,0.070479,0.011591,-0.028911
15796,-3.651158,-1.498770,-6.483498,0.009726,-0.031975,-0.104587
15811,-3.866636,-1.259350,-6.442797,-0.057689,-0.078873,-0.138294
15826,-4.168305,-0.948104,-6.545747,-0.098325,-0.076608,-0.134830
15841,-4.252102,-0.749385,-6.598420,-0.119775,-0.041302,-0.102322
15856,-4.316746,-0.454898,-6.593631,-0.145489,-0.001599,-0.043700
15871,-4.335899,-0.131681,-6.605602,-0.138960,0.028645,0.007461
15886,-4.276044,-0.009577,-6.555324,-0.111914,0.035573,0.054891
15901,-4.141969,0.134075,-6.500257,-0.063818,0.037704,0.080338
15916,-3.885789,0.213084,-6.531382,0.010525,0.026646,0.082470
15931,-3.914520,-0.002394,-6.591237,0.081538,0.008127,0.058622
15946,-4.029441,-0.390255,-6.612785,0.094461,0.006795,0.035173
15961,-3.916914,-0.797269,-6.610391,0.052493,0.016920,0.000933
15976,-3.739743,-0.885855,-6.459556,-0.004663,0.005063,-0.023715
15991,-3.799598,-0.840365,-6.433220,-0.067282,0.016121,-0.037838
16006,-3.952827,-0.646434,-6.397307,-0.092729,0.009060,-0.048629
16021,-3.962404,-0.493206,-6.418855,-0.096193,0.003198,-0.042900
16036,-3.943250,-0.313640,-6.505046,-0.093528,-0.005596,-0.021583
16051,-3.940856,-0.124498,-6.428432,-0.071945,-0.003464,0.002798
16066,-4.015076,-0.009577,-6.557718,-0.042767,-0.018652,0.038904
16081,-4.235343,0.043096,-6.605602,-0.020384,-0.019319,0.069680
16096,-4.153940,0.107739,-6.641515,0.010525,-0.009593,0.094994
16111,-4.139575,0.090980,-6.804321,0.043966,0.010792,0.113779
16126,-4.271256,-0.316035,-6.730101,0.064750,0.035040,0.120441
16141,-4.046201,-0.608127,-6.754043,0.047297,0.054625,0.094727
16156,-3.933673,-1.103727,-6.579266,0.025181,0.063018,0.034640
16171,-3.708618,-1.312023,-6.581660,-0.009859,0.044766,-0.041168
16186,-3.737349,-1.268927,-6.414066,-0.045432,0.013590,-0.107917
16201,-3.904943,-1.192312,-6.394913,-0.082470,-0.021717,-0.145355
16216,-4.036624,-0.857124,-6.275203,-0.094594,-0.049296,-0.166539
16231,-4.115633,-0.586579,-6.308722,-0.099391,-0.050628,-0.155214
16246,-4.194641,-0.339977,-6.440403,-0.100057,-0.038237,-0.120308
16261,-4.443638,-0.110133,-6.588843,-0.079006,-0.022649,-0.067681
16276,-4.398149,0.040701,-6.605602,-0.073410,0.005063,-0.007461
16291,-4.285621,0.196325,-6.634333,-0.043700,0.038770,0.046897
16306,-4.182670,0.102951,-6.622362,0.002931,0.054625,0.082603
16321,-4.084508,0.165200,-6.452374,0.065816,0.051161,0.090997
16336,-4.156334,-0.081403,-6.598420,0.089132,0.057289,0.106585
16351,-3.907337,-0.339977,-6.607996,0.080338,0.042900,0.100323
16366,-3.758897,-0.679953,-6.555324,0.064351,0.055691,0.059421
16381,-3.813963,-1.048660,-6.447585,0.037571,0.051028,-0.012124
16396,-3.842694,-1.103727,-6.469133,-0.012923,0.043700,-0.068081
16411,-3.742137,-0.940921,-6.375759,-0.040902,0.011325,-0.097925
16426,-3.782839,-0.849942,-6.423643,-0.071945,-0.009726,-0.108583
16441,-3.924097,-0.608127,-6.500257,-0.082337,-0.019185,-0.097792
16456,-4.144363,-0.509965,-6.579266,-0.077141,-0.021983,-0.074609
16471,-4.180276,-0.368707,-6.414066,-0.090464,-0.006395,-0.021317
16486,-4.146757,-0.079009,-6.507440,-0.101389,0.010126,0.042101
16501,-4.213795,0.076614,-6.473921,-0.074476,0.023582,0.084868
16516,-4.266468,0.196325,-6.579266,-0.003730,0.028112,0.093928
16531,-4.108450,0.076614,-6.531382,0.071412,0.029311,0.093528
16546,-4.012682,-0.373495,-6.627150,0.086201,0.052760,0.090064
16561,-3.845088,-0.962469,-6.584054,0.039436,0.077274,0.063551
16576,-3.703830,-1.149217,-6.337452,0.000266,0.040769,0.008660
16591,-3.696647,-1.053449,-6.382942,-0.039303,0.009593,-0.042101
16606,-3.751714,-0.768539,-6.430826,-0.045565,-0.047297,-0.072611
16621,-4.005499,-0.684742,-6.493075,-0.043034,-0.053292,-0.074476
16636,-4.323928,-0.682347,-6.651092,-0.058489,-0.036239,-0.044499
16651,-4.357447,-0.462081,-6.701370,-0.085268,0.010259,0.000933
16666,-4.247314,-0.308852,-6.641515,-0.101789,0.050761,0.042501
16681,-4.070143,-0.134075,-6.639121,-0.079139,0.062219,0.068081
16696,-4.077325,-0.169988,-6.617573,-0.031576,0.061686,0.062885
16711,-4.010288,-0.186748,-6.540959,0.025980,0.054225,0.030510
16726,-3.857059,-0.569820,-6.552930,0.063418,0.047430,-0.022383
16741,-3.749320,-0.837971,-6.449979,0.054358,0.034640,-0.070346
16756,-3.869030,-0.952892,-6.507440,0.012124,0.015855,-0.100190
16771,-3.991134,-0.797269,-6.473921,-0.042634,-0.008127,-0.099923
16786,-3.912126,-0.414197,-6.387730,-0.064617,-0.015322,-0.077541
16801,-3.897760,-0.220267,-6.440403,-0.046098,-0.029711,-0.049962
16816,-4.098873,-0.174777,-6.555324,-0.029977,-0.021850,-0.011724
16831,-4.211401,-0.148441,-6.610391,-0.033308,0.009193,0.041568
16846,-4.197035,-0.093374,-6.777985,-0.031709,0.025714,0.095660
16861,-4.053383,-0.026336,-6.734890,-0.018253,0.059688,0.119375
16876,-4.065354,0.007183,-6.569689,0.024515,0.078873,0.129501
16891,-4.103662,-0.213084,-6.521805,0.061953,0.088332,0.134297
16906,-3.821146,-0.562637,-6.485892,0.068214,0.085268,0.116844
16921,-3.579331,-0.986411,-6.454768,0.067548,0.066349,0.055291
16936,-3.593697,-1.338359,-6.421249,0.037305,0.033974,-0.023182
16951,-3.775656,-1.379060,-6.349423,-0.009060,0.006662,-0.084602
16966,-3.952827,-1.197101,-6.368577,-0.059688,-0.001732,-0.113646
16981,-3.888184,-0.960075,-6.399701,-0.102455,0.000266,-0.113646
16996,-3.811569,-0.711078,-6.318298,-0.123772,-0.003864,-0.096326
17011,-3.904943,-0.476446,-6.277597,-0.123772,-0.028378,-0.073011
17026,-4.129998,-0.165200,-6.227318,-0.110449,-0.038904,-0.028378
17041,-4.106056,0.057461,-6.335058,-0.084069,-0.033308,0.022649
17056,-3.964798,0.165200,-6.356606,-0.041168,-0.030243,0.072478
17071,-4.046201,0.079009,-6.473921,0.011591,-0.022383,0.101522
17086,-4.122815,0.045490,-6.600814,0.058222,-0.023582,0.122173
17101,-4.185064,-0.213084,-6.533776,0.092196,0.001732,0.132832
17116,-3.976769,-0.792481,-6.701370,0.066349,0.046098,0.110449
17131,-3.801992,-1.288080,-6.543353,0.018652,0.046498,0.042900
17146,-3.854665,-1.503559,-6.493075,-0.041968,0.037172,-0.024248
17161,-3.742137,-1.326388,-6.440403,-0.094194,-0.000266,-0.081271
17176,-3.718195,-0.969652,-6.469133,-0.112181,-0.054758,-0.111115
17191,-3.993528,-0.763750,-6.493075,-0.107917,-0.081271,-0.122306
17206,-4.266468,-0.526724,-6.540959,-0.106052,-0.082870,-0.096459
17221,-4.345476,-0.260968,-6.607996,-0.113113,-0.044366,-0.042634
17236,-4.319140,-0.023942,-6.679822,-0.115778,-0.026380,0.019185
17251,-4.271256,0.126893,-6.694188,-0.090730,0.018119,0.073144
17266,-4.371812,0.272939,-6.663063,-0.036239,0.035040,0.105919
17281,-4.211401,0.169988,-6.569689,0.041701,0.046098,0.107651
17296,-3.979163,-0.306458,-6.660669,0.091930,0.061420,0.084469
17311,-3.873818,-0.837971,-6.562507,0.076075,0.063685,0.035040
17326,-3.943250,-1.213860,-6.512228,0.025847,0.046364,-0.009326
17341,-3.869030,-1.139640,-6.418855,-0.040636,0.029844,-0.041168
17356,-3.811569,-0.811634,-6.232107,-0.063818,-0.003464,-0.065816
17371,-3.799598,-0.524330,-6.318298,-0.062485,-0.018919,-0.072744
17386,-3.981557,-0.471658,-6.390124,-0.056890,-0.025847,-0.054758
17401,-4.151546,-0.380678,-6.368577,-0.055691,-0.032775,-0.018386
17416,-4.118027,-0.248997,-6.545747,-0.057023,-0.025847,0.014655
17431,-4.161122,-0.160412,-6.675034,-0.053026,-0.014256,0.051560
17446,-4.194641,-0.167594,-6.718130,-0.025980,0.002931,0.063818
17461,-4.297592,-0.136469,-6.727706,0.012524,0.023182,0.067282
17476,-4.175488,-0.191536,-6.631938,0.034374,0.048096,0.071945
17491,-3.998317,-0.390255,-6.658275,0.036106,0.057023,0.081671
17506,-3.840299,-0.761356,-6.399701,0.019185,0.053026,0.067948
17521,-3.754108,-1.010353,-6.387730,0.000933,0.031576,0.004530
17536,-3.742137,-1.156399,-6.375759,-0.009326,-0.016387,-0.068747
17551,-3.785233,-1.149217,-6.457162,-0.049429,-0.039703,-0.116977
17566,-3.995923,-0.928950,-6.533776,-0.084602,-0.057689,-0.139360
17581,-4.254497,-0.706289,-6.584054,-0.096459,-0.050761,-0.137495
17596,-4.374207,-0.474052,-6.665457,-0.123772,0.000266,-0.098991
17611,-4.331111,-0.038307,-6.540959,-0.116444,0.027712,-0.038770
17626,-4.350265,0.119710,-6.454768,-0.086734,0.063685,0.034374
17641,-4.158728,0.193930,-6.361394,-0.035040,0.070346,0.097792
17656,-3.914520,0.148441,-6.394913,0.020251,0.047031,0.131766
17671,-3.790021,0.011971,-6.320693,0.079006,0.011858,0.142824
17686,-3.957615,-0.217872,-6.390124,0.106319,0.001998,0.139626
17701,-4.024653,-0.761356,-6.411672,0.084469,0.009593,0.118842
17716,-3.888184,-1.113304,-6.430826,0.046364,0.013989,0.069280
17731,-3.801992,-1.331176,-6.461950,-0.005995,0.012923,0.016254
17746,-3.713407,-1.118092,-6.545747,-0.044233,-0.019985,-0.030110
17761,-3.900155,-1.017536,-6.459556,-0.056890,-0.036106,-0.058888
17776,-4.101267,-0.792481,-6.485892,-0.063551,-0.065550,-0.062885
17791,-4.266468,-0.648829,-6.569689,-0.077541,-0.051827,-0.046498
17806,-4.244920,-0.416591,-6.562507,-0.076741,-0.035706,-0.017453
17821,-4.393360,-0.337582,-6.634333,-0.079539,-0.007861,0.016654
17836,-4.455609,-0.167594,-6.600814,-0.061686,0.015588,0.046764
17851,-4.316746,-0.148441,-6.658275,-0.028511,0.035972,0.064217
17866,-4.103662,-0.198719,-6.531382,0.000266,0.053159,0.071812
17881,-4.067749,-0.428562,-6.430826,0.022383,0.060620,0.060753
17896,-3.928885,-0.720655,-6.335058,0.018652,0.050095,0.034773
17911,-3.811569,-0.823605,-6.241684,0.009193,0.014256,-0.012923
17926,-3.866636,-0.905008,-6.435614,-0.006262,-0.013856,-0.048363
17941,-3.897760,-0.981623,-6.402095,-0.042900,-0.022783,-0.075542
17956,-4.149151,-0.897826,-6.490681,-0.070879,-0.021850,-0.092196
17971,-4.211401,-0.869095,-6.574478,-0.101789,-0.010392,-0.086600
17986,-4.077325,-0.588974,-6.466739,-0.126037,0.003730,-0.068081
18001,-4.110844,-0.399832,-6.418855,-0.125504,0.000133,-0.047297
18016,-4.240131,-0.205901,-6.409278,-0.103521,0.001998,-0.029844
18031,-4.170699,-0.057461,-6.359000,-0.067948,-0.015588,-0.006928
18046,-4.129998,0.100556,-6.639121,-0.020917,-0.034773,0.014389
18061,-4.192247,0.033519,-6.603208,0.015855,-0.036239,0.038371
18076,-4.376601,-0.016759,-6.766014,0.025181,-0.003331,0.069813
18091,-4.400543,-0.131681,-6.777985,0.030643,0.040636,0.100989
18106,-4.223372,-0.351948,-6.624756,0.025314,0.077541,0.120708
18121,-3.912126,-0.598550,-6.531382,0.022516,0.092063,0.088599
18136,-3.761291,-0.907402,-6.466739,0.018919,0.076208,0.035306
18151,-3.878607,-0.984017,-6.469133,-0.000799,0.030510,-0.014389
18166,-3.888184,-0.869095,-6.368577,-0.026779,-0.016654,-0.044233
18181,-3.948039,-0.725443,-6.416461,-0.039570,-0.030110,-0.056890
18196,-4.108450,-0.483629,-6.502652,-0.052760,-0.009593,-0.040902
18211,-4.276044,-0.428562,-6.514623,-0.050095,0.008394,-0.009859
18226,-4.220977,-0.411803,-6.586449,-0.048230,0.026513,0.017054
18241,-4.067749,-0.313640,-6.368577,-0.035573,0.037172,0.023582
18256,-3.962404,-0.368707,-6.366182,-0.017187,0.028645,0.021450
18271,-4.070143,-0.392649,-6.385336,-0.007594,0.013723,0.021717
18286,-4.060566,-0.368707,-6.361394,0.010792,-0.009193,0.029311
18301,-3.955221,-0.349553,-6.399701,0.013456,-0.022649,0.045299
18316,-4.055778,-0.569820,-6.598420,-0.008127,-0.018386,0.059954
18331,-4.134786,-0.859518,-6.552930,-0.031842,0.002265,0.048096
18346,-4.206612,-0.988805,-6.394913,-0.054358,0.034107,0.001732
18361,-3.940856,-0.986411,-6.466739,-0.066482,0.027845,-0.052626
18376,-3.837905,-0.835576,-6.356606,-0.065949,-0.002931,-0.088865
18391,-3.945644,-0.677559,-6.488286,-0.059288,-0.052227,-0.113646
18406,-4.187459,-0.483629,-6.461950,-0.025580,-0.074876,-0.119109
18421,-4.367024,-0.466869,-6.610391,-0.024515,-0.068614,-0.083669
18436,-4.525041,-0.311246,-6.732495,-0.061420,-0.020384,-0.003331
18451,-4.568137,-0.167594,-6.651092,-0.092995,0.033974,0.086467
18466,-4.546589,0.038307,-6.495469,-0.081271,0.077940,0.151084
18481,-4.273650,0.227449,-6.519411,-0.021717,0.083270,0.178663
18496,-3.962404,-0.090980,-6.536170,0.045565,0.089398,0.169603
18511,-3.763685,-0.849942,-6.454768,0.050628,0.093528,0.106052
18526,-3.715801,-1.419762,-6.251261,0.035306,0.037438,-0.002398
18541,-3.758897,-1.673547,-6.315904,-0.037571,0.017453,-0.111648
18556,-3.682282,-1.479617,-6.361394,-0.095127,-0.045032,-0.197315
18571,-3.909731,-1.065420,-6.339846,-0.120308,-0.071412,-0.251274
18586,-4.419696,-0.821211,-6.512228,-0.135496,-0.063951,-0.237418
18601,-4.508282,-0.502782,-6.548141,-0.172534,-0.034240,-0.153216
18616,-4.402937,0.002394,-6.574478,-0.190920,-0.001199,-0.041168
18631,-4.429273,0.366313,-6.612785,-0.151484,0.045032,0.058888
18646,-4.417302,0.600945,-6.679822,-0.063018,0.063152,0.111115
18661,-4.261679,0.538695,-6.634333,0.048096,0.077407,0.122306
18676,-4.046201,0.098162,-6.509834,0.112047,0.094727,0.100856
18691,-3.964798,-0.502782,-6.562507,0.117243,0.091397,0.056890
18706,-3.737349,-1.010353,-6.457162,0.081804,0.063951,-0.013456
18721,-3.646369,-1.115698,-6.325481,0.011724,0.020118,-0.058888
18736,-3.866636,-0.981623,-6.359000,-0.039570,-0.017320,-0.070879
18751,-4.103662,-0.629675,-6.505046,-0.060620,-0.039570,-0.065683
18766,-4.118027,-0.469264,-6.438008,-0.052360,-0.050228,-0.045165
18781,-4.120421,-0.347159,-6.540959,-0.056890,-0.043700,-0.003730
18796,-4.204218,-0.210690,-6.706159,-0.072611,-0.027712,0.040236
18811,-4.371812,-0.366313,-6.576872,-0.087133,0.019452,0.075142
18826,-4.218583,-0.308852,-6.653486,-0.080871,0.063818,0.062619
18841,-4.039018,-0.337582,-6.476315,-0.028245,0.077807,0.009459
18856,-3.849876,-0.435745,-6.600814,0.024515,0.057556,-0.036505
18871,-4.010288,-0.562637,-6.459556,0.039170,0.033441,-0.058222
18886,-4.122815,-0.610521,-6.502652,0.019985,0.008660,-0.050095
18901,-4.115633,-0.375890,-6.306327,-0.014256,0.004796,-0.007727
18916,-4.168305,-0.193930,-6.490681,-0.018253,0.006928,0.053426
18931,-4.206612,-0.189142,-6.505046,-0.010792,0.017986,0.110449
18946,-4.235343,-0.237026,-6.536170,0.007461,0.021583,0.149219
18961,-4.118027,-0.330400,-6.658275,0.025714,0.032109,0.159877
18976,-3.904943,-0.794875,-6.658275,0.001466,0.059155,0.141358
18991,-3.854665,-1.053449,-6.469133,-0.009193,0.079273,0.049562
19006,-3.902549,-1.403002,-6.373365,0.002665,0.068081,-0.073544
19021,-3.821146,-1.352724,-6.435614,-0.011191,0.027046,-0.168671
19036,-3.852270,-1.230620,-6.277597,-0.040369,-0.000133,-0.225560
19051,-3.998317,-0.998382,-6.222530,-0.057023,-0.035573,-0.241948
19066,-4.276044,-0.794875,-6.244078,-0.077541,-0.047031,-0.202511
19081,-4.292804,-0.474052,-6.337452,-0.119375,-0.034907,-0.112714
19096,-4.321534,-0.110133,-6.478710,-0.151884,-0.030776,-0.002665
19111,-4.367024,0.248997,-6.636727,-0.135763,0.010259,0.095260
19126,-4.381389,0.533907,-6.744466,-0.049296,0.041168,0.135096
19141,-4.309563,0.404620,-6.737284,0.055691,0.073544,0.136695
19156,-4.151546,-0.081403,-6.658275,0.101123,0.114312,0.125904
19171,-3.883395,-0.663194,-6.435614,0.078873,0.135496,0.091263
19186,-3.646369,-1.144428,-6.354211,0.025980,0.098458,0.035306
19201,-3.598485,-1.058237,-6.200982,-0.007861,0.028378,-0.020518
19216,-3.679888,-0.876278,-6.224924,-0.031443,-0.029444,-0.053825
19231,-3.840299,-0.677559,-6.248867,-0.038237,-0.059021,-0.046631
19246,-4.106056,-0.665588,-6.394913,-0.059021,-0.055824,-0.012257
19261,-4.278439,-0.600945,-6.562507,-0.083536,-0.019185,0.028112
19276,-4.225766,-0.421380,-6.576872,-0.100989,0.017587,0.067948
19291,-4.065354,-0.304064,-6.466739,-0.092995,0.043833,0.083003
19306,-3.955221,-0.217872,-6.545747,-0.064351,0.031176,0.093528
19321,-4.084508,-0.138864,-6.442797,-0.012124,0.007061,0.094328
19336,-4.043807,-0.354342,-6.471527,0.025847,-0.003597,0.085268
19351,-3.840299,-0.684742,-6.399701,0.035040,-0.006928,0.050894
19366,-3.900155,-1.213860,-6.385336,0.025181,-0.007461,-0.006662
19381,-3.890578,-1.321599,-6.426037,-0.017587,-0.032242,-0.070479
19396,-4.036624,-1.180341,-6.550536,-0.054092,-0.047963,-0.117110
19411,-3.967192,-0.972046,-6.548141,-0.083536,-0.064351,-0.139893
19426,-4.144363,-0.780510,-6.572083,-0.102055,-0.053959,-0.135896
19441,-4.335899,-0.603339,-6.540959,-0.120441,-0.041835,-0.104853
19456,-4.398149,-0.320823,-6.586449,-0.134963,-0.009726,-0.056090
19471,-4.333505,0.035913,-6.562507,-0.107784,0.001732,0.001199
19486,-4.237737,0.136469,-6.466739,-0.065283,0.020251,0.045965
19501,-4.252102,0.179565,-6.617573,-0.018652,0.021983,0.072211
19516,-4.175488,0.011971,-6.533776,0.018253,0.030377,0.080472
19531,-4.062960,0.028730,-6.397307,0.048496,0.030510,0.082204
19546,-3.998317,-0.220267,-6.418855,0.054492,0.033441,0.082870
19561,-3.900155,-0.684742,-6.488286,0.033974,0.037172,0.062619
19576,-3.746926,-0.919373,-6.402095,0.017054,0.009060,0.006262
19591,-3.852270,-1.060631,-6.461950,-0.001466,-0.018119,-0.041168
19606,-3.914520,-0.960075,-6.567295,-0.047830,-0.034107,-0.058489
19621,-4.110844,-0.763750,-6.588843,-0.081138,-0.024115,-0.059554
19636,-4.280833,-0.533907,-6.651092,-0.091930,-0.007994,-0.041701
19651,-4.249708,-0.248997,-6.473921,-0.085801,0.008660,-0.009060
19666,-4.070143,-0.081403,-6.421249,-0.066882,0.007727,0.024914
19681,-4.065354,-0.117316,-6.440403,-0.039303,-0.007594,0.061286
19696,-4.127604,-0.189142,-6.296751,0.004263,-0.017320,0.073144
19711,-4.132392,-0.215478,-6.394913,0.039836,-0.018386,0.076208
19726,-3.998317,-0.414197,-6.440403,0.067149,-0.022116,0.052760
19741,-4.132392,-0.761356,-6.466739,0.054092,-0.022916,0.031709
19756,-4.309563,-0.972046,-6.581660,0.003198,0.000400,0.026913
19771,-4.295198,-0.960075,-6.502652,-0.049562,0.014789,0.019052
19786,-4.134786,-0.893037,-6.433220,-0.081271,0.032775,-0.000266
19801,-4.106056,-0.854730,-6.473921,-0.076608,0.032508,-0.031576
19816,-4.163517,-0.957681,-6.548141,-0.078340,0.025980,-0.059421
19831,-4.185064,-0.984017,-6.694188,-0.100989,0.003730,-0.078606
19846,-4.113238,-0.639252,-6.500257,-0.112047,-0.014522,-0.089265
19861,-4.204218,-0.402226,-6.519411,-0.088599,-0.015322,-0.090331
19876,-4.407725,-0.265756,-6.521805,-0.069413,0.002132,-0.062885
19891,-4.443638,-0.038307,-6.634333,-0.060354,0.030377,-0.007461
19906,-4.314352,0.162806,-6.440403,-0.032642,0.047430,0.042767
19921,-4.175488,0.100556,-6.392519,-0.001199,0.050361,0.083669
19936,-4.209006,-0.009577,-6.536170,0.029311,0.044632,0.115778
19951,-4.082114,-0.330400,-6.382942,0.038770,0.042501,0.126303
19966,-3.881001,-0.687136,-6.478710,0.027712,0.049296,0.083270
19981,-3.660734,-1.031901,-6.318298,0.027579,0.018786,-0.008793
19996,-3.818752,-1.235408,-6.469133,0.008527,0.009060,-0.093528
20011,-4.082114,-1.149217,-6.423643,-0.040769,-0.001332,-0.137361
20026,-4.086902,-0.900220,-6.457162,-0.076741,0.002398,-0.147221
20041,-4.091691,-0.596156,-6.351817,-0.100323,0.009326,-0.122306
20056,-4.144363,-0.335188,-6.466739,-0.108450,0.009859,-0.064351
20071,-4.328717,-0.095768,-6.363788,-0.094194,0.001466,0.001865
20086,-4.285621,0.126893,-6.438008,-0.066749,-0.000533,0.064884
20101,-4.209006,0.146046,-6.493075,-0.027979,-0.000400,0.108717
20116,-4.165911,0.117316,-6.550536,0.019185,0.009859,0.122173
20131,-4.261679,-0.019154,-6.452374,0.066083,0.015721,0.122839
20146,-4.235343,-0.488417,-6.509834,0.063018,0.058489,0.101123
20161,-3.883395,-0.849942,-6.500257,0.035040,0.050495,0.042501
20176,-3.854665,-1.118092,-6.449979,-0.018652,0.049695,-0.011458
20191,-4.015076,-1.007959,-6.435614,-0.071678,0.017054,-0.042101
20206,-4.115633,-0.806846,-6.421249,-0.093528,0.017720,-0.047031
20221,-4.137180,-0.481235,-6.392519,-0.086867,-0.008793,-0.037838
20236,-4.201824,-0.428562,-6.426037,-0.078740,-0.005196,-0.009459
20251,-4.273650,-0.407014,-6.418855,-0.075009,0.003464,0.040369
20266,-4.194641,-0.351948,-6.519411,-0.057289,0.001466,0.072744
20281,-4.182670,-0.323217,-6.562507,-0.039037,0.003198,0.079539
20296,-4.199430,-0.167594,-6.528988,-0.011858,0.033708,0.067548
20311,-4.259285,-0.193930,-6.459556,0.028245,0.064884,0.057023
20326,-4.225766,-0.354342,-6.531382,0.052893,0.062086,0.055025
20341,-3.952827,-0.569820,-6.402095,0.045165,0.042767,0.059554
20356,-3.701436,-0.804452,-6.234501,0.030776,0.030776,0.032375
20371,-3.787627,-0.921768,-6.387730,0.034374,-0.021051,-0.016254
20386,-3.900155,-1.077391,-6.502652,0.010925,-0.045299,-0.062619
20401,-4.213795,-1.098939,-6.576872,-0.046098,-0.035040,-0.070613
20416,-4.146757,-0.878672,-6.512228,-0.109250,-0.007461,-0.059421
20431,-4.216189,-0.598550,-6.533776,-0.127636,0.028112,-0.038770
20446,-4.235343,-0.418985,-6.363788,-0.121107,0.035440,-0.016521
20461,-4.086902,-0.067038,-6.351817,-0.096326,0.020251,0.015055
20476,-3.933673,-0.071826,-6.409278,-0.055025,-0.000266,0.038770
20491,-3.983952,-0.134075,-6.402095,-0.012657,-0.024648,0.053959
20506,-4.113238,-0.210690,-6.452374,0.019319,-0.025714,0.052227
20521,-4.347870,-0.136469,-6.483498,0.047164,-0.023182,0.045432
20536,-4.280833,-0.246603,-6.538565,0.048763,0.002931,0.054891
20551,-4.256891,-0.169988,-6.612785,0.032109,0.027446,0.086867
20566,-4.333505,-0.220267,-6.507440,0.005596,0.049962,0.124172
20581,-4.194641,-0.349553,-6.471527,-0.009193,0.058489,0.146021
20596,-3.921702,-0.617704,-6.540959,-0.031576,0.072877,0.124571
20611,-3.682282,-0.802058,-6.359000,-0.033841,0.021317,0.064351
20626,-3.873818,-0.928950,-6.473921,-0.033441,-0.011325,-0.008660
20641,-4.118027,-0.909797,-6.392519,-0.034107,-0.042634,-0.061420
20656,-4.086902,-0.663194,-6.466739,-0.038104,-0.053292,-0.092196
20671,-4.115633,-0.536301,-6.464345,-0.043300,-0.057023,-0.086201
20686,-4.395754,-0.258574,-6.653486,-0.046098,-0.033708,-0.039570
20701,-4.563348,-0.086191,-6.464345,-0.048763,-0.024515,0.031176
20716,-4.534618,0.081403,-6.639121,-0.033041,0.000666,0.109649
20731,-4.474763,0.148441,-6.734890,0.005196,0.029844,0.152150
20746,-4.450821,0.026336,-6.837840,0.064884,0.068214,0.166273
20761,-4.390966,-0.476446,-6.811504,0.075942,0.106452,0.160011
20776,-4.146757,-0.871489,-6.646304,0.059554,0.107917,0.110582
20791,-3.790021,-1.151611,-6.490681,0.033708,0.103254,0.022116
20806,-3.768473,-1.266533,-6.320693,0.004263,0.053959,-0.062485
20821,-3.892972,-1.170765,-6.301539,-0.029711,0.009593,-0.125371
20836,-3.960010,-1.024718,-6.236896,-0.053026,-0.035173,-0.151217
20851,-4.118027,-0.794875,-6.315904,-0.067415,-0.052760,-0.149752
20866,-4.199430,-0.591368,-6.426037,-0.081005,-0.042634,-0.117377
20881,-4.390966,-0.529119,-6.435614,-0.093928,-0.018786,-0.063418
20896,-4.386178,-0.399832,-6.536170,-0.095394,0.017054,-0.015188
20911,-4.199430,-0.189142,-6.517017,-0.076608,0.032775,0.015855
20926,-4.070143,-0.122104,-6.497863,-0.037038,0.053159,0.024914
20941,-4.170699,-0.126893,-6.528988,0.008660,0.058489,0.030243
20956,-4.144363,-0.203507,-6.392519,0.048230,0.055957,0.021983
20971,-3.967192,-0.337582,-6.349423,0.047031,0.043300,0.022783
20986,-3.859453,-0.397437,-6.294356,0.034640,0.034240,0.024115
21001,-3.847482,-0.778116,-6.390124,0.008793,0.023315,0.012657
21016,-3.799598,-0.981623,-6.399701,-0.020784,0.013190,-0.025580
21031,-3.914520,-1.041478,-6.366182,-0.038504,-0.020518,-0.069280
21046,-3.948039,-0.878672,-6.363788,-0.082737,-0.040636,-0.081138
21061,-4.144363,-0.802058,-6.342240,-0.112314,-0.041168,-0.083669
21076,-4.232948,-0.454898,-6.435614,-0.104986,-0.051560,-0.078473
21091,-4.376601,-0.181959,-6.471527,-0.082737,-0.041168,-0.039836
21106,-4.402937,0.004788,-6.631938,-0.062086,-0.014522,0.027179
21121,-4.462792,-0.007183,-6.612785,-0.035306,0.027579,0.092729
21136,-4.465186,-0.031125,-6.540959,-0.009459,0.070346,0.139360
21151,-4.326323,-0.102951,-6.483498,0.025847,0.083136,0.157613
21166,-3.993528,-0.435745,-6.473921,0.052760,0.086734,0.131366
21181,-3.801992,-0.972046,-6.404490,0.059821,0.054625,0.048629
21196,-3.869030,-1.292869,-6.351817,0.050761,0.012391,-0.047830
21211,-4.005499,-1.266533,-6.418855,-0.005995,-0.014789,-0.105652
21226,-3.993528,-0.962469,-6.368577,-0.055957,-0.040902,-0.126170
21241,-4.098873,-0.706289,-6.368577,-0.074876,-0.040636,-0.135629
21256,-4.264073,-0.553061,-6.500257,-0.082470,-0.043700,-0.113779
21271,-4.398149,-0.373495,-6.528988,-0.099524,-0.019985,-0.058089
21286,-4.297592,-0.002394,-6.552930,-0.097392,-0.018119,0.006795
21301,-4.309563,0.167594,-6.677428,-0.066749,-0.001732,0.062752
21316,-4.390966,0.143652,-6.672640,-0.028511,0.027579,0.108450
21331,-4.412514,0.186748,-6.672640,0.031975,0.057156,0.125504
21346,-4.343082,0.107739,-6.706159,0.088066,0.088599,0.136429
21361,-4.077325,-0.117316,-6.543353,0.099790,0.092729,0.156413
21376,-3.912126,-0.617704,-6.576872,0.077407,0.104853,0.150285
21391,-3.758897,-1.118092,-6.373365,0.056890,0.092462,0.077674
21406,-3.725378,-1.364695,-6.251261,0.041701,0.036905,-0.015455
21421,-3.632004,-1.470040,-6.246472,-0.001199,0.019185,-0.084868
21436,-3.804386,-1.309628,-6.258443,-0.044499,-0.038237,-0.134297
21451,-4.089296,-1.137246,-6.251261,-0.084069,-0.043433,-0.143890
21466,-4.223372,-0.842759,-6.284780,-0.110848,-0.028911,-0.127769
21481,-4.158728,-0.545878,-6.296751,-0.126303,-0.007727,-0.085934
21496,-4.213795,-0.354342,-6.359000,-0.127502,0.002798,-0.028511
21511,-4.254497,-0.102951,-6.440403,-0.101256,-0.005063,0.028245
21526,-4.367024,0.100556,-6.411672,-0.049162,0.013057,0.069014
21541,-4.259285,0.129287,-6.344635,0.024515,0.019319,0.091130
21556,-4.106056,-0.117316,-6.404490,0.077274,0.025580,0.084069
21571,-4.115633,-0.538695,-6.560112,0.085401,0.031842,0.078740
21586,-4.065354,-0.792481,-6.387730,0.059155,0.035173,0.056490
21601,-3.967192,-1.077391,-6.263232,0.011458,0.037305,0.014922
21616,-3.739743,-1.096544,-6.277597,-0.033308,0.010392,-0.035173
21631,-3.852270,-0.976834,-6.344635,-0.059954,-0.024648,-0.068481
21646,-4.024653,-0.699107,-6.409278,-0.065550,-0.068081,-0.075276
21661,-4.199430,-0.593762,-6.545747,-0.070346,-0.079139,-0.055025
21676,-4.309563,-0.438139,-6.687005,-0.079539,-0.065017,-0.019985
21691,-4.436456,-0.440533,-6.804321,-0.082870,-0.029044,0.020384
21706,-4.659116,-0.253785,-6.787562,-0.087266,0.024648,0.059688
21721,-4.587290,-0.138864,-6.828263,-0.059821,0.076342,0.076874
21736,-4.204218,-0.260968,-6.596025,-0.022916,0.094727,0.083003
21751,-4.091691,-0.450110,-6.576872,0.012790,0.101655,0.061286
21766,-4.029441,-0.907402,-6.370971,0.024515,0.095660,0.011858
21781,-3.873818,-1.163582,-6.282385,0.009992,0.061420,-0.053959
21796,-3.804386,-1.177947,-6.248867,-0.031176,0.031975,-0.102855
21811,-3.924097,-1.036689,-6.220136,-0.069280,-0.009593,-0.126836
21826,-4.067749,-0.818817,-6.157887,-0.093262,-0.028245,-0.137095
21841,-4.204218,-0.629675,-6.356606,-0.107118,-0.031975,-0.120708
21856,-4.132392,-0.383072,-6.311116,-0.114845,-0.027312,-0.079539
21871,-4.261679,-0.105345,-6.426037,-0.118176,-0.022649,-0.015988
21886,-4.314352,-0.047884,-6.495469,-0.116711,-0.003064,0.055291
21901,-4.285621,0.088585,-6.493075,-0.083403,0.007594,0.102455
21916,-4.110844,0.189142,-6.330269,-0.013057,0.012524,0.112714
21931,-4.034230,0.100556,-6.517017,0.060887,0.022783,0.100190
21946,-4.060566,-0.375890,-6.605602,0.091530,0.031443,0.081804
21961,-4.046201,-0.730232,-6.514623,0.084335,0.017054,0.051560
21976,-4.019865,-1.005565,-6.469133,0.040902,0.027579,0.007061
21991,-3.873818,-0.995988,-6.550536,-0.020118,0.028645,-0.018386
22006,-3.938462,-0.814029,-6.426037,-0.054891,0.017054,-0.033708
22021,-4.024653,-0.627281,-6.406884,-0.069813,-0.013723,-0.029711
22036,-4.077325,-0.536301,-6.289568,-0.068881,-0.033708,-0.013323
22051,-4.120421,-0.354342,-6.347029,-0.058089,-0.048629,0.003997
22066,-4.192247,-0.318429,-6.466739,-0.041835,-0.038237,0.022916
22081,-4.443638,-0.433351,-6.593631,-0.037571,-0.026646,0.035706
22096,-4.429273,-0.375890,-6.679822,-0.022783,0.010259,0.044233
22111,-4.364630,-0.385466,-6.684611,-0.008127,0.045965,0.038637
22126,-4.163517,-0.519542,-6.557718,0.002798,0.054625,0.033441
22141,-4.139575,-0.730232,-6.500257,0.001865,0.042368,0.018119
22156,-4.062960,-0.799663,-6.490681,-0.008127,0.016521,0.001466
22171,-4.065354,-0.821211,-6.342240,-0.019851,-0.007061,-0.020651
22186,-4.082114,-0.739808,-6.291962,-0.020651,-0.022516,-0.038770
22201,-4.240131,-0.739808,-6.447585,-0.031709,-0.031975,-0.040502
22216,-4.383783,-0.622492,-6.564901,-0.051560,-0.016787,-0.025314
22231,-4.237737,-0.514753,-6.581660,-0.074876,0.009593,-0.004663
22246,-4.247314,-0.359130,-6.445191,-0.069680,0.039969,0.006662
22261,-4.273650,-0.232238,-6.347029,-0.047830,0.056090,0.020917
22276,-4.216189,-0.189142,-6.363788,-0.025181,0.046498,0.037571
22291,-4.015076,-0.215478,-6.253655,0.007328,0.026779,0.055424
22306,-3.936068,-0.191536,-6.313510,0.053559,-0.015721,0.063685
22321,-4.122815,-0.351948,-6.457162,0.085401,-0.025847,0.065283
22336,-4.278439,-0.806846,-6.593631,0.052626,-0.008926,0.079006
22351,-4.125209,-1.091756,-6.519411,-0.010925,0.019185,0.063551
22366,-3.967192,-1.357512,-6.435614,-0.081005,0.055691,0.005063
22381,-3.948039,-1.331176,-6.359000,-0.126703,0.053159,-0.075542
22396,-3.945644,-1.206678,-6.344635,-0.132565,0.031975,-0.150951
22411,-3.991134,-0.912191,-6.167463,-0.130433,-0.019452,-0.193985
22426,-4.022259,-0.778116,-6.320693,-0.115911,-0.058489,-0.207308
22441,-4.276044,-0.502782,-6.409278,-0.116311,-0.062352,-0.171335
22456,-4.402937,-0.172383,-6.505046,-0.120175,-0.057956,-0.089132
22471,-4.577713,0.146046,-6.593631,-0.109383,-0.043433,0.010525
22486,-4.498705,0.361524,-6.548141,-0.070879,0.000666,0.093795
22501,-4.410120,0.392649,-6.617573,0.004930,0.032508,0.128168
22516,-4.431667,0.150835,-6.675034,0.077274,0.058222,0.124704
22531,-4.311957,-0.332794,-6.667851,0.093528,0.079406,0.111115
22546,-4.034230,-0.790087,-6.538565,0.062752,0.065283,0.078340
22561,-3.725378,-1.103727,-6.430826,0.005063,0.074210,0.017853
22576,-3.871424,-1.043872,-6.347029,-0.025980,0.025314,-0.041835
22591,-3.938462,-0.909797,-6.349423,-0.051560,-0.008260,-0.076475
22606,-4.125209,-0.665588,-6.402095,-0.061686,-0.034640,-0.075542
22621,-4.132392,-0.562637,-6.426037,-0.063818,-0.044233,-0.063418
22636,-4.333505,-0.423774,-6.540959,-0.066749,-0.022916,-0.024115
22651,-4.405331,-0.263362,-6.440403,-0.078473,0.000799,0.029577
22666,-4.280833,-0.083797,-6.598420,-0.063285,0.022250,0.080738
22681,-4.228160,0.026336,-6.567295,-0.019585,0.029178,0.110582
22696,-4.311957,-0.023942,-6.603208,0.040769,0.035440,0.114179
22711,-4.211401,-0.251391,-6.596025,0.088066,0.055291,0.102588
22726,-3.945644,-0.909797,-6.435614,0.072211,0.078606,0.047830
22741,-3.938462,-1.187524,-6.268020,0.041968,0.045032,-0.019185
22756,-3.931279,-1.218649,-6.260838,-0.020917,0.021184,-0.060887
22771,-3.926491,-0.924162,-6.181828,-0.060887,-0.031576,-0.073410
22786,-3.940856,-0.569820,-6.191405,-0.065949,-0.064217,-0.065017
22801,-4.194641,-0.509965,-6.385336,-0.065150,-0.056757,-0.042634
22816,-4.410120,-0.450110,-6.483498,-0.061153,-0.053825,-0.001998
22831,-4.493917,-0.299275,-6.634333,-0.060087,-0.023715,0.033708
22846,-4.510676,-0.246603,-6.732495,-0.050894,0.023715,0.057822
22861,-4.419696,-0.253785,-6.737284,-0.033041,0.058888,0.073011
22876,-4.367024,-0.260968,-6.694188,-0.001732,0.072211,0.077407
22891,-4.259285,-0.251391,-6.543353,0.039303,0.060487,0.077807
22906,-4.218583,-0.397437,-6.397307,0.052893,0.059155,0.071545
22921,-4.141969,-0.943315,-6.356606,0.037038,0.072211,0.043700
22936,-3.957615,-1.230620,-6.217741,0.001066,0.059021,-0.018652
22951,-3.878607,-1.398214,-6.200982,-0.039303,0.038770,-0.083802
22966,-3.823540,-1.254562,-6.210559,-0.067415,-0.008660,-0.140159
22981,-3.945644,-1.118092,-6.306327,-0.066749,-0.039303,-0.183593
22996,-4.189853,-1.060631,-6.354211,-0.083802,-0.066083,-0.196383
23011,-4.374207,-0.916979,-6.368577,-0.128968,-0.060487,-0.175332
23026,-4.407725,-0.380678,-6.430826,-0.150152,-0.041035,-0.124305
23041,-4.436456,-0.016759,-6.478710,-0.136162,-0.016654,-0.048096
23056,-4.577713,0.292093,-6.466739,-0.089798,0.016121,0.035173
23071,-4.450821,0.404620,-6.387730,-0.022116,0.029844,0.106452
23086,-4.290410,0.440533,-6.505046,0.046098,0.056490,0.147887
23101,-4.194641,0.308852,-6.471527,0.094594,0.061020,0.172135
23116,-4.199430,0.153229,-6.466739,0.132832,0.052227,0.187057
23131,-4.211401,-0.277727,-6.572083,0.136296,0.053426,0.177198
23146,-3.888184,-0.890643,-6.507440,0.101922,0.067149,0.118043
23161,-3.655946,-1.290475,-6.323087,0.066482,0.052493,0.026380
23176,-3.821146,-1.532289,-6.452374,-0.009193,0.025047,-0.034374
23191,-3.981557,-1.328782,-6.447585,-0.084735,-0.001466,-0.058089
23206,-4.036624,-0.952892,-6.459556,-0.117643,-0.023848,-0.066882
23221,-4.122815,-0.754174,-6.411672,-0.128035,-0.003464,-0.057689
23236,-4.247314,-0.519542,-6.430826,-0.120041,0.005862,-0.037172
23251,-4.244920,-0.366313,-6.380548,-0.098724,-0.000666,-0.007594
23266,-4.247314,-0.260968,-6.382942,-0.056224,0.011991,0.014922
23281,-4.201824,-0.114922,-6.481104,-0.005462,0.010658,0.025714
23296,-4.161122,-0.241814,-6.409278,0.040636,0.012657,0.025714
23311,-4.340688,-0.469264,-6.416461,0.058622,0.016920,0.019052
23326,-4.175488,-0.849942,-6.493075,0.028378,0.039436,-0.002931
23341,-4.005499,-0.928950,-6.347029,0.003997,0.012524,-0.034240
23356,-4.074931,-0.928950,-6.469133,-0.031043,0.025047,-0.060487
23371,-4.199430,-0.895431,-6.435614,-0.054225,0.011724,-0.071145
23386,-4.127604,-0.766145,-6.315904,-0.057956,-0.000133,-0.079406
23401,-4.182670,-0.591368,-6.349423,-0.060753,-0.013323,-0.081138
23416,-4.098873,-0.433351,-6.478710,-0.072877,-0.026779,-0.057289
23431,-4.321534,-0.217872,-6.538565,-0.076608,-0.013723,-0.011191
23446,-4.417302,-0.074220,-6.454768,-0.072078,0.016521,0.053692
23461,-4.371812,0.074220,-6.459556,-0.046098,0.045299,0.110315
23476,-4.194641,0.112527,-6.428432,-0.003198,0.061686,0.148020
23491,-4.232948,-0.079009,-6.459556,0.039436,0.062885,0.168671
23506,-4.091691,-0.665588,-6.409278,0.048096,0.078074,0.163208
23521,-3.655946,-1.063026,-6.265626,0.044899,0.068214,0.081804
23536,-3.533842,-1.388637,-6.153098,0.036639,0.022516,-0.032375
23551,-3.852270,-1.606509,-6.268020,-0.006129,-0.003730,-0.114712
23566,-4.086902,-1.446098,-6.105214,-0.061286,-0.028778,-0.166139
23581,-4.122815,-1.103727,-6.232107,-0.098591,-0.040103,-0.183459
23596,-4.108450,-0.873884,-6.205770,-0.120841,-0.041435,-0.166806
23611,-4.240131,-0.457293,-6.299145,-0.122706,-0.051960,-0.111381
23626,-4.479551,-0.150835,-6.337452,-0.107651,-0.050628,-0.029577
23641,-4.544195,0.071826,-6.485892,-0.083003,-0.050095,0.052760
23656,-4.544195,0.095768,-6.619967,-0.045698,-0.014123,0.113646
23671,-4.422091,0.016759,-6.596025,0.005862,0.031842,0.126836
23686,-4.467580,-0.507571,-6.646304,0.034907,0.079006,0.107251
23701,-3.988740,-0.828394,-6.363788,0.033441,0.080205,0.036372
23716,-3.902549,-1.086968,-6.270414,0.031443,0.040236,-0.036505
23731,-3.823540,-1.043872,-6.438008,-0.001332,0.010525,-0.074743
23746,-4.043807,-0.924162,-6.430826,-0.027046,-0.008260,-0.088066
23761,-4.151546,-0.742203,-6.344635,-0.044366,-0.028778,-0.082603
23776,-4.254497,-0.550666,-6.469133,-0.066349,-0.019718,-0.052893
23791,-4.192247,-0.351948,-6.435614,-0.085401,-0.006129,-0.008127
23806,-4.314352,-0.289698,-6.459556,-0.096193,-0.001599,0.045299
23821,-4.410120,-0.155623,-6.449979,-0.085801,0.014655,0.092462
23836,-4.362236,-0.098162,-6.409278,-0.050628,0.038237,0.113113
23851,-4.151546,-0.306458,-6.394913,-0.026646,0.056490,0.120841
23866,-3.936068,-0.675165,-6.347029,-0.016521,0.060087,0.085534
23881,-3.914520,-1.096544,-6.313510,-0.012657,0.041302,0.032508
23896,-3.792415,-1.261744,-6.229712,-0.019452,-0.005329,-0.044366
23911,-3.878607,-1.266533,-6.306327,-0.034107,-0.044100,-0.112980
23926,-4.103662,-1.254562,-6.442797,-0.061420,-0.051960,-0.156147
23941,-4.304775,-1.094150,-6.493075,-0.096459,-0.043034,-0.164674
23956,-4.302381,-0.861913,-6.440403,-0.126436,-0.012657,-0.150951
23971,-4.266468,-0.466869,-6.279991,-0.143490,-0.011858,-0.109383
23986,-4.182670,-0.083797,-6.205770,-0.135896,-0.015055,-0.050228
24001,-4.259285,0.146046,-6.270414,-0.111515,-0.024648,0.022116
24016,-4.355053,0.356736,-6.359000,-0.052360,-0.036905,0.080072
24031,-4.355053,0.423774,-6.567295,0.032508,-0.028378,0.100989
24046,-4.424485,0.146046,-6.569689,0.092196,-0.011058,0.110982
24061,-4.378995,-0.639252,-6.744466,0.076608,0.048363,0.104587
24076,-4.031836,-1.170765,-6.464345,0.016387,0.056623,0.036239
24091,-3.780444,-1.608904,-6.308722,-0.047963,0.049029,-0.066749
24106,-3.768473,-1.575385,-6.409278,-0.104054,-0.012923,-0.148553
24121,-3.998317,-1.331176,-6.354211,-0.138827,-0.055691,-0.215968
24136,-4.407725,-1.108515,-6.454768,-0.139760,-0.082870,-0.257136
24151,-4.501099,-0.837971,-6.615179,-0.154681,-0.052093,-0.246345
24166,-4.448427,-0.423774,-6.531382,-0.180795,-0.014123,-0.175998
24181,-4.620809,0.107739,-6.588843,-0.167871,0.018786,-0.077940
24196,-4.659116,0.375890,-6.509834,-0.134697,0.026513,0.036106
24211,-4.572925,0.648829,-6.330269,-0.061819,0.047963,0.127369
24226,-4.316746,0.869095,-6.275203,0.053292,0.048363,0.170003
24241,-4.290410,0.430956,-6.275203,0.141891,0.043833,0.190387
24256,-4.170699,-0.337582,-6.414066,0.156680,0.037571,0.188522
24271,-3.813963,-1.070208,-6.378153,0.121240,0.039570,0.099790
24286,-3.667917,-1.663970,-6.320693,0.067015,0.005729,-0.023049
24301,-3.950433,-1.711854,-6.416461,-0.015588,-0.022383,-0.103521
24316,-4.204218,-1.484405,-6.521805,-0.105253,-0.025847,-0.143890
24331,-4.230554,-1.082179,-6.404490,-0.150551,-0.039703,-0.150685
24346,-4.388572,-0.641646,-6.560112,-0.154681,-0.034507,-0.133498
24361,-4.376601,-0.335188,-6.490681,-0.153349,-0.011325,-0.071545
24376,-4.474763,-0.021548,-6.485892,-0.141758,0.009326,0.017054
24391,-4.551377,0.174777,-6.519411,-0.107251,0.029311,0.092196
24406,-4.335899,0.373495,-6.382942,-0.045565,0.049695,0.129900
24421,-4.273650,0.237026,-6.445191,0.048496,0.059421,0.122839
24436,-4.235343,-0.383072,-6.485892,0.098858,0.072078,0.075809
24451,-4.141969,-0.926556,-6.466739,0.095260,0.054758,0.002132
24466,-4.046201,-1.288080,-6.349423,0.041568,0.033574,-0.061420
24481,-3.971981,-1.165976,-6.385336,-0.043300,0.003464,-0.080605
24496,-4.232948,-0.883460,-6.339846,-0.101123,0.000133,-0.073144
24511,-4.249708,-0.579397,-6.306327,-0.111515,-0.007727,-0.051827
24526,-4.170699,-0.330400,-6.318298,-0.094994,-0.005596,-0.021184
24541,-4.079720,-0.124498,-6.277597,-0.080338,-0.020518,0.021583
24556,-4.216189,-0.150835,-6.392519,-0.070613,-0.019718,0.069547
24571,-4.357447,-0.062249,-6.545747,-0.052626,-0.025580,0.100190
24586,-4.443638,0.062249,-6.612785,-0.010925,-0.006528,0.112314
24601,-4.359841,-0.093374,-6.588843,0.035706,0.023449,0.115112
24616,-4.254497,-0.646434,-6.605602,0.034107,0.069014,0.086467
24631,-4.039018,-1.019930,-6.308722,0.019718,0.075276,0.014123
24646,-3.967192,-1.295263,-6.248867,-0.017986,0.045432,-0.052893
24661,-3.940856,-1.146823,-6.227318,-0.068881,0.000799,-0.090464
24676,-4.089296,-0.962469,-6.368577,-0.092729,-0.025714,-0.112181
24691,-4.254497,-0.878672,-6.354211,-0.111781,-0.028245,-0.113913
24706,-4.395754,-0.567426,-6.335058,-0.124172,-0.033574,-0.090464
24721,-4.299986,-0.227449,-6.359000,-0.125371,-0.025447,-0.041835
24736,-4.278439,-0.004788,-6.380548,-0.112980,-0.016654,0.009459
24751,-4.498705,0.074220,-6.404490,-0.077541,-0.009060,0.067815
24766,-4.534618,0.232238,-6.385336,-0.026779,0.008127,0.097259
24781,-4.376601,0.201113,-6.445191,0.031842,0.010259,0.118043
24796,-4.407725,-0.004788,-6.483498,0.046231,0.029844,0.150418
24811,-4.359841,-0.052672,-6.493075,0.044100,0.017320,0.189322
24826,-4.458004,0.002394,-6.593631,0.052893,0.048096,0.219698
24841,-4.386178,-0.136469,-6.588843,0.056090,0.045965,0.244746
24856,-4.106056,-0.768539,-6.483498,0.018786,0.110982,0.221430
24871,-3.823540,-1.110910,-6.246472,0.012257,0.077008,0.131100
24886,-3.775656,-1.666364,-6.224924,-0.023182,0.070346,0.016920
24901,-3.804386,-1.551443,-6.191405,-0.057156,-0.009193,-0.080472
24916,-3.907337,-1.335965,-6.282385,-0.063152,-0.085668,-0.156547
24931,-4.220977,-1.173159,-6.349423,-0.073410,-0.103920,-0.198115
24946,-4.671087,-1.022324,-6.378153,-0.096593,-0.077807,-0.188389
24961,-4.738125,-0.737414,-6.469133,-0.137228,-0.025047,-0.138560
24976,-4.599261,-0.387861,-6.409278,-0.172534,0.021850,-0.062352
24991,-4.532224,0.074220,-6.332664,-0.152816,0.024248,0.004397
25006,-4.501099,0.263362,-6.265626,-0.095127,0.029577,0.050361
25021,-4.393360,0.342371,-6.351817,-0.021184,0.029577,0.063551
25036,-4.304775,0.313640,-6.464345,0.064884,0.022649,0.060887
25051,-4.271256,0.031125,-6.581660,0.094861,0.020118,0.066216
25066,-4.388572,-0.368707,-6.449979,0.066616,0.030910,0.081005
25081,-4.187459,-0.677559,-6.370971,0.007461,0.063285,0.048096
25096,-3.948039,-0.950498,-6.359000,-0.012657,0.038237,-0.012790
25111,-3.835511,-1.019930,-6.306327,-0.051028,0.030643,-0.052626
25126,-4.084508,-0.883460,-6.354211,-0.095527,-0.017853,-0.069014
25141,-4.163517,-0.780510,-6.490681,-0.117110,-0.037172,-0.076608
25156,-4.331111,-0.531513,-6.404490,-0.129900,-0.028378,-0.072345
25171,-4.359841,-0.268151,-6.540959,-0.115778,0.001998,-0.050095
25186,-4.378995,-0.093374,-6.574478,-0.097792,0.012391,-0.014256
25201,-4.424485,0.043096,-6.572083,-0.071545,0.023315,0.025580
25216,-4.410120,0.119710,-6.473921,-0.039570,0.044766,0.061553
25231,-4.220977,0.165200,-6.536170,0.020118,0.042101,0.070080
25246,-4.235343,-0.026336,-6.438008,0.068214,0.044100,0.063152
25261,-4.292804,-0.500388,-6.392519,0.065017,0.041435,0.048629
25276,-4.074931,-0.727837,-6.366182,0.019452,0.042900,0.013590
25291,-4.072537,-0.804452,-6.435614,-0.023582,0.017187,-0.010792
25306,-4.050989,-0.543484,-6.277597,-0.052360,-0.000133,-0.022250
25321,-4.271256,-0.399832,-6.279991,-0.039436,-0.016254,-0.027046
25336,-4.254497,-0.287304,-6.373365,-0.012923,-0.019452,-0.022516
25351,-4.323928,-0.304064,-6.411672,-0.005063,-0.006528,0.004530
25366,-4.350265,-0.392649,-6.478710,-0.019985,0.000799,0.044366
25381,-4.355053,-0.366313,-6.500257,-0.036106,0.013323,0.060487
25396,-4.472369,-0.411803,-6.531382,-0.027312,0.041168,0.049029
25411,-4.311957,-0.464475,-6.505046,0.001066,0.053292,0.021583
25426,-4.194641,-0.579397,-6.531382,0.011991,0.065283,0.006528
25441,-4.278439,-0.660800,-6.572083,0.009060,0.053959,-0.009593
25456,-4.249708,-0.679953,-6.356606,0.002132,0.044632,-0.011591
25471,-4.110844,-0.667982,-6.306327,-0.014522,0.029977,-0.012257
25486,-3.986346,-0.569820,-6.325481,-0.018519,0.013190,-0.027979
25501,-4.168305,-0.658405,-6.354211,-0.006528,0.010792,-0.057156
25516,-4.319140,-0.737414,-6.327875,-0.024515,0.015188,-0.069946
25531,-4.165911,-0.610521,-6.323087,-0.058622,0.018386,-0.068881
25546,-4.108450,-0.500388,-6.308722,-0.061420,0.008260,-0.068214
25561,-4.103662,-0.356736,-6.234501,-0.048096,-0.004397,-0.062086
25576,-4.335899,-0.306458,-6.272809,-0.019851,-0.022250,-0.043300
25591,-4.347870,-0.227449,-6.234501,-0.013456,-0.027845,-0.005729
25606,-4.326323,-0.198719,-6.382942,-0.025714,-0.019718,0.034640
25621,-4.331111,-0.222661,-6.378153,-0.032375,0.003597,0.072345
25636,-4.465186,-0.213084,-6.390124,-0.025181,0.029577,0.094994
25651,-4.350265,-0.215478,-6.449979,-0.000266,0.046364,0.108184
25666,-4.206612,-0.380678,-6.426037,0.011991,0.051694,0.116711
25681,-4.027047,-0.751779,-6.414066,0.003597,0.062352,0.091930
25696,-4.043807,-1.130063,-6.402095,-0.015988,0.058089,0.034773
25711,-4.003105,-1.254562,-6.464345,-0.054625,0.034107,-0.030510
25726,-4.048595,-1.060631,-6.339846,-0.085934,-0.001732,-0.082204
25741,-4.103662,-0.890643,-6.399701,-0.102455,-0.025847,-0.113113
25756,-4.331111,-0.814029,-6.485892,-0.115378,-0.016387,-0.114312
25771,-4.400543,-0.593762,-6.378153,-0.129634,-0.007727,-0.098724
25786,-4.376601,-0.282516,-6.232107,-0.126969,0.009459,-0.063951
25801,-4.268862,-0.050278,-6.370971,-0.110848,-0.001466,-0.014256
25816,-4.331111,0.079009,-6.315904,-0.071412,-0.002132,0.016654
25831,-4.493917,0.076614,-6.435614,-0.024115,0.003331,0.030377
25846,-4.453215,-0.007183,-6.447585,0.014922,0.028112,0.035040
25861,-4.292804,-0.093374,-6.416461,0.017453,0.050894,0.044366
25876,-4.218583,-0.337582,-6.382942,-0.013190,0.051161,0.072877
25891,-3.988740,-0.746991,-6.256049,-0.067415,0.069413,0.052227
25906,-3.730166,-0.885855,-6.076484,-0.064617,0.022783,-0.030643
25921,-3.720589,-1.031901,-6.191405,-0.063285,-0.022116,-0.113513
25936,-3.909731,-1.063026,-6.294356,-0.081138,-0.077141,-0.174266
25951,-4.271256,-1.039083,-6.459556,-0.104986,-0.096459,-0.211704
25966,-4.465186,-0.780510,-6.514623,-0.134830,-0.075276,-0.213303
25981,-4.491522,-0.349553,-6.698976,-0.160810,-0.040236,-0.172534
25996,-4.625597,0.102951,-6.770802,-0.151084,-0.013590,-0.094727
26011,-4.671087,0.411803,-6.655880,-0.111248,0.017320,0.007594
26026,-4.687847,0.569820,-6.524199,-0.060087,0.052893,0.092462
26041,-4.460398,0.629675,-6.521805,0.018652,0.079006,0.134430
26056,-4.223372,0.471658,-6.313510,0.094594,0.089398,0.149219
26071,-4.218583,-0.033519,-6.332664,0.103521,0.074476,0.165340
26086,-3.885789,-0.483629,-6.339846,0.077008,0.062619,0.121507
26101,-3.732560,-0.746991,-6.167463,0.056890,0.017853,0.040103
26116,-3.816357,-0.847547,-6.318298,0.024115,-0.013989,-0.014922
26131,-4.110844,-0.718261,-6.438008,-0.005995,-0.046897,-0.035440
26146,-4.187459,-0.600945,-6.402095,-0.006928,-0.060887,-0.041302
26161,-4.438850,-0.385466,-6.452374,-0.009593,-0.026779,-0.016387
26176,-4.347870,-0.342371,-6.397307,-0.022383,0.010259,0.028911
26191,-4.307169,-0.337582,-6.402095,-0.037704,0.020917,0.081671
26206,-4.290410,-0.160412,-6.284780,-0.030776,0.024781,0.117110
26221,-4.264073,0.021548,-6.315904,0.021717,-0.006662,0.139093
26236,-4.369418,-0.299275,-6.402095,0.039969,0.021850,0.160011
26251,-4.141969,-0.873884,-6.394913,0.013323,0.074343,0.125237
26266,-4.072537,-1.237802,-6.181828,0.006662,0.035040,0.033574
26281,-4.039018,-1.371878,-6.215347,-0.039703,0.018253,-0.044766
26296,-4.062960,-1.063026,-6.121974,-0.071945,-0.049828,-0.107251
26311,-4.084508,-0.847547,-6.150704,-0.061953,-0.087133,-0.150551
26326,-4.458004,-0.727837,-6.323087,-0.049962,-0.080205,-0.162276
26341,-4.515464,-0.577003,-6.497863,-0.065017,-0.054758,-0.128168
26356,-4.474763,-0.301669,-6.488286,-0.103254,-0.036639,-0.068214
26371,-4.572925,-0.117316,-6.500257,-0.126703,-0.015055,0.008394
26386,-4.620809,0.117316,-6.528988,-0.128302,0.015855,0.077807
26401,-4.558560,0.287304,-6.531382,-0.082737,0.034773,0.112580
26416,-4.386178,0.284910,-6.514623,-0.007861,0.037971,0.110715
26431,-4.264073,-0.138864,-6.552930,0.034240,0.040502,0.088466
26446,-4.273650,-0.433351,-6.473921,0.030243,0.039703,0.058755
26461,-4.280833,-0.794875,-6.502652,0.005729,0.056890,0.017720
26476,-4.151546,-0.821211,-6.414066,-0.022516,0.044766,-0.023315
26491,-4.015076,-0.746991,-6.387730,-0.049562,0.038104,-0.046498
26506,-4.125209,-0.629675,-6.399701,-0.069147,0.014922,-0.042900
26521,-4.252102,-0.541090,-6.260838,-0.089265,0.001998,-0.028112
26536,-4.316746,-0.395043,-6.404490,-0.117377,-0.003464,-0.001199
26551,-4.192247,-0.280122,-6.342240,-0.146155,0.006262,0.036905
26566,-4.280833,0.052672,-6.294356,-0.136296,0.013590,0.065283
26581,-4.431667,0.186748,-6.378153,-0.086067,0.018519,0.087933
26596,-4.323928,0.270545,-6.366182,-0.025314,0.009992,0.107251
26611,-4.228160,0.265756,-6.311116,0.028778,0.021317,0.125371
26626,-4.328717,0.071826,-6.366182,0.074876,-0.004930,0.154815
26641,-4.338294,-0.407014,-6.411672,0.060487,0.040369,0.155614
26656,-4.216189,-0.749385,-6.332664,0.056357,0.027979,0.097525
26671,-3.967192,-1.264138,-6.366182,0.029844,0.040369,0.004796
26686,-4.067749,-1.472434,-6.313510,-0.019851,0.018519,-0.081671
26701,-4.086902,-1.278504,-6.318298,-0.070879,-0.011191,-0.142025
26716,-4.180276,-1.051054,-6.315904,-0.107784,-0.037305,-0.186524
26731,-4.367024,-0.758962,-6.399701,-0.105786,-0.052493,-0.203711
26746,-4.649539,-0.543484,-6.361394,-0.102455,-0.031842,-0.189322
26761,-4.627992,-0.129287,-6.385336,-0.107518,-0.006262,-0.129900
26776,-4.481946,0.153229,-6.490681,-0.097925,0.009593,-0.054092
26791,-4.460398,0.509965,-6.500257,-0.059421,0.001599,0.027845
26806,-4.546589,0.586579,-6.373365,0.005462,0.012524,0.088066
26821,-4.548983,0.634463,-6.318298,0.070346,0.024248,0.133498
26836,-4.398149,0.438139,-6.370971,0.102188,0.047031,0.181727
26851,-4.180276,-0.296881,-6.421249,0.063818,0.073810,0.194651
26866,-3.754108,-0.806846,-6.272809,0.050361,0.059155,0.105786
26881,-3.845088,-1.060631,-6.220136,0.067282,0.015188,-0.021450
26896,-3.833117,-1.254562,-6.409278,0.021717,-0.022383,-0.109250
26911,-4.067749,-1.163582,-6.323087,-0.046098,-0.050095,-0.144556
26926,-4.345476,-0.938527,-6.406884,-0.106185,-0.048096,-0.137228
26941,-4.570531,-0.677559,-6.507440,-0.140692,-0.009459,-0.100723
26956,-4.472369,-0.105345,-6.447585,-0.131100,0.000133,-0.048763
26971,-4.441244,0.167594,-6.440403,-0.099524,0.014256,0.026913
26986,-4.522647,0.373495,-6.426037,-0.058355,0.004663,0.104187
27001,-4.613626,0.342371,-6.457162,-0.014522,0.036905,0.161610
27016,-4.491522,0.438139,-6.356606,0.056090,0.059954,0.172401
27031,-4.299986,-0.201113,-6.481104,0.091663,0.083669,0.164407
27046,-3.936068,-0.778116,-6.306327,0.070746,0.088998,0.090730
27061,-4.029441,-1.319205,-6.107608,0.060221,0.046098,-0.010525
27076,-3.998317,-1.431733,-6.287174,-0.017587,0.021983,-0.085534
27091,-3.976769,-1.199495,-6.239290,-0.070213,-0.016254,-0.136828
27106,-4.096479,-0.924162,-6.248867,-0.091796,-0.043567,-0.168005
27121,-4.280833,-0.682347,-6.198588,-0.105253,-0.062485,-0.164274
27136,-4.422091,-0.440533,-6.327875,-0.115245,-0.061153,-0.120708
27151,-4.410120,-0.014365,-6.452374,-0.101922,-0.064884,-0.061153
27166,-4.587290,0.191536,-6.423643,-0.084469,-0.031842,0.017986
27181,-4.685452,0.220267,-6.509834,-0.067282,0.012790,0.082070
27196,-4.580108,0.323217,-6.505046,-0.013723,0.043833,0.124571
27211,-4.328717,0.316035,-6.421249,0.052093,0.051028,0.136162
27226,-4.206612,-0.062249,-6.591237,0.083936,0.054625,0.116311
27241,-4.230554,-0.651223,-6.449979,0.081404,0.035573,0.060753
27256,-4.113238,-1.163582,-6.531382,0.040236,0.045032,-0.022783
27271,-4.094085,-1.261744,-6.461950,-0.013323,0.012923,-0.086067
27286,-4.101267,-1.058237,-6.428432,-0.070879,0.006129,-0.118443
27301,-4.252102,-0.782904,-6.327875,-0.105786,-0.012391,-0.126570
27316,-4.304775,-0.526724,-6.303933,-0.104986,-0.022649,-0.115778
27331,-4.285621,-0.311246,-6.368577,-0.106452,-0.020917,-0.091397
27346,-4.266468,-0.033519,-6.299145,-0.100057,-0.018386,-0.043167
27361,-4.510676,0.165200,-6.438008,-0.077541,-0.006395,0.013057
27376,-4.661510,0.296881,-6.339846,-0.043167,0.026646,0.071279
27391,-4.548983,0.323217,-6.349423,0.012257,0.049828,0.116044
27406,-4.393360,0.126893,-6.351817,0.057556,0.049029,0.128701
27421,-4.340688,-0.404620,-6.576872,0.069413,0.064617,0.111115
27436,-4.103662,-0.766145,-6.344635,0.051694,0.051161,0.049828
27451,-4.134786,-1.144428,-6.354211,0.010658,0.045832,-0.016521
27466,-4.072537,-1.132457,-6.145916,-0.035839,0.016654,-0.068747
27481,-4.161122,-0.933739,-6.239290,-0.064617,-0.001199,-0.095127
27496,-4.345476,-0.689530,-6.299145,-0.062885,-0.030776,-0.098724
27511,-4.285621,-0.474052,-6.399701,-0.050761,-0.031576,-0.086334
27526,-4.378995,-0.198719,-6.392519,-0.035440,-0.026913,-0.052626
27541,-4.517859,-0.177171,-6.411672,-0.042234,-0.010392,-0.000400
27556,-4.661510,-0.246603,-6.610391,-0.062352,0.015055,0.059821
27571,-4.493917,-0.019154,-6.469133,-0.059288,0.048496,0.101389
27586,-4.347870,0.114922,-6.368577,-0.010259,0.065417,0.107384
27601,-4.254497,0.059855,-6.380548,0.041168,0.050495,0.101123
27616,-4.276044,-0.359130,-6.514623,0.065150,0.059155,0.083136
27631,-4.211401,-0.775721,-6.284780,0.067415,0.039303,0.033441
27646,-4.019865,-1.115698,-6.306327,0.019851,0.050894,-0.023582
27661,-4.022259,-1.108515,-6.277597,-0.034640,0.018119,-0.075809
27676,-4.141969,-0.919373,-6.361394,-0.080738,0.008926,-0.099391
27691,-4.309563,-0.667982,-6.354211,-0.088199,-0.013590,-0.105253
27706,-4.194641,-0.423774,-6.330269,-0.071012,-0.022649,-0.102588
27721,-4.261679,-0.272939,-6.347029,-0.058755,-0.029044,-0.077407
27736,-4.491522,-0.064643,-6.423643,-0.056224,-0.009992,-0.021717
27751,-4.659116,0.038307,-6.528988,-0.062485,0.019452,0.053159
27766,-4.491522,0.174777,-6.505046,-0.043300,0.036905,0.111648
27781,-4.345476,0.158017,-6.426037,0.003864,0.059688,0.134430
27796,-4.285621,0.114922,-6.342240,0.048230,0.061686,0.139360
27811,-4.192247,-0.150835,-6.200982,0.069147,0.046364,0.152150
27826,-4.074931,-0.660800,-6.234501,0.050495,0.042101,0.134697
27841,-3.825934,-0.861913,-6.241684,0.045698,-0.001998,0.059821
27856,-3.993528,-1.247379,-6.289568,0.022116,0.002931,-0.028645
27871,-4.180276,-1.197101,-6.347029,-0.027179,-0.014922,-0.084469
27886,-4.283227,-1.007959,-6.342240,-0.078074,-0.019585,-0.104320
27901,-4.309563,-0.660800,-6.279991,-0.101389,-0.017187,-0.099257
27916,-4.367024,-0.356736,-6.320693,-0.097525,-0.007194,-0.078606
27931,-4.527435,-0.105345,-6.332664,-0.083802,-0.003198,-0.023848
27946,-4.522647,0.069432,-6.291962,-0.072478,-0.000799,0.046897
27961,-4.508282,0.141258,-6.275203,-0.034773,0.000933,0.104054
27976,-4.371812,0.021548,-6.421249,0.008394,0.017853,0.121907
27991,-4.390966,-0.339977,-6.430826,0.032775,0.035306,0.113646
28006,-4.252102,-0.823605,-6.461950,0.025447,0.062885,0.060221
28021,-4.094085,-1.039083,-6.265626,-0.001599,0.029311,-0.008926
28036,-4.089296,-1.206678,-6.258443,-0.056757,0.038104,-0.063018
28051,-4.146757,-0.931344,-6.263232,-0.075409,0.000266,-0.105786
28066,-4.307169,-0.732626,-6.246472,-0.068481,-0.010525,-0.132032
28081,-4.256891,-0.555455,-6.406884,-0.075409,-0.026113,-0.117910
28096,-4.259285,-0.344765,-6.344635,-0.090198,-0.016920,-0.081005
28111,-4.412514,-0.150835,-6.217741,-0.106185,-0.011858,-0.016387
28126,-4.534618,0.129287,-6.193799,-0.104853,0.004130,0.064750
28141,-4.422091,0.349553,-6.311116,-0.062619,-0.006262,0.123639
28156,-4.321534,0.454898,-6.390124,0.004796,0.008127,0.157479
28171,-4.343082,0.304064,-6.442797,0.093262,0.001998,0.162276
28186,-4.596867,-0.500388,-6.555324,0.094727,0.034773,0.161077
