T,AX,AY,AZ,GX,GY,GZ
46,-3.694253,2.169147,-6.296751,-0.024648,0.020651,0.005196
61,-3.694253,2.111686,-6.373365,-0.023049,0.013723,0.002132
76,-3.790021,2.068590,-6.370971,-0.025447,0.028645,0.001332
91,-3.742137,2.080561,-6.409278,-0.027046,0.019052,0.000933
106,-3.696647,2.070984,-6.442797,-0.033308,0.022649,0.003331
121,-3.593697,2.097321,-6.466739,-0.031975,0.011191,0.001732
136,-3.804386,2.138022,-6.409278,-0.035040,0.022116,-0.000266
151,-3.799598,2.133234,-6.447585,-0.029977,-0.002132,0.001066
166,-3.665523,2.188300,-6.457162,-0.029577,0.019185,0.000000
181,-3.734955,2.157176,-6.361394,-0.033175,0.010392,0.003464
196,-3.636792,2.202666,-6.373365,-0.032508,0.007328,-0.001332
211,-3.864241,2.171541,-6.354211,-0.030643,0.007461,0.000133
226,-3.665523,2.118868,-6.363788,-0.026113,0.002531,0.001199
241,-3.689465,2.195483,-6.363788,-0.027312,0.015188,-0.000133
256,-3.675100,2.078167,-6.366182,-0.022250,0.009060,0.000133
271,-3.871424,2.059013,-6.452374,-0.029178,0.028112,0.000133
286,-3.706224,2.135628,-6.411672,-0.029444,0.011325,-0.000133
301,-3.620033,2.183512,-6.500257,-0.030643,0.023848,-0.004530
316,-3.622427,2.126051,-6.397307,-0.026380,-0.001332,-0.001998
331,-3.883395,2.118868,-6.404490,-0.031576,0.025847,-0.004663
346,-3.773262,2.205060,-6.440403,-0.029444,0.001466,-0.003597
361,-3.581726,2.159570,-6.315904,-0.027712,0.013856,-0.002931
376,-3.739743,2.193089,-6.428432,-0.027979,-0.004263,-0.003597
391,-3.782839,2.121263,-6.339846,-0.021184,-0.004263,-0.001599
406,-3.833117,2.102109,-6.332664,-0.023715,-0.000400,-0.002531
421,-3.665523,2.066196,-6.363788,-0.027579,0.006795,-0.000400
436,-3.713407,2.087744,-6.421249,-0.031176,0.011058,0.000666
451,-3.751714,2.061408,-6.394913,-0.027179,0.015055,0.000933
466,-3.845088,2.138022,-6.430826,-0.034907,0.030243,0.002132
481,-3.593697,2.161964,-6.440403,-0.026113,0.009193,-0.000266
496,-3.711013,2.157176,-6.387730,-0.027446,0.027712,0.000400
511,-3.794810,2.032677,-6.418855,-0.025314,0.002531,-0.000266
526,-3.847482,2.140416,-6.406884,-0.022916,0.019452,-0.000533
541,-3.703830,2.171541,-6.318298,-0.029977,0.018652,0.002798
556,-3.643975,2.078167,-6.418855,-0.031975,0.009992,0.005862
571,-3.746926,2.092532,-6.356606,-0.039703,0.018786,0.005329
586,-3.806781,2.145205,-6.452374,-0.034507,0.005462,0.001599
601,-3.667917,2.140416,-6.442797,-0.027979,0.002931,-0.001466
616,-3.742137,2.126051,-6.421249,-0.026779,-0.002931,-0.001732
631,-3.756502,2.094926,-6.368577,-0.025714,-0.012391,-0.003331
646,-3.842694,2.121263,-6.373365,-0.029577,0.019452,-0.000266
661,-3.785233,2.140416,-6.418855,-0.025047,0.003198,0.000400
676,-3.672705,2.114080,-6.289568,-0.026380,0.020917,0.001332
691,-3.706224,2.099715,-6.476315,-0.028778,0.014123,0.007594
706,-3.775656,2.070984,-6.263232,-0.025847,0.012524,0.008394
721,-3.758897,2.099715,-6.385336,-0.031576,0.019718,0.007861
736,-3.620033,2.169147,-6.416461,-0.024115,0.009992,0.012923
751,-3.763685,2.037466,-6.426037,-0.023182,0.015988,0.011724
766,-3.792415,2.047042,-6.349423,-0.030643,0.016654,0.011858
781,-3.780444,2.214637,-6.502652,-0.030910,0.010658,0.008260
796,-3.581726,2.212242,-6.347029,-0.024914,0.013590,0.000933
811,-3.711013,2.267309,-6.442797,-0.026779,0.020518,0.000933
826,-3.785233,2.087744,-6.303933,-0.025047,0.008127,0.000400
841,-3.797204,2.035071,-6.359000,-0.032775,0.035173,0.001865
856,-3.713407,2.097321,-6.390124,-0.028645,0.015988,0.002665
871,-3.581726,2.149993,-6.385336,-0.031975,0.025181,0.001466
886,-3.816357,2.149993,-6.500257,-0.025847,0.019452,0.004263
901,-3.730166,2.106897,-6.402095,-0.027579,0.014522,0.000533
916,-3.758897,2.140416,-6.411672,-0.026779,0.018386,0.004663
931,-3.663129,2.190695,-6.232107,-0.027979,0.014922,0.005462
946,-3.823540,2.090138,-6.440403,-0.026247,0.018253,0.001998
961,-3.816357,2.008735,-6.373365,-0.025314,0.010126,0.002931
976,-3.672705,2.183512,-6.347029,-0.028378,0.027712,0.002665
991,-3.703830,2.111686,-6.373365,-0.028378,0.022250,0.001865
1006,-3.643975,2.142811,-6.409278,-0.022916,0.011191,0.001332
1021,-3.950433,2.097321,-6.485892,-0.030910,0.028911,0.002531
1036,-3.603273,2.240973,-6.363788,-0.017986,0.001332,-0.002665
1051,-3.737349,2.193089,-6.416461,-0.015455,0.024515,-0.003597
1066,-3.713407,2.106897,-6.375759,-0.011724,0.004796,-0.009992
1081,-3.739743,2.087744,-6.490681,-0.017587,0.020384,-0.008793
1096,-3.687071,2.099715,-6.438008,-0.020118,-0.000266,-0.002398
1111,-3.627216,2.106897,-6.363788,-0.024781,0.008926,0.001599
1126,-3.811569,2.011129,-6.385336,-0.027579,0.000933,0.004930
1141,-3.770868,2.085350,-6.493075,-0.022783,0.008926,-0.000266
1156,-3.849876,2.159570,-6.493075,-0.022649,0.014389,-0.001466
1171,-3.605668,2.121263,-6.421249,-0.015055,-0.000133,-0.004397
1186,-3.790021,2.202666,-6.435614,-0.009193,0.005729,-0.005063
1201,-3.773262,2.171541,-6.347029,0.001599,-0.012391,-0.013590
1216,-3.816357,2.157176,-6.380548,0.000266,0.010525,-0.020251
1231,-3.737349,2.224213,-6.392519,0.007861,-0.005462,-0.027979
1246,-3.608062,2.159570,-6.449979,0.010792,-0.004130,-0.033308
1261,-3.825934,2.015918,-6.426037,0.017320,-0.003198,-0.032908
1276,-3.754108,2.059013,-6.473921,0.011458,-0.003331,-0.029178
1291,-3.684676,2.087744,-6.414066,0.016654,-0.017320,-0.026113
1306,-3.641581,2.013524,-6.449979,0.017054,-0.026113,-0.023449
1321,-3.794810,1.932121,-6.449979,0.011458,-0.028645,-0.019185
1336,-3.754108,2.032677,-6.418855,0.013190,-0.038904,-0.020651
1351,-3.825934,2.047042,-6.428432,0.026779,-0.047430,-0.022916
1366,-3.778050,2.085350,-6.478710,0.040103,-0.047963,-0.030243
1381,-3.912126,2.039860,-6.416461,0.053959,-0.051161,-0.041302
1396,-3.904943,2.102109,-6.373365,0.058089,-0.035306,-0.052227
1411,-3.864241,2.152387,-6.380548,0.057156,-0.028911,-0.057822
1426,-3.730166,2.173935,-6.366182,0.080871,-0.050894,-0.071012
1441,-3.794810,1.991976,-6.473921,0.078606,-0.041701,-0.067015
1456,-3.936068,1.910573,-6.351817,0.075409,-0.039303,-0.067948
1471,-3.878607,1.867477,-6.344635,0.073943,-0.053026,-0.064617
1486,-3.766079,1.908179,-6.497863,0.079806,-0.053825,-0.062885
1501,-3.847482,1.795651,-6.347029,0.076741,-0.058355,-0.057156
1516,-3.919308,1.752556,-6.354211,0.072611,-0.048363,-0.052360
1531,-3.928885,1.747767,-6.390124,0.067415,-0.038637,-0.049695
1546,-3.809175,1.805228,-6.347029,0.064217,-0.058489,-0.046231
1561,-3.864241,1.802834,-6.373365,0.067149,-0.029311,-0.046098
1576,-3.921702,1.826776,-6.438008,0.077274,-0.050228,-0.049029
1591,-3.938462,1.862689,-6.521805,0.095127,-0.047564,-0.054625
1606,-3.840299,1.898602,-6.533776,0.120441,-0.090730,-0.060753
1621,-3.842694,1.685518,-6.344635,0.119908,-0.093129,-0.063951
1636,-3.914520,1.685518,-6.380548,0.104986,-0.098458,-0.060221
1651,-3.971981,1.843535,-6.318298,0.113380,-0.081138,-0.062086
1666,-3.974375,1.723825,-6.469133,0.116977,-0.103654,-0.062352
1681,-4.086902,1.695095,-6.368577,0.122706,-0.093395,-0.064750
1696,-4.067749,1.654393,-6.335058,0.123106,-0.100190,-0.067015
1711,-3.991134,1.589750,-6.442797,0.118975,-0.106185,-0.067015
1726,-4.098873,1.482011,-6.279991,0.109250,-0.091530,-0.069413
1741,-4.192247,1.338359,-6.253655,0.094727,-0.076075,-0.066083
1756,-4.125209,1.426944,-6.301539,0.081538,-0.074343,-0.063418
1771,-4.108450,1.357512,-6.330269,0.058622,-0.042501,-0.060753
1786,-4.094085,1.470040,-6.363788,0.053159,-0.038504,-0.055424
1801,-4.118027,1.233014,-6.332664,0.042234,-0.054492,-0.048496
1816,-4.261679,1.482011,-6.268020,0.029444,-0.042234,-0.035839
1831,-4.027047,1.431733,-6.222530,0.013323,-0.043034,-0.037038
1846,-4.249708,1.211466,-6.112397,-0.050628,-0.070080,-0.051827
1861,-4.189853,1.891419,-6.569689,0.026113,-0.108850,-0.048763
1876,-4.390966,1.644817,-6.375759,0.041168,-0.029178,-0.047564
1891,-4.206612,1.810017,-6.440403,0.073011,-0.110049,-0.050095
1906,-4.089296,1.400608,-6.303933,0.037571,-0.058489,-0.035440
1921,-4.388572,1.046266,-6.320693,0.008394,-0.077141,-0.031043
1936,-4.252102,1.290475,-6.313510,-0.022116,-0.083669,-0.031176
1951,-4.314352,1.517924,-6.227318,-0.000666,-0.039836,-0.026247
1966,-4.098873,1.467646,-6.330269,0.033974,-0.017986,-0.011591
1981,-4.259285,1.424550,-6.536170,0.081538,0.014522,-0.012657
1996,-4.146757,1.182736,-6.478710,0.083669,-0.034507,-0.015988
2011,-4.115633,1.216254,-6.251261,0.073277,-0.034773,-0.020651
2026,-4.043807,1.285686,-6.301539,0.006928,-0.087933,-0.005462
2041,-4.280833,1.470040,-6.227318,0.023848,-0.097259,-0.013723
2056,-4.434062,1.453280,-6.327875,0.035306,-0.129767,-0.016920
2071,-4.414908,1.505953,-6.241684,0.051960,-0.070213,-0.012257
2086,-4.192247,1.419762,-6.227318,0.070346,-0.048896,0.005995
2101,-4.204218,1.244985,-6.184223,0.106585,-0.041701,0.005995
2116,-4.371812,1.132457,-6.157887,0.098058,-0.010792,0.007727
2131,-4.364630,1.043872,-6.064513,0.066616,-0.038104,0.007061
2146,-4.175488,0.857124,-6.062119,0.042501,-0.065283,-0.016521
2161,-4.364630,1.134852,-6.279991,0.023315,-0.098325,-0.025447
2176,-4.572925,1.417367,-6.332664,0.060620,-0.116577,-0.041568
2191,-4.580108,1.563414,-6.342240,0.113113,-0.100856,-0.048763
2206,-4.601655,1.398214,-6.452374,0.172135,-0.081271,-0.067948
2221,-4.400543,1.233014,-6.311116,0.216234,-0.084069,-0.069014
2236,-4.481946,0.986411,-6.184223,0.237551,-0.072211,-0.075942
2251,-4.501099,1.149217,-6.057330,0.211971,-0.072211,-0.063152
2266,-4.654328,1.328782,-6.375759,0.213170,-0.016787,-0.054758
2281,-4.388572,1.288080,-6.375759,0.259268,0.029444,-0.052360
2296,-4.343082,1.161188,-6.426037,0.264464,-0.023982,-0.048629
2311,-4.412514,0.972046,-6.268020,0.269660,-0.031975,-0.050228
2326,-4.357447,0.909797,-6.129156,0.204910,-0.066216,-0.033841
2341,-4.340688,1.161188,-6.157887,0.153083,-0.019585,-0.037438
2356,-4.556166,1.031901,-6.105214,0.174133,-0.069413,-0.055158
2371,-4.582502,1.003170,-6.040571,0.169470,-0.025580,-0.026247
2386,-4.438850,0.584185,-6.198588,0.154282,-0.015322,-0.004663
2401,-4.592079,0.928950,-6.332664,0.124838,0.016387,0.037305
2416,-4.568137,1.400608,-6.284780,0.167205,0.090064,0.048629
2431,-4.388572,0.775721,-6.251261,0.242081,0.038237,0.024381
2446,-4.618415,0.509965,-6.392519,0.223029,0.084202,0.040236
2461,-4.283227,0.347159,-6.607996,0.209706,0.047031,0.039836
2476,-4.388572,0.514753,-6.129156,0.249409,0.033708,0.028511
2491,-4.249708,0.229843,-5.975927,0.201579,-0.033574,0.037971
2506,-4.314352,0.153229,-6.045359,0.152283,-0.079139,0.038371
2521,-4.321534,0.244209,-5.975927,0.156147,-0.109250,0.024515
2536,-4.656722,0.371101,-6.296751,0.169603,-0.040636,0.011191
2551,-4.776433,0.615310,-6.246472,0.250608,0.023715,-0.003730
2566,-4.750096,0.615310,-6.359000,0.261533,0.061420,0.000266
2581,-4.508282,0.076614,-6.315904,0.267662,0.030643,-0.001599
2596,-4.532224,-0.320823,-6.193799,0.205043,0.046231,-0.000666
2611,-4.501099,-0.095768,-6.081272,0.187989,0.061953,-0.013723
2626,-4.474763,-0.488417,-6.090849,0.090331,0.056757,-0.011458
2641,-4.180276,0.040701,-6.081272,0.070613,-0.043966,-0.046897
2656,-4.412514,-0.210690,-6.160281,0.036639,-0.040636,-0.063685
2671,-4.469975,0.033519,-6.191405,0.018652,-0.101123,-0.076475
2686,-4.786009,0.076614,-6.481104,0.022383,-0.067948,-0.081671
2701,-4.596867,0.579397,-6.354211,0.063818,-0.025847,-0.095260
2716,-4.805163,0.265756,-6.452374,0.065283,0.056490,-0.071945
2731,-4.666299,0.538695,-6.636727,0.110449,0.080605,-0.074876
2746,-4.742914,0.067038,-6.643909,0.161610,0.107651,-0.100057
2761,-4.517859,-0.217872,-6.552930,0.117776,0.139760,-0.117910
2776,-4.469975,-0.670376,-6.303933,0.059954,0.127103,-0.136429
2791,-4.292804,-0.505177,-6.260838,-0.007727,0.108717,-0.178796
2806,-4.192247,-0.366313,-5.947197,-0.041168,-0.008926,-0.218366
2821,-4.326323,-0.090980,-5.920861,-0.051427,-0.066882,-0.227559
2836,-4.486734,0.301669,-5.987898,-0.037838,-0.140026,-0.210239
2851,-4.829105,0.500388,-6.162675,0.004130,-0.071545,-0.157879
2866,-4.941632,0.407014,-6.349423,0.040769,-0.022916,-0.096326
2881,-4.888960,0.313640,-6.356606,0.040769,0.013323,-0.049695
2896,-4.709394,-0.196325,-6.485892,-0.032642,0.092995,-0.010792
2911,-4.450821,0.009577,-6.375759,-0.087133,0.070080,-0.009859
2926,-4.462792,0.026336,-6.239290,-0.089398,0.087666,-0.024115
2941,-4.426879,0.134075,-6.215347,-0.042234,0.017720,-0.068481
2956,-4.240131,0.009577,-6.184223,-0.004663,-0.002798,-0.096459
2971,-4.551377,-0.011971,-6.258443,0.012923,-0.030377,-0.093528
2986,-4.678270,0.114922,-6.363788,0.035440,-0.023715,-0.065017
3001,-4.754885,0.035913,-6.552930,0.021317,-0.030243,-0.017720
3016,-4.869806,0.181959,-6.684611,0.035972,0.036239,0.018519
3031,-4.769250,0.067038,-6.675034,0.038904,0.089265,0.042767
3046,-4.733336,-0.201113,-6.833052,0.018253,0.095527,0.041835
3061,-4.606444,-0.201113,-6.691793,0.002265,0.104720,0.034907
3076,-4.398149,0.014365,-6.536170,0.018919,0.041701,0.014522
3091,-4.718971,-0.531513,-6.648698,-0.011458,0.110982,-0.013190
3106,-4.656722,-0.416591,-6.502652,0.016521,0.109783,-0.072877
3121,-4.491522,-0.502782,-6.452374,0.038904,0.162276,-0.149352
3136,-4.402937,-0.502782,-6.476315,0.048629,0.100190,-0.197182
3151,-4.477157,-0.308852,-6.392519,0.049429,0.123372,-0.217433
3166,-4.575319,0.067038,-6.315904,0.074609,0.142957,-0.212904
3181,-4.620809,0.052672,-6.284780,0.096326,0.144156,-0.169470
3196,-4.357447,-0.043096,-6.294356,0.039436,0.151351,-0.080605
3211,-4.314352,0.438139,-6.117185,0.023982,0.159211,0.002931
3226,-4.611232,0.328006,-6.294356,0.028378,0.185991,0.055557
3241,-4.371812,0.339977,-6.189011,0.047031,0.181328,0.084602
3256,-4.321534,-0.153229,-6.332664,0.060620,0.267795,0.074876
3271,-3.909731,-0.548272,-6.227318,0.049296,0.216501,0.021051
3286,-3.933673,-0.849942,-6.318298,-0.016521,0.232089,-0.026247
3301,-3.881001,-0.751779,-6.277597,-0.061686,0.178930,-0.073677
3316,-3.871424,-0.351948,-6.279991,-0.066882,0.139493,-0.110315
3331,-3.823540,0.016759,-6.186617,-0.028378,0.100456,-0.117377
3346,-3.928885,0.122104,-6.224924,0.007461,0.076075,-0.069946
3361,-4.309563,0.045490,-6.397307,-0.004130,0.092329,0.019319
3376,-4.311957,0.282516,-6.330269,-0.042501,0.134031,0.115511
3391,-4.216189,0.095768,-6.509834,-0.069946,0.157080,0.175865
3406,-4.151546,-0.416591,-6.545747,-0.109649,0.268461,0.180528
3421,-4.146757,-1.051054,-6.461950,-0.180528,0.353862,0.134164
3436,-3.816357,-1.316811,-6.502652,-0.195184,0.412484,0.008527
3451,-3.284845,-1.302446,-6.385336,-0.096060,0.343470,-0.226626
3466,-2.985569,-1.259350,-6.157887,0.071279,0.132565,-0.506545
3481,-3.464410,-1.240196,-6.239290,0.133764,-0.062619,-0.663358
3496,-3.837905,-1.003170,-6.174646,0.023049,-0.160277,-0.635913
3511,-4.220977,-0.476446,-6.133945,-0.159877,-0.182926,-0.440729
3526,-4.529830,0.442927,-6.394913,-0.308297,-0.043966,-0.140026
3541,-4.441244,1.544260,-6.646304,-0.282583,0.012124,0.129501
3556,-4.374207,1.946486,-6.907272,-0.128968,0.048896,0.295507
3571,-4.292804,1.429338,-6.876147,0.096193,0.041568,0.311495
3586,-4.082114,0.462081,-6.936002,0.271792,0.164674,0.195184
3601,-3.979163,-0.780510,-6.967127,0.366519,0.132032,-0.001332
3616,-3.859453,-1.699883,-7.034164,0.266862,0.104986,-0.145755
3631,-3.950433,-1.656788,-6.895301,0.053692,0.056357,-0.196116
3646,-4.036624,-1.039083,-6.751649,-0.133231,0.084202,-0.163475
3661,-4.177882,-0.179565,-6.821081,-0.181861,0.042501,-0.091530
3676,-4.216189,0.294487,-6.943185,-0.142957,0.085934,0.011191
3691,-4.094085,0.280122,-7.062895,-0.063551,0.101389,0.076075
3706,-4.022259,-0.136469,-6.878541,-0.009193,0.156413,0.052493
3721,-4.029441,-0.565032,-6.780379,0.018519,0.232888,-0.031709
3736,-3.742137,-0.837971,-6.670246,-0.003597,0.253139,-0.112847
3751,-3.572149,-0.459687,-6.390124,-0.033441,0.224095,-0.145089
3766,-3.438074,-0.100556,-6.414066,-0.014522,0.132032,-0.136695
3781,-3.521871,0.093374,-6.342240,-0.004397,0.069547,-0.076075
3796,-3.687071,0.239420,-6.406884,0.014522,0.037438,0.019052
3811,-3.869030,0.272939,-6.366182,0.041302,0.012124,0.108717
3826,-3.955221,-0.019154,-6.562507,0.034773,0.093395,0.174266
3841,-3.952827,-0.299275,-6.574478,0.049828,0.101522,0.186124
3856,-3.828328,-0.715866,-6.713341,0.057822,0.228358,0.136429
3871,-3.605668,-0.780510,-6.648698,0.074077,0.157080,0.062885
3886,-3.438074,-0.802058,-6.737284,0.055691,0.173334,-0.001732
3901,-3.543418,-0.756568,-6.792350,0.043833,0.122573,-0.045565
3916,-3.552995,-0.550666,-6.856994,0.035972,0.092063,-0.043433
3931,-3.861847,-0.450110,-6.828263,0.031176,0.078074,-0.027446
3946,-3.751714,-0.447716,-6.991069,0.044499,0.081404,-0.019452
3961,-3.890578,-0.737414,-6.962338,0.024914,0.108317,-0.025314
3976,-3.799598,-0.730232,-7.180211,0.001865,0.199047,-0.040902
3991,-3.809175,-0.775721,-7.065289,0.007328,0.246078,-0.069413
4006,-3.320758,-0.598550,-6.909666,0.023982,0.227026,-0.099657
4021,-3.229778,-0.509965,-6.787562,0.055158,0.174933,-0.120841
4036,-3.404555,-0.521936,-6.653486,0.065816,0.128568,-0.118176
4051,-3.390190,-0.591368,-6.514623,0.052227,0.107917,-0.091397
4066,-3.512294,-0.414197,-6.461950,-0.002531,0.111781,-0.036372
4081,-3.260903,-0.146046,-6.356606,-0.020118,0.094194,0.029178
4096,-3.457227,-0.320823,-6.361394,-0.016920,0.151617,0.054625
4111,-3.215413,-0.495600,-6.270414,0.045165,0.158545,0.027312
4126,-2.949656,-0.878672,-6.385336,0.065417,0.124438,-0.029844
4141,-2.906561,-1.091756,-6.512228,0.032242,0.050495,-0.076342
4156,-2.923320,-0.905008,-6.404490,-0.002531,0.013856,-0.106452
4171,-3.236961,-0.696713,-6.466739,-0.027579,-0.003064,-0.097392
4186,-3.509900,-0.447716,-6.430826,-0.077807,0.033574,-0.019452
4201,-3.332729,-0.052672,-6.469133,-0.091263,0.032642,0.097392
4216,-3.430891,0.064643,-6.670246,-0.089665,0.044766,0.211438
4231,-3.469198,0.275333,-6.766014,-0.061153,0.071545,0.305632
4246,-3.584120,-0.201113,-6.914454,-0.013057,0.049962,0.359724
4261,-3.442862,-0.627281,-6.842628,0.012524,0.159078,0.338141
4276,-3.119645,-1.156399,-6.897695,0.045432,0.230357,0.217567
4291,-2.791639,-1.671153,-7.029376,0.070613,0.095527,0.004397
4306,-2.631228,-1.742979,-6.770802,0.085268,-0.022783,-0.191453
4321,-3.023877,-1.446098,-6.734890,0.041168,-0.116711,-0.292576
4336,-3.007117,-1.003170,-6.727706,0.042101,-0.199447,-0.324418
4351,-3.737349,-0.854730,-6.749255,-0.001332,-0.196383,-0.247677
4366,-4.079720,-0.397437,-6.974309,-0.096593,-0.077807,-0.071545
4381,-4.139575,0.301669,-7.218518,-0.057156,0.053026,0.091530
4396,-3.854665,0.064643,-7.311892,-0.013190,0.170536,0.186657
4411,-3.761291,-0.430956,-7.280767,0.022649,0.227959,0.182793
4426,-3.399766,-0.766145,-7.220912,0.061286,0.266329,0.093129
4441,-3.043030,-1.015141,-7.019799,0.069813,0.193851,-0.016654
4456,-2.806004,-1.065420,-6.967127,0.047697,0.094461,-0.107784
4471,-2.992752,-0.940921,-6.845023,0.027979,-0.000533,-0.149752
4486,-3.351882,-0.577003,-6.787562,0.022516,-0.038637,-0.144156
4501,-3.612850,-0.426168,-6.785168,0.024115,0.014655,-0.099923
4516,-3.579331,-0.550666,-7.034164,0.007461,0.099524,-0.033841
4531,-3.327940,-0.574608,-6.907272,-0.001199,0.118709,0.000666
4546,-3.201048,-0.945710,-6.904878,-0.015188,0.133364,-0.014389
4561,-2.911349,-0.804452,-6.694188,0.000799,0.066482,-0.069413
4576,-2.822764,-0.687136,-6.785168,0.029711,0.006528,-0.148953
4591,-2.992752,-0.545878,-6.682217,0.070080,-0.056224,-0.187590
4606,-3.368642,-0.397437,-6.818686,0.101123,-0.071412,-0.183992
4621,-3.533842,-0.320823,-6.900089,0.135496,-0.052493,-0.127502
4636,-3.653552,-0.347159,-6.732495,0.126303,0.068348,-0.014256
4651,-3.292027,-0.349553,-6.792350,0.089665,0.186790,0.112847
4666,-3.385401,-0.732626,-6.890512,0.049695,0.182527,0.177464
4681,-2.997540,-0.766145,-6.842628,0.051694,0.114046,0.173467
4696,-2.944868,-1.137246,-6.835446,0.065150,0.095793,0.104320
4711,-2.597709,-1.395820,-6.655880,0.076874,-0.024248,0.019319
4726,-3.287239,-1.388637,-6.904878,0.068214,-0.003997,-0.064084
4741,-3.371036,-1.534683,-6.876147,-0.002665,-0.023582,-0.074210
4756,-3.462016,-1.221043,-6.847417,-0.106452,0.106585,-0.017986
4771,-3.193865,-0.905008,-6.837840,-0.145888,0.157479,0.061420
4786,-3.725378,-0.323217,-7.144298,-0.122839,0.172401,0.082603
4801,-2.662352,-0.672771,-6.586449,-0.036639,0.083936,0.078873
4816,-3.141193,-0.689530,-6.689399,0.026113,0.162675,0.028778
4831,-2.703054,-0.957681,-6.883330,0.106585,0.059688,-0.041968
4846,-2.825158,-1.185130,-6.945579,0.108450,0.027979,-0.081804
4861,-3.071761,-1.273715,-7.007828,0.075009,-0.015322,-0.091930
4876,-3.301604,-1.017536,-6.971915,0.022783,0.003730,-0.072078
4891,-3.392584,-0.936133,-7.029376,-0.056623,0.108450,-0.003730
4906,-3.174711,-0.670376,-6.986280,-0.096992,0.139493,0.072211
4921,-3.033453,-0.761356,-6.849811,-0.112580,0.141225,0.116577
4936,-2.849100,-0.691924,-6.670246,-0.094328,0.099391,0.119908
4951,-2.566584,-0.648829,-6.689399,-0.000933,0.023449,0.038104
4966,-2.631228,-1.151611,-6.639121,0.077274,-0.037172,-0.070746
4981,-2.894590,-1.403002,-6.670246,0.112980,-0.076208,-0.147221
4996,-3.081337,-1.273715,-6.854599,0.098858,-0.102988,-0.185458
5011,-3.215413,-1.352724,-6.904878,0.031309,-0.046364,-0.159611
5026,-3.284845,-1.149217,-6.959944,-0.058089,-0.002531,-0.093395
5041,-3.438074,-1.010353,-7.017405,-0.127502,0.074609,-0.024115
5056,-3.454833,-0.677559,-6.938396,-0.166006,0.137628,0.061953
5071,-2.937685,-0.481235,-6.842628,-0.144156,0.102055,0.117377
5086,-2.865859,-0.593762,-6.900089,-0.084735,0.098058,0.104453
5101,-2.813187,-0.768539,-6.847417,0.024648,0.051560,0.024781
5116,-2.820369,-1.278504,-6.897695,0.089798,-0.006262,-0.072744
5131,-2.923320,-1.400608,-6.988675,0.069280,-0.059821,-0.133498
5146,-3.157952,-1.319205,-6.962338,0.009060,-0.038104,-0.141358
5161,-3.366247,-1.139640,-7.034164,-0.039703,0.012391,-0.111515
5176,-3.454833,-0.859518,-7.034164,-0.066616,0.046098,-0.056090
5191,-3.296816,-0.660800,-7.043741,-0.043567,0.091930,-0.005995
5206,-3.165135,-0.567426,-6.981492,-0.018919,0.078873,0.037172
5221,-3.071761,-0.706289,-7.031770,-0.019851,0.044233,0.058755
5236,-3.198653,-0.763750,-7.041347,0.002265,0.090597,0.045432
5251,-3.162740,-1.034295,-6.969521,0.015055,0.030510,0.013456
5266,-3.196259,-1.151611,-7.050924,-0.020917,0.086201,0.005596
5281,-3.136404,-1.142034,-7.079654,-0.050495,0.103387,0.008527
5296,-3.110068,-0.979228,-7.005434,-0.056090,0.139360,0.022516
5311,-2.870648,-0.864307,-6.912060,-0.027179,0.116977,0.032375
5326,-2.753332,-0.667982,-6.816292,0.034907,0.085401,0.032242
5341,-2.762909,-0.979228,-6.878541,0.077674,0.060221,0.020118
5356,-2.899378,-1.436521,-6.842628,0.077807,0.069147,-0.003464
5371,-2.784456,-1.663970,-6.866570,0.011724,0.044899,-0.043833
5386,-2.671929,-1.539472,-6.945579,-0.032642,0.065816,-0.081005
5401,-2.815581,-1.529895,-6.816292,-0.071812,0.029577,-0.107651
5416,-2.715025,-1.295263,-6.806715,-0.094461,0.023582,-0.111648
5431,-2.839523,-1.106121,-6.725312,-0.095793,0.013456,-0.090730
5446,-2.691083,-0.861913,-6.629544,-0.083802,-0.007727,-0.061553
5461,-2.681506,-0.730232,-6.698976,-0.058089,-0.020251,-0.031043
5476,-2.770091,-0.739808,-6.787562,-0.031176,-0.039570,-0.011858
5491,-2.942474,-0.651223,-6.885724,0.003064,-0.079939,0.009459
5506,-3.239355,-0.799663,-6.943185,0.004530,0.006662,0.025580
5521,-2.999935,-0.926556,-7.117961,0.021051,0.087533,0.012124
5536,-2.640805,-1.290475,-7.082048,0.020917,0.102988,-0.028511
5551,-2.767697,-1.335965,-7.115567,0.003997,0.050495,-0.064084
5566,-2.659958,-1.218649,-7.043741,-0.013057,-0.002265,-0.083403
5581,-2.748544,-1.070208,-7.067683,-0.028378,-0.020651,-0.079939
5596,-2.952051,-1.079785,-7.077260,-0.051560,-0.021583,-0.045698
5611,-3.090914,-0.912191,-7.036559,-0.086334,0.000400,0.001599
5626,-3.016694,-0.945710,-7.017405,-0.107518,0.032775,0.035839
5641,-2.844311,-0.761356,-6.909666,-0.081404,0.038371,0.024781
5656,-2.949656,-0.921768,-6.888118,-0.033974,0.049029,-0.022516
5671,-2.640805,-0.976834,-6.904878,0.016121,0.023848,-0.081138
5686,-2.765303,-1.221043,-7.048530,0.035306,0.030243,-0.134430
5701,-2.841917,-1.233014,-7.043741,0.016654,0.003730,-0.154149
5716,-2.954445,-1.168370,-7.082048,-0.032242,-0.005063,-0.126570
5731,-2.947262,-0.837971,-6.861782,-0.081271,0.000266,-0.060487
5746,-2.892196,-0.581791,-6.787562,-0.092729,-0.015455,0.017587
5761,-2.913743,-0.526724,-6.734890,-0.079406,-0.002398,0.085934
5776,-3.052607,-0.493206,-6.751649,-0.048496,-0.048230,0.135230
5791,-3.162740,-0.768539,-6.883330,-0.010392,0.035839,0.136162
5806,-2.786851,-1.089362,-6.883330,0.062086,0.039570,0.054092
5821,-2.777274,-1.618480,-7.041347,0.081138,0.033175,-0.035173
5836,-2.782062,-1.697489,-7.094019,0.037571,-0.021717,-0.086600
5851,-2.865859,-1.671153,-7.007828,-0.024781,-0.029311,-0.111115
5866,-2.930503,-1.345541,-7.036559,-0.055424,-0.047830,-0.093262
5881,-2.999935,-1.125275,-6.916849,-0.054758,-0.048096,-0.059688
5896,-3.102885,-0.943315,-6.897695,-0.048629,-0.081005,-0.005995
5911,-3.160346,-0.931344,-6.861782,-0.069946,-0.041302,0.065550
5926,-3.155558,-0.770933,-6.983886,-0.069680,0.009459,0.107917
5941,-3.157952,-0.758962,-6.974309,-0.049162,0.050894,0.114712
5956,-3.019088,-1.005565,-7.015011,-0.026646,0.084735,0.080338
5971,-2.698265,-1.182736,-6.904878,0.026380,0.063685,-0.009193
5986,-2.477999,-1.453280,-6.794744,0.055691,-0.006262,-0.100190
6001,-2.647987,-1.484405,-6.876147,0.057423,-0.084469,-0.156413
6016,-2.983175,-1.510741,-6.856994,0.024381,-0.117377,-0.164807
6031,-3.028665,-1.290475,-6.873753,-0.012657,-0.144423,-0.142424
6046,-3.184288,-0.943315,-6.945579,-0.033041,-0.156946,-0.067282
6061,-3.378219,-0.869095,-7.036559,-0.072211,-0.077008,0.014522
6076,-3.452439,-0.797269,-7.129932,-0.091397,0.037838,0.088199
6091,-3.260903,-0.936133,-7.218518,-0.083536,0.073677,0.128302
6106,-2.868254,-1.113304,-7.115567,-0.065417,0.085801,0.095793
6121,-2.784456,-1.398214,-7.024588,-0.031709,0.075009,0.004796
6136,-2.712631,-1.563414,-7.089231,-0.004130,0.018386,-0.102188
6151,-2.889802,-1.505953,-6.895301,-0.014256,-0.027579,-0.167072
6166,-2.846706,-1.283292,-6.866570,-0.028645,-0.041568,-0.189721
6181,-2.844311,-0.806846,-6.849811,-0.010525,-0.090331,-0.173467
6196,-3.213019,-0.742203,-6.964733,0.007594,-0.121107,-0.124038
6211,-3.320758,-0.699107,-6.964733,-0.023982,-0.066083,-0.017054
6226,-3.344700,-0.502782,-7.022193,-0.056490,-0.007861,0.108051
6241,-3.272874,-0.275333,-7.223306,-0.053559,0.058089,0.205043
6256,-3.155558,-0.409408,-7.082048,-0.027446,0.082737,0.241149
6271,-3.057395,-0.871489,-6.962338,-0.002265,0.115778,0.218499
6286,-2.655170,-1.343147,-6.840234,0.032642,0.094727,0.120574
6301,-2.367865,-1.460463,-6.864176,0.088599,0.002265,-0.016654
6316,-2.626439,-1.946486,-6.792350,0.090864,-0.075276,-0.127902
6331,-2.971204,-1.795651,-6.892907,0.014389,-0.068481,-0.172668
6346,-3.019088,-1.285686,-6.768408,-0.011458,-0.114179,-0.166939
6361,-3.244143,-1.151611,-6.962338,-0.025314,-0.127369,-0.114712
6376,-3.251326,-0.933739,-6.868965,-0.058222,-0.010792,-0.004796
6391,-3.397372,-0.780510,-6.912060,-0.074210,0.021051,0.087933
6406,-3.287239,-0.639252,-6.897695,-0.060487,0.063818,0.141358
6421,-3.110068,-0.907402,-7.026982,0.007328,0.060221,0.119242
6436,-2.959233,-1.221043,-6.880936,0.053426,0.068081,0.046231
6451,-2.918532,-1.687912,-6.983886,0.072211,0.060221,-0.048496
6466,-2.853888,-1.932121,-7.003040,0.061153,-0.016254,-0.134297
6481,-2.839523,-1.821988,-6.969521,0.006395,-0.036772,-0.168671
6496,-2.908955,-1.498770,-6.830657,-0.023449,-0.067282,-0.171069
6511,-3.229778,-1.280898,-6.737284,-0.038504,-0.098724,-0.139093
6526,-3.160346,-0.622492,-6.701370,-0.024115,-0.109649,-0.062619
6541,-3.483563,-0.569820,-6.718130,-0.002265,-0.076874,0.029711
6556,-3.344700,-0.565032,-6.919243,-0.015455,0.001599,0.112580
6571,-3.404555,-0.538695,-6.969521,-0.004397,0.076475,0.159345
6586,-3.253720,-0.794875,-6.995857,0.034374,0.112714,0.152949
6601,-2.906561,-1.259350,-6.871359,0.055158,0.160144,0.084868
6616,-2.485181,-1.663970,-6.694188,0.084469,0.074077,-0.011991
6631,-2.511518,-1.898602,-6.756437,0.058089,-0.009060,-0.086867
6646,-2.894590,-1.766921,-6.651092,0.021850,-0.075409,-0.112181
6661,-2.918532,-1.453280,-6.665457,-0.004130,-0.124305,-0.115378
6676,-3.100491,-1.326388,-6.876147,-0.008527,-0.149086,-0.061420
6691,-3.174711,-1.340753,-6.777985,-0.023049,-0.145089,0.000933
6706,-3.682282,-1.453280,-6.878541,-0.056090,-0.073677,0.061819
6721,-3.342305,-1.374272,-6.852205,-0.089665,0.053559,0.075409
6736,-3.165135,-1.376666,-6.794744,-0.068081,0.055291,0.026779
6751,-3.002329,-1.417367,-6.986280,-0.052493,0.090864,-0.021051
6766,-3.093308,-1.467646,-6.907272,-0.054358,0.049828,-0.051560
6781,-3.098097,-1.223437,-6.789956,-0.052493,0.020518,-0.050894
6796,-3.114856,-1.139640,-6.902483,-0.054492,0.015988,-0.011591
6811,-3.136404,-1.043872,-6.710947,-0.047164,0.016787,0.036239
6826,-3.301604,-1.151611,-6.856994,-0.046098,0.030776,0.070613
6841,-3.268085,-1.235408,-6.921637,-0.088066,0.050495,0.120974
6856,-2.966416,-1.146823,-6.797139,-0.083003,0.042900,0.137361
6871,-2.868254,-1.438915,-6.890512,-0.072078,0.094594,0.094061
6886,-2.557007,-1.515530,-6.813898,-0.013456,0.041568,0.001865
6901,-2.796427,-1.740585,-6.744466,0.009326,-0.001865,-0.096193
6916,-2.691083,-1.580173,-6.708553,-0.001066,-0.053959,-0.164141
6931,-2.772485,-1.371878,-6.478710,-0.015055,-0.085934,-0.173600
6946,-2.918532,-1.213860,-6.600814,-0.033841,-0.092063,-0.144822
6961,-3.150769,-1.005565,-6.682217,-0.053426,-0.108717,-0.087000
6976,-3.184288,-0.787692,-6.777985,-0.059554,-0.098991,-0.006528
6991,-3.375824,-0.797269,-6.991069,-0.079539,-0.037838,0.076608
7006,-3.349488,-0.624887,-7.110779,-0.060753,-0.004930,0.118309
7021,-3.646369,-0.636858,-7.216124,-0.017453,0.039436,0.127636
7036,-3.378219,-0.814029,-7.175422,0.030243,0.083802,0.096992
7051,-3.088520,-1.211466,-7.031770,0.056224,0.089931,0.034107
7066,-2.947262,-1.470040,-6.861782,0.050095,0.026380,-0.022516
7081,-3.090914,-1.482011,-6.821081,0.017986,-0.045965,-0.046231
7096,-3.239355,-1.266533,-6.916849,-0.009326,-0.073943,-0.031842
7111,-3.347094,-1.170765,-7.031770,-0.025714,-0.066616,0.009593
7126,-3.478775,-1.005565,-7.029376,-0.034107,-0.027046,0.052093
7141,-3.581726,-1.077391,-7.096414,-0.029577,0.025714,0.084735
7156,-3.531447,-1.175553,-6.988675,-0.051161,0.096193,0.123372
7171,-3.126827,-1.163582,-6.916849,-0.053692,0.088332,0.132032
7186,-3.191471,-1.357512,-6.627150,-0.038237,0.084602,0.092063
7201,-2.966416,-1.453280,-6.718130,0.009060,0.047430,0.022116
7216,-2.999935,-1.613692,-6.754043,0.042634,-0.016121,-0.039570
7231,-3.043030,-1.640028,-6.813898,0.037704,-0.052760,-0.073677
7246,-3.232172,-1.611298,-6.821081,-0.001066,-0.043034,-0.072478
7261,-3.464410,-1.498770,-6.842628,-0.030243,0.006795,-0.039969
7276,-3.390190,-1.386243,-6.813898,-0.073677,0.051161,0.016920
7291,-3.215413,-0.974440,-6.730101,-0.078606,0.060221,0.073544
7306,-2.990358,-0.823605,-6.605602,-0.037038,0.034107,0.104587
7321,-3.129222,-0.912191,-6.756437,0.015055,0.009193,0.134164
7336,-3.157952,-0.802058,-6.756437,0.062086,-0.034907,0.160144
7351,-3.392584,-1.333570,-6.979098,0.070346,-0.019585,0.167205
7366,-3.038242,-1.460463,-7.015011,0.076475,0.032775,0.103654
7381,-2.995146,-1.810017,-6.828263,0.118975,-0.016654,-0.009992
7396,-3.110068,-1.987187,-6.914454,0.093528,-0.009326,-0.107784
7411,-2.985569,-0.830788,-6.734890,0.197982,-0.045965,-0.179995
7426,-3.201048,-1.450886,-6.969521,0.273257,-0.063951,-0.189188
7441,-2.973598,-1.429338,-6.703764,0.230357,-0.054891,-0.109783
7456,-3.332729,-1.618480,-6.845023,0.158012,-0.019319,-0.023715
7471,-3.232172,-2.109292,-6.809110,0.024648,0.001199,0.034640
7486,-3.220201,-2.133234,-7.091625,-0.174533,0.080072,0.083802
7501,-2.882619,-1.355118,-6.916849,-0.192519,0.026247,0.049429
7516,-3.119645,-1.185130,-6.856994,-0.117910,0.070479,-0.009459
7531,-3.062184,-1.089362,-6.703764,-0.021583,0.030776,-0.045565
7546,-2.918532,-1.192312,-6.622362,0.022383,0.011058,-0.046364
7561,-3.057395,-1.347936,-6.596025,0.012923,-0.023848,-0.005462
7576,-3.052607,-1.288080,-6.428432,-0.010658,-0.052493,0.036772
7591,-3.256114,-1.261744,-6.581660,-0.019585,-0.077141,0.063285
7606,-3.272874,-1.211466,-6.670246,-0.019185,-0.050628,0.070213
7621,-3.203442,-1.381454,-6.651092,-0.004263,-0.013057,0.047430
7636,-3.268085,-1.714248,-7.007828,-0.010658,0.019052,0.011325
7651,-3.349488,-1.905784,-6.931214,-0.053292,0.024648,-0.020118
7666,-3.289633,-1.778892,-6.880936,-0.127103,0.042234,-0.021450
7681,-3.066972,-1.453280,-6.871359,-0.126570,-0.009459,-0.027446
7696,-3.349488,-1.264138,-6.794744,-0.112181,0.004397,-0.008793
7711,-3.251326,-0.940921,-6.794744,-0.080205,-0.047697,0.031576
7726,-3.303998,-0.802058,-6.737284,-0.017853,-0.075009,0.076075
7741,-3.375824,-0.871489,-6.854599,0.041035,-0.091663,0.107518
7756,-3.500323,-1.072602,-6.868965,0.072345,-0.044366,0.122306
7771,-3.744531,-1.632846,-7.038953,0.039436,0.050361,0.132299
7786,-3.241749,-1.750161,-6.955156,0.009992,0.105386,0.089531
7801,-3.090914,-2.140416,-6.976704,-0.014123,0.069280,0.007727
7816,-2.973598,-2.070984,-6.799533,-0.028911,0.035573,-0.070613
7831,-3.361459,-2.142811,-6.835446,-0.040103,-0.007061,-0.134697
7846,-3.263297,-1.663970,-6.818686,-0.050761,-0.031176,-0.138028
7861,-3.294421,-1.486799,-6.687005,-0.041568,-0.049029,-0.108850
7876,-3.344700,-1.429338,-6.742072,-0.075142,-0.036905,-0.044632
7891,-3.464410,-1.127669,-6.780379,-0.096459,-0.027046,0.029311
7906,-3.526659,-0.912191,-6.742072,-0.081271,-0.020784,0.084602
7921,-3.404555,-0.849942,-6.766014,-0.042101,-0.001865,0.110315
7936,-3.313575,-1.113304,-6.777985,0.018652,0.030510,0.082204
7951,-3.174711,-1.532289,-6.876147,0.091663,0.050495,-0.005995
7966,-3.064578,-1.972822,-6.837840,0.117377,0.060887,-0.095527
7981,-3.076549,-2.126051,-6.737284,0.092729,-0.009992,-0.150951
7996,-3.232172,-2.164358,-6.780379,-0.002798,0.000533,-0.155747
8011,-3.438074,-1.692701,-6.713341,-0.083536,0.001066,-0.113513
8026,-3.454833,-1.352724,-6.572083,-0.123772,0.004263,-0.044766
8041,-3.325546,-1.007959,-6.629544,-0.128168,-0.013723,0.040502
8056,-3.251326,-0.727837,-6.670246,-0.113779,-0.010525,0.122173
8071,-3.406949,-0.658405,-6.756437,-0.046498,-0.003997,0.168937
8086,-3.430891,-0.837971,-6.902483,0.033841,0.031709,0.164674
8101,-3.303998,-1.539472,-6.900089,0.063551,0.104720,0.117110
8116,-2.791639,-1.795651,-6.718130,0.096459,0.088066,0.010792
8131,-2.887407,-2.178724,-6.715735,0.079806,0.039037,-0.084735
8146,-3.227384,-2.145205,-6.655880,0.010126,-0.026779,-0.116577
8161,-3.191471,-1.898602,-6.710947,-0.072877,-0.027979,-0.097792
8176,-3.203442,-1.393425,-6.782773,-0.094994,-0.046631,-0.056623
8191,-3.292027,-1.161188,-6.777985,-0.075409,-0.085668,0.009726
8206,-3.569755,-1.154005,-6.938396,-0.071012,-0.046231,0.078207
8221,-3.543418,-1.194707,-6.900089,-0.074343,-0.028778,0.121374
8236,-3.459621,-1.369483,-6.998251,-0.065949,0.033574,0.107118
8251,-3.349488,-1.580173,-7.031770,-0.049029,0.122306,0.039969
8266,-3.088520,-1.750161,-6.890512,-0.007861,0.101922,-0.047031
8281,-3.062184,-1.757344,-6.823475,-0.004130,0.056490,-0.103387
8296,-3.160346,-1.520318,-6.739678,-0.009060,-0.000666,-0.120308
8311,-3.303998,-1.338359,-6.742072,0.000000,-0.010925,-0.105519
8326,-3.483563,-1.340753,-6.801927,-0.009726,0.009459,-0.062352
8341,-3.605668,-1.328782,-6.837840,-0.051161,0.028245,0.005329
8356,-3.270479,-0.905008,-6.713341,-0.076208,0.066749,0.083536
8371,-3.229778,-0.900220,-6.653486,-0.039170,0.031975,0.130167
8386,-3.177106,-0.809240,-6.442797,-0.003464,0.053692,0.163475
8401,-3.299210,-1.204283,-6.576872,0.037172,0.046631,0.163608
8416,-3.016694,-1.513135,-6.691793,0.065949,0.044100,0.103920
8431,-2.911349,-2.126051,-6.773197,0.077940,0.028645,0.009060
8446,-2.973598,-2.389413,-6.854599,0.063685,-0.023315,-0.098591
8461,-3.306392,-2.456451,-6.880936,0.011325,-0.042234,-0.174666
8476,-3.344700,-2.183512,-6.816292,-0.059821,-0.025714,-0.191187
8491,-3.222595,-1.723825,-6.698976,-0.105119,-0.021983,-0.159478
8506,-3.138798,-1.450886,-6.701370,-0.118842,-0.056357,-0.109116
8521,-3.428497,-1.108515,-6.629544,-0.125504,-0.080072,-0.021317
8536,-3.361459,-0.780510,-6.665457,-0.077141,-0.105919,0.069547
8551,-3.550601,-0.763750,-6.847417,-0.025181,-0.083403,0.124172
8566,-3.507505,-0.746991,-6.900089,0.045698,-0.012391,0.146688
8581,-3.744531,-1.271321,-7.067683,0.085401,0.048363,0.141891
8596,-3.378219,-1.872266,-7.079654,0.071945,0.150152,0.088998
8611,-3.028665,-2.164358,-6.859388,0.068481,0.101522,-0.003997
8626,-2.925714,-2.365471,-6.782773,0.024648,0.076475,-0.082470
8641,-3.129222,-2.145205,-6.651092,-0.031576,0.021317,-0.122573
8656,-3.251326,-1.687912,-6.500257,-0.065816,-0.014522,-0.120574
8671,-3.332729,-1.446098,-6.615179,-0.076874,-0.025181,-0.087000
8686,-3.351882,-1.204283,-6.574478,-0.094727,-0.032642,-0.023715
8701,-3.466804,-0.890643,-6.813898,-0.072478,-0.048629,0.032242
8716,-3.689465,-0.864307,-6.660669,-0.014123,-0.040103,0.060887
8731,-3.643975,-1.204283,-6.995857,0.012524,0.019718,0.076608
8746,-3.265691,-1.355118,-6.945579,0.054625,0.074609,0.029044
8761,-3.344700,-1.927332,-7.005434,0.060087,0.100856,-0.025314
8776,-3.157952,-1.941698,-6.928820,0.029044,0.060753,-0.050228
8791,-3.244143,-1.860295,-6.818686,-0.019585,0.033708,-0.050228
8806,-3.078943,-1.668759,-6.734890,-0.040636,0.001599,-0.037038
8821,-3.196259,-1.493982,-6.677428,-0.032242,0.003198,-0.006795
8836,-3.268085,-1.400608,-6.622362,-0.007461,-0.033841,0.018786
8851,-3.373430,-1.515530,-6.562507,0.008260,-0.043567,0.039170
8866,-3.442862,-1.723825,-6.773197,-0.021317,0.011191,0.053959
8881,-3.330334,-1.778892,-6.813898,-0.028245,0.073277,0.039836
8896,-3.301604,-2.087744,-6.761226,-0.027579,0.106319,-0.008793
8911,-3.047819,-1.951274,-6.706159,-0.053959,0.097659,-0.044233
8926,-2.985569,-1.867477,-6.545747,-0.059688,0.052626,-0.073810
8941,-3.093308,-1.668759,-6.689399,-0.067015,0.023582,-0.075142
8956,-3.172317,-1.556231,-6.653486,-0.064351,-0.005862,-0.056090
8971,-3.363853,-1.395820,-6.605602,-0.050228,-0.002931,-0.025980
8986,-3.251326,-1.414973,-6.588843,-0.043833,0.008127,0.002132
9001,-3.189077,-1.350330,-6.703764,-0.024648,0.003198,0.014922
9016,-3.399766,-1.486799,-6.653486,-0.003464,0.008127,0.016121
9031,-3.270479,-1.513135,-6.782773,-0.013723,0.059155,0.023049
9046,-3.066972,-1.565808,-6.701370,0.003597,-0.005862,0.006395
9061,-3.031059,-1.869871,-6.770802,-0.012524,0.022783,-0.019851
9076,-3.066972,-1.850718,-6.636727,-0.012657,-0.033708,-0.050761
9091,-3.177106,-1.869871,-6.742072,-0.012391,-0.053692,-0.080472
9106,-3.402161,-1.735796,-6.766014,-0.031709,-0.033308,-0.088199
9121,-3.234566,-1.594538,-6.861782,-0.040502,-0.011858,-0.086600
9136,-3.356671,-1.491588,-6.900089,-0.067415,-0.013456,-0.060487
9151,-3.548207,-1.393425,-6.792350,-0.090997,-0.014389,-0.018253
9166,-3.567360,-1.185130,-6.868965,-0.104187,0.012124,0.031309
9181,-3.406949,-0.991199,-6.897695,-0.094194,0.037704,0.081671
9196,-3.497929,-1.067814,-6.981492,-0.079406,0.073011,0.110449
9211,-3.452439,-0.883460,-6.916849,-0.023982,0.114579,0.132432
9226,-3.447650,-1.015141,-6.837840,0.027979,0.104453,0.140825
9241,-3.160346,-1.467646,-6.809110,0.029977,0.159478,0.138960
9256,-2.913743,-1.814805,-6.708553,0.026247,0.143224,0.099524
9271,-2.794033,-2.044648,-6.483498,0.044899,0.071545,0.021717
9286,-2.863465,-2.097321,-6.600814,0.039703,0.002798,-0.054891
9301,-2.839523,-1.891419,-6.600814,0.028911,-0.079939,-0.097925
9316,-3.047819,-1.867477,-6.643909,0.011858,-0.112047,-0.097259
9331,-3.435679,-1.716643,-6.722918,-0.006928,-0.105919,-0.068348
9346,-3.720589,-1.637634,-6.840234,-0.049429,-0.059021,-0.003464
9361,-3.655946,-1.745373,-6.885724,-0.140426,0.049828,0.077807
9376,-3.258508,-1.350330,-6.833052,-0.155348,0.098325,0.127236
9391,-3.306392,-1.221043,-6.761226,-0.081671,0.109916,0.112047
9406,-3.189077,-1.438915,-6.801927,-0.002265,0.103521,0.062619
9421,-2.904167,-1.783680,-6.651092,0.052360,0.097392,-0.012790
9436,-2.851494,-2.020706,-6.849811,0.068081,0.009060,-0.077807
9451,-3.023877,-2.085350,-6.799533,0.024381,-0.044100,-0.104986
9466,-3.375824,-1.984793,-6.823475,-0.024381,-0.055025,-0.109916
9481,-3.248932,-1.764527,-6.746861,-0.066216,-0.037838,-0.089265
9496,-3.244143,-1.482011,-6.749255,-0.109250,-0.027579,-0.034907
9511,-3.387795,-1.206678,-6.837840,-0.132832,-0.014522,0.032375
9526,-3.485958,-1.067814,-6.883330,-0.103254,0.009459,0.074210
9541,-3.564966,-1.398214,-7.010222,-0.080472,0.055957,0.085268
9556,-3.081337,-1.304840,-6.895301,-0.053426,0.118975,0.065683
9571,-3.078943,-1.604115,-6.830657,0.007194,0.063018,-0.004663
9586,-3.081337,-1.929726,-6.928820,0.013057,0.082603,-0.067149
9601,-2.978387,-1.855506,-6.782773,0.000133,0.034374,-0.119242
9616,-2.949656,-1.807622,-6.679822,-0.017587,-0.002531,-0.143090
9631,-2.952051,-1.563414,-6.651092,-0.044632,-0.024381,-0.129101
9646,-3.052607,-1.338359,-6.430826,-0.054225,-0.063951,-0.087266
9661,-3.148375,-1.120486,-6.442797,-0.063551,-0.081804,-0.018119
9676,-3.356671,-1.137246,-6.615179,-0.093528,-0.074343,0.072345
9691,-3.708618,-0.976834,-6.734890,-0.102188,0.017853,0.147354
9706,-3.383007,-0.893037,-6.880936,-0.058622,0.060487,0.185458
9721,-3.335123,-1.039083,-6.971915,-0.041701,0.104587,0.210372
9736,-3.167529,-1.398214,-6.931214,-0.010259,0.146155,0.187456
9751,-3.057395,-1.819593,-6.734890,0.027179,0.106851,0.104986
9766,-2.798822,-2.130840,-6.710947,0.040236,0.057689,0.005329
9781,-2.782062,-2.185906,-6.710947,0.018919,-0.031709,-0.072611
9796,-2.944868,-1.968034,-6.684611,-0.016654,-0.087133,-0.109916
9811,-3.277662,-1.695095,-6.684611,-0.024115,-0.126436,-0.106452
9826,-3.435679,-1.474828,-6.777985,-0.012257,-0.117643,-0.075942
9841,-3.648763,-1.515530,-6.988675,-0.049429,-0.041568,-0.011058
9856,-3.485958,-1.448492,-7.036559,-0.085002,0.040236,0.056224
9871,-3.545813,-1.355118,-7.149086,-0.086734,0.083403,0.097259
9886,-3.356671,-1.431733,-6.933608,-0.071945,0.110848,0.076608
9901,-3.093308,-1.441309,-6.797139,-0.028245,0.083403,0.027179
9916,-2.918532,-1.647211,-6.660669,0.013856,0.027312,-0.026913
9931,-2.985569,-1.824382,-6.691793,0.031043,-0.018786,-0.065683
9946,-3.160346,-1.745373,-6.682217,0.033041,-0.067149,-0.087933
9961,-3.342305,-1.604115,-6.746861,0.019851,-0.067415,-0.080871
9976,-3.337517,-1.601721,-6.828263,-0.018253,-0.029444,-0.041835
9991,-3.593697,-1.400608,-6.926425,-0.055824,0.047164,0.009992
10006,-3.562572,-1.343147,-6.993463,-0.059688,0.093262,0.047697
10021,-3.423708,-1.218649,-6.943185,-0.036905,0.128568,0.065550
10036,-3.028665,-1.367089,-6.816292,-0.019985,0.136562,0.067415
10051,-2.968810,-1.695095,-6.758832,-0.011858,0.083536,0.038237
10066,-2.968810,-1.874660,-6.615179,-0.034107,0.058755,0.007594
10081,-2.899378,-1.695095,-6.646304,-0.027446,-0.013723,-0.024914
10096,-3.019088,-1.728614,-6.514623,-0.033974,-0.019319,-0.056090
10111,-3.095703,-1.539472,-6.588843,-0.044499,-0.044366,-0.054758
10126,-3.315969,-1.465251,-6.761226,-0.037838,-0.035573,-0.033708
10141,-3.390190,-1.403002,-6.763620,-0.043966,-0.021850,0.001599
10156,-3.272874,-1.393425,-6.801927,-0.060487,0.019851,0.035972
10171,-3.265691,-1.443704,-6.979098,-0.058622,0.027845,0.045432
10186,-3.260903,-1.575385,-6.988675,-0.059954,0.047830,0.035306
10201,-3.232172,-1.553837,-6.871359,-0.045832,0.041168,0.012524
10216,-3.102885,-1.515530,-6.780379,-0.032775,0.033308,-0.007461
10231,-3.112462,-1.491588,-6.761226,-0.020518,0.001599,-0.013723
10246,-3.270479,-1.592144,-6.866570,-0.020118,-0.004663,-0.010126
10261,-3.385401,-1.359907,-6.749255,-0.005995,0.000266,0.011591
10276,-3.423708,-1.522712,-6.931214,-0.003064,0.048763,0.024914
10291,-3.217807,-1.594538,-7.038953,-0.006262,0.077274,0.031842
10306,-3.222595,-1.702277,-6.938396,-0.002265,0.071279,0.009326
10321,-3.246537,-1.747767,-6.914454,-0.003997,0.047031,-0.018786
10336,-3.268085,-1.747767,-6.938396,-0.024515,0.057556,-0.042368
10351,-3.155558,-1.628057,-6.895301,-0.035440,0.066616,-0.051560
10366,-3.038242,-1.460463,-6.653486,-0.041168,0.050361,-0.037704
10381,-3.052607,-1.283292,-6.509834,-0.021450,0.013856,-0.019319
10396,-2.865859,-1.096544,-6.373365,0.017320,-0.047430,0.006395
10411,-2.930503,-1.316811,-6.548141,0.040103,-0.095260,0.038504
10426,-3.411737,-1.608904,-6.751649,0.007461,-0.036106,0.068214
10441,-3.426103,-1.781286,-6.878541,0.006129,0.019452,0.055291
10456,-3.390190,-2.092532,-7.201758,-0.026646,0.113113,0.009193
10471,-3.138798,-1.963245,-7.120356,-0.036639,0.114845,-0.031975
10486,-3.026271,-1.874660,-6.976704,-0.043034,0.093795,-0.058622
10501,-3.064578,-1.762132,-6.754043,-0.049962,0.071145,-0.062485
10516,-3.028665,-1.628057,-6.588843,-0.039037,0.013456,-0.048896
10531,-3.057395,-1.489193,-6.567295,-0.035706,0.003597,-0.027312
10546,-3.057395,-1.472434,-6.466739,-0.040103,-0.012657,0.000400
10561,-3.126827,-1.419762,-6.574478,-0.037438,-0.031709,0.025847
10576,-3.236961,-1.496376,-6.713341,-0.041835,0.011458,0.038104
10591,-3.028665,-1.450886,-6.801927,-0.014389,0.034507,0.008926
10606,-3.093308,-1.745373,-6.677428,-0.017720,0.045432,-0.010925
10621,-3.007117,-1.812411,-6.754043,-0.039703,0.015055,-0.030776
10636,-3.086126,-1.702277,-6.667851,-0.055957,-0.006928,-0.039436
10651,-3.004723,-1.561020,-6.665457,-0.044233,-0.053959,-0.031309
10666,-3.081337,-1.419762,-6.734890,-0.021583,-0.058755,-0.022250
10681,-3.246537,-1.539472,-6.744466,-0.012923,-0.053559,-0.009726
10696,-3.371036,-1.625663,-6.868965,-0.030776,-0.014389,0.015588
10711,-3.213019,-1.508347,-6.897695,-0.052360,0.010259,0.042767
10726,-3.215413,-1.491588,-6.835446,-0.051028,0.063418,0.041835
10741,-3.093308,-1.697489,-6.847417,-0.031043,0.070479,0.000933
10756,-3.045424,-1.745373,-6.864176,-0.033441,0.063951,-0.025714
10771,-2.892196,-1.711854,-6.725312,-0.032908,0.004663,-0.032242
10786,-2.992752,-1.685518,-6.617573,-0.059554,-0.005729,-0.013057
10801,-2.995146,-1.489193,-6.667851,-0.058355,-0.047697,-0.000400
10816,-3.258508,-1.458069,-6.806715,-0.036239,-0.041302,0.015188
10831,-3.323152,-1.343147,-6.852205,-0.029311,-0.040236,0.034907
10846,-3.143587,-1.285686,-6.859388,-0.010792,-0.029178,0.045165
10861,-3.335123,-1.376666,-6.780379,0.012257,-0.005196,0.042101
10876,-3.488352,-1.596933,-6.823475,0.006395,0.052760,0.051960
10891,-3.148375,-1.802834,-6.780379,-0.010792,0.082470,0.041835
10906,-2.990358,-1.953669,-6.856994,-0.031043,0.058755,0.002398
10921,-2.896984,-2.035071,-6.756437,-0.048763,0.005063,-0.035440
10936,-3.117250,-1.853112,-6.789956,-0.059554,-0.007994,-0.065550
10951,-3.076549,-1.647211,-6.665457,-0.044366,-0.050228,-0.079006
10966,-3.098097,-1.572991,-6.727706,-0.038504,-0.058222,-0.065417
10981,-3.172317,-1.462857,-6.708553,-0.058489,-0.045832,-0.024515
10996,-3.375824,-1.259350,-6.682217,-0.085668,-0.037305,0.038770
11011,-3.550601,-1.151611,-6.797139,-0.108583,0.011991,0.103787
11026,-3.423708,-0.878672,-6.825869,-0.069680,0.021184,0.131632
11041,-3.227384,-1.051054,-6.871359,-0.018652,0.049162,0.131499
11056,-3.191471,-1.386243,-6.902483,0.024381,0.091663,0.096726
11071,-3.050213,-1.735796,-6.840234,0.054092,0.058089,0.037438
11086,-3.047819,-1.932121,-6.902483,0.038104,0.021317,-0.011991
11101,-3.066972,-1.891419,-6.926425,0.019185,-0.016521,-0.057156
11116,-3.162740,-1.824382,-6.880936,-0.012391,-0.019319,-0.064084
11131,-3.344700,-1.673547,-6.801927,-0.046897,-0.014922,-0.034507
11146,-3.193865,-1.429338,-6.837840,-0.061020,-0.018652,0.020518
11161,-3.157952,-1.333570,-6.842628,-0.072345,-0.023848,0.075809
11176,-3.260903,-1.419762,-6.892907,-0.047963,-0.001199,0.103387
11191,-3.433285,-1.601721,-6.852205,-0.032109,0.043167,0.080472
11206,-3.229778,-1.671153,-6.837840,-0.008260,0.055557,0.032775
11221,-3.138798,-1.747767,-6.885724,0.000133,0.040369,-0.013323
11236,-2.983175,-1.774103,-6.775591,0.005596,0.014522,-0.051560
11251,-3.311181,-1.829170,-6.789956,-0.006795,0.002531,-0.067948
11266,-3.354276,-1.733402,-6.689399,-0.017720,-0.015322,-0.057156
11281,-3.318363,-1.687912,-6.586449,-0.040902,0.012124,-0.039303
11296,-3.351882,-1.673547,-6.816292,-0.059421,0.023315,-0.018652
11311,-3.354276,-1.414973,-6.758832,-0.076208,0.053559,0.014655
11326,-3.263297,-1.467646,-6.677428,-0.065683,0.012391,0.031576
11341,-3.236961,-1.465251,-6.718130,-0.062752,0.042368,0.045432
11356,-3.098097,-1.362301,-6.768408,-0.043833,0.010259,0.056224
11371,-3.191471,-1.584962,-6.646304,-0.031309,0.028378,0.054758
11386,-3.136404,-1.675941,-6.722918,-0.008260,0.027179,0.021450
11401,-3.114856,-1.769315,-6.737284,0.006528,0.029711,-0.022250
11416,-3.110068,-1.889025,-6.909666,-0.010792,0.035706,-0.055957
11431,-3.177106,-1.802834,-6.940791,-0.056757,0.048496,-0.065816
11446,-3.347094,-1.632846,-6.806715,-0.092995,0.062752,-0.055291
11461,-3.134010,-1.367089,-6.823475,-0.097392,0.044632,-0.034507
11476,-3.066972,-1.247379,-6.768408,-0.098858,0.052227,-0.011058
11491,-3.078943,-1.204283,-6.665457,-0.100723,0.042234,0.027845
11506,-3.023877,-1.175553,-6.545747,-0.090730,0.016787,0.054758
11521,-2.971204,-1.221043,-6.387730,-0.050095,-0.021717,0.054758
11536,-2.947262,-1.446098,-6.481104,-0.042234,-0.043567,0.052227
11551,-2.889802,-1.323994,-6.648698,-0.027979,-0.074876,0.040769
11566,-3.236961,-1.304840,-6.591237,0.007994,-0.081404,0.025047
11581,-3.344700,-1.345541,-6.725312,0.030776,-0.033175,0.013190
11596,-3.335123,-1.673547,-6.979098,0.034507,0.024381,0.013856
11611,-3.045424,-1.841141,-6.926425,0.011191,0.024781,0.001865
11626,-3.217807,-1.891419,-6.967127,-0.011058,0.021184,-0.014655
11641,-3.165135,-1.898602,-6.926425,-0.039303,0.014522,-0.028511
11656,-3.088520,-1.735796,-6.763620,-0.061819,-0.005729,-0.034907
11671,-3.141193,-1.644817,-6.672640,-0.067815,-0.026380,-0.031975
11686,-3.239355,-1.520318,-6.770802,-0.077807,-0.038504,-0.010392
11701,-3.335123,-1.285686,-6.732495,-0.061153,-0.050361,0.014389
11716,-3.366247,-1.161188,-6.751649,-0.026380,-0.053559,0.035839
11731,-3.277662,-1.137246,-6.811504,0.004397,-0.019585,0.049029
11746,-3.272874,-1.259350,-6.864176,0.013590,0.008394,0.065283
11761,-3.426103,-1.398214,-6.885724,0.008127,0.019052,0.073677
11776,-3.282450,-1.460463,-6.861782,0.027046,0.044366,0.050495
11791,-3.189077,-1.707066,-6.907272,0.037704,0.048629,0.013723
11806,-3.047819,-1.879448,-6.888118,0.010658,0.030776,-0.007461
11821,-3.224990,-1.908179,-6.912060,-0.030243,0.000533,-0.015588
11836,-3.390190,-1.704672,-6.813898,-0.054492,-0.006129,-0.006928
11851,-3.361459,-1.577779,-6.825869,-0.067815,0.015055,0.005995
11866,-3.308787,-1.503559,-6.708553,-0.077141,0.022383,0.024515
11881,-3.213019,-1.503559,-6.727706,-0.075542,0.017320,0.046364
11896,-3.129222,-1.156399,-6.574478,-0.042101,-0.019185,0.062752
11911,-3.071761,-1.225831,-6.648698,0.009326,-0.044499,0.058888
11926,-3.186682,-1.484405,-6.746861,0.020518,-0.039570,0.049828
11941,-3.397372,-1.618480,-6.708553,0.037971,-0.007061,0.017720
11956,-3.462016,-1.939303,-6.785168,0.019052,0.038237,-0.007461
11971,-3.239355,-1.774103,-6.880936,-0.024248,0.040502,-0.016387
11986,-3.210624,-1.616086,-6.809110,-0.031842,0.022116,-0.019585
12001,-3.272874,-1.632846,-6.845023,-0.019718,-0.019585,-0.017320
12016,-3.359065,-1.616086,-6.859388,-0.017587,-0.033175,0.005995
12031,-3.361459,-1.613692,-6.794744,-0.039969,-0.027712,0.036905
12046,-3.332729,-1.565808,-6.754043,-0.051960,-0.017320,0.050495
12061,-3.459621,-1.431733,-6.770802,-0.053825,0.025847,0.059021
12076,-3.380613,-1.304840,-6.804321,-0.019185,0.033974,0.055025
12091,-3.318363,-1.381454,-6.727706,-0.002398,0.032375,0.067815
12106,-3.153164,-1.623269,-6.801927,0.001066,0.054492,0.046498
12121,-3.155558,-1.742979,-6.730101,0.009992,0.006795,0.007461
12136,-3.280056,-1.877054,-6.806715,-0.010792,-0.002531,-0.023182
12151,-3.186682,-1.776498,-6.797139,-0.035306,-0.018519,-0.041568
12166,-3.126827,-1.532289,-6.730101,-0.026646,-0.050095,-0.054358
12181,-3.263297,-1.479617,-6.768408,-0.008394,-0.055557,-0.052227
12196,-3.555389,-1.417367,-6.782773,0.001865,-0.051294,-0.030910
12211,-3.593697,-1.486799,-6.981492,-0.023582,0.019985,0.011191
12226,-3.354276,-1.376666,-7.038953,-0.049162,0.043300,0.050894
12241,-3.406949,-1.283292,-7.079654,-0.059288,0.084335,0.075276
12256,-3.394978,-1.302446,-6.842628,-0.043034,0.080472,0.078606
12271,-3.122039,-1.405396,-6.708553,0.012524,0.085268,0.041968
12286,-3.100491,-1.965640,-6.682217,0.028112,0.074876,-0.019185
12301,-2.954445,-2.188300,-6.739678,0.000000,0.040769,-0.084202
12316,-3.086126,-2.281674,-6.706159,-0.039303,0.012257,-0.140026
12331,-3.177106,-2.173935,-6.698976,-0.063418,-0.024648,-0.190387
12346,-3.229778,-1.845930,-6.679822,-0.081138,-0.046498,-0.207441
12361,-3.248932,-1.551443,-6.732495,-0.095394,-0.060887,-0.174933
12376,-3.433285,-1.256956,-6.665457,-0.118043,-0.044100,-0.093795
12391,-3.634398,-0.890643,-6.739678,-0.113113,-0.038504,0.004397
12406,-3.622427,-0.608127,-6.837840,-0.092729,0.015988,0.096992
12421,-3.414132,-0.313640,-6.782773,-0.007727,0.061420,0.160277
12436,-3.404555,-0.691924,-6.811504,0.087000,0.072345,0.190654
12451,-3.440468,-1.225831,-6.878541,0.106851,0.150951,0.184126
12466,-2.956839,-1.786074,-6.624756,0.126570,0.108850,0.103920
12481,-2.667141,-2.466028,-6.651092,0.097525,0.096726,-0.009459
12496,-2.748544,-2.621651,-6.488286,0.047297,-0.003331,-0.108317
12511,-3.045424,-2.468422,-6.545747,-0.026913,-0.060753,-0.158279
12526,-3.129222,-2.080561,-6.579266,-0.083270,-0.099657,-0.155081
12541,-3.205836,-1.549048,-6.509834,-0.098325,-0.109116,-0.110582
12556,-3.552995,-1.247379,-6.701370,-0.103254,-0.086201,-0.019585
12571,-3.727772,-1.086968,-6.806715,-0.101256,-0.019985,0.076075
12586,-3.632004,-0.895431,-6.945579,-0.070746,0.025181,0.141758
12601,-3.418920,-0.924162,-6.988675,-0.017986,0.080738,0.161343
12616,-3.165135,-1.364695,-6.816292,0.045432,0.097259,0.117243
12631,-3.186682,-1.865083,-6.777985,0.090864,0.100590,0.024115
12646,-2.995146,-2.159570,-6.730101,0.075009,0.040502,-0.047697
12661,-3.016694,-2.147599,-6.742072,0.019985,-0.040103,-0.077541
12676,-3.148375,-1.900996,-6.696582,-0.025580,-0.086600,-0.075542
12691,-3.473987,-1.666364,-6.751649,-0.057156,-0.075542,-0.037038
12706,-3.725378,-1.515530,-6.833052,-0.080738,-0.019985,0.031709
12721,-3.538630,-1.367089,-6.943185,-0.097925,0.060753,0.105119
12736,-3.265691,-1.288080,-6.897695,-0.097392,0.050228,0.152150
12751,-3.318363,-1.175553,-6.746861,-0.077541,0.061953,0.162142
12766,-3.483563,-1.367089,-6.830657,-0.056490,0.067815,0.154548
12781,-3.055001,-1.510741,-6.694188,-0.018786,0.074609,0.111115
12796,-2.980781,-1.778892,-6.643909,0.026113,0.091530,0.018786
12811,-2.995146,-2.154782,-6.715735,0.050894,0.038104,-0.073544
12826,-3.088520,-2.171541,-6.617573,0.034907,0.000133,-0.126436
12841,-3.100491,-1.965640,-6.576872,-0.004130,-0.021983,-0.135230
12856,-3.100491,-1.711854,-6.454768,-0.029178,-0.059155,-0.104720
12871,-3.244143,-1.529895,-6.560112,-0.050761,-0.055824,-0.047164
12886,-3.490746,-1.393425,-6.591237,-0.075142,-0.055291,0.029044
12901,-3.490746,-1.201889,-6.713341,-0.096726,-0.042101,0.096992
12916,-3.526659,-0.991199,-6.904878,-0.070346,0.010126,0.127502
12931,-3.500323,-1.189918,-7.036559,-0.023449,0.043034,0.121240
12946,-3.471592,-1.551443,-7.034164,0.012524,0.099524,0.072478
12961,-3.284845,-1.786074,-6.816292,0.044499,0.067548,0.018919
12976,-3.138798,-1.927332,-6.725312,0.028645,0.066083,-0.012790
12991,-3.145981,-1.941698,-6.737284,-0.009060,0.028511,-0.023715
13006,-3.129222,-1.795651,-6.679822,-0.026113,-0.008260,-0.019585
13021,-3.313575,-1.678335,-6.639121,-0.017853,-0.017187,-0.029711
13036,-3.126827,-1.716643,-6.754043,-0.000533,-0.033041,-0.045565
13051,-3.210624,-1.740585,-6.734890,-0.004263,-0.039037,-0.048629
13066,-3.351882,-1.690306,-6.744466,-0.022783,-0.023049,-0.047697
13081,-3.473987,-1.393425,-6.797139,-0.021450,0.013057,-0.031443
13096,-3.485958,-1.142034,-6.842628,0.018652,0.043034,-0.008527
13111,-3.414132,-1.142034,-6.770802,0.042368,0.090464,0.039836
13126,-3.239355,-0.201113,-6.639121,0.168138,0.119242,0.066749
13141,-3.435679,-1.388637,-6.593631,0.302968,0.034907,0.076741
13156,-3.062184,-2.403779,-6.670246,0.155614,0.097792,0.147753
13171,-3.095703,-2.700660,-6.457162,-0.030510,0.004397,0.142424
13186,-2.753332,-2.576161,-6.619967,-0.144689,-0.008926,0.069014
13201,-3.031059,-2.231396,-6.562507,-0.122040,-0.071412,-0.053026
13216,-3.095703,-1.932121,-6.663063,-0.045698,-0.077407,-0.158145
13231,-3.220201,-1.929726,-6.823475,-0.003064,-0.088865,-0.200247
13246,-3.457227,-1.927332,-6.909666,-0.030776,-0.075942,-0.164008
13261,-3.725378,-1.788469,-6.890512,-0.092862,-0.018519,-0.072345
13276,-3.715801,-1.376666,-6.739678,-0.128435,0.011724,0.029044
13291,-3.557784,-1.055843,-6.880936,-0.122839,0.044632,0.106718
13306,-3.457227,-0.960075,-6.919243,-0.068081,0.053692,0.148420
13321,-3.531447,-1.256956,-6.835446,-0.027845,0.083003,0.155348
13336,-3.198653,-1.642422,-6.653486,0.021184,0.080871,0.101655
13351,-3.114856,-2.161964,-6.718130,0.015322,0.061420,0.025314
13366,-2.894590,-2.305616,-6.689399,-0.012657,0.021850,-0.052227
13381,-3.093308,-2.329558,-6.663063,-0.036639,-0.047297,-0.114845
13396,-3.229778,-1.941698,-6.588843,-0.039436,-0.088998,-0.146421
13411,-3.366247,-1.692701,-6.696582,-0.024115,-0.091263,-0.150285
13426,-3.459621,-1.673547,-6.785168,-0.040103,-0.077008,-0.091663
13441,-3.778050,-1.570596,-6.854599,-0.111515,-0.020118,0.014655
13456,-3.794810,-1.244985,-7.055712,-0.166939,0.075142,0.125371
13471,-3.651158,-1.106121,-7.103596,-0.164807,0.121107,0.192119
13486,-3.287239,-0.711078,-6.974309,-0.100456,0.160943,0.223828
13501,-3.335123,-0.907402,-6.763620,-0.016654,0.149485,0.220098
13516,-3.160346,-1.405396,-6.730101,0.014522,0.158279,0.191453
13531,-2.760514,-1.817199,-6.557718,0.056224,0.130300,0.103254
13546,-2.585738,-2.315193,-6.617573,0.072211,0.032375,-0.017720
13561,-2.774880,-2.518700,-6.543353,0.037971,-0.075009,-0.105919
13576,-3.205836,-2.152387,-6.588843,-0.003064,-0.119775,-0.153749
13591,-3.447650,-1.908179,-6.785168,-0.013323,-0.098591,-0.153216
13606,-3.383007,-1.697489,-6.756437,-0.030377,-0.064484,-0.108184
13621,-3.591302,-1.635240,-6.833052,-0.080472,-0.009060,-0.027446
13636,-3.497929,-1.438915,-6.873753,-0.129234,0.053559,0.054758
13651,-3.356671,-1.352724,-6.840234,-0.123106,0.084469,0.083403
13666,-3.174711,-1.326388,-6.708553,-0.053159,0.067815,0.041302
13681,-3.181894,-1.529895,-6.754043,0.019718,0.041568,-0.015588
13696,-3.043030,-1.628057,-6.564901,0.041835,-0.005729,-0.047830
13711,-3.117250,-1.699883,-6.615179,0.018119,-0.046098,-0.044366
13726,-3.272874,-1.659182,-6.512228,-0.012657,-0.070346,-0.019851
13741,-3.303998,-1.577779,-6.598420,-0.006262,-0.090997,-0.002265
13756,-3.313575,-1.503559,-6.694188,0.016654,-0.097925,-0.012257
13771,-3.557784,-1.702277,-6.833052,0.030776,-0.047031,-0.032109
13786,-3.445256,-2.006341,-7.062895,0.002798,0.062885,-0.043833
13801,-3.524265,-2.027889,-6.883330,-0.057423,0.056890,-0.037704
13816,-3.275268,-1.620875,-6.730101,-0.100456,0.061286,-0.023049
13831,-3.105279,-1.350330,-6.701370,-0.076075,0.022916,-0.006928
13846,-3.057395,-1.225831,-6.483498,-0.015855,-0.022783,0.024781
13861,-3.337517,-1.278504,-6.502652,0.037305,-0.060620,0.059155
13876,-3.344700,-1.393425,-6.531382,0.061953,-0.061819,0.087799
13891,-3.414132,-1.673547,-6.598420,0.047297,-0.056757,0.109383
13906,-3.493140,-2.020706,-6.895301,-0.000266,0.032109,0.091397
13921,-3.464410,-2.214637,-6.866570,0.005729,0.081671,0.008793
13936,-3.224990,-2.513912,-6.780379,-0.005862,0.106452,-0.076741
13951,-3.038242,-2.511518,-6.636727,-0.044499,0.023315,-0.139360
13966,-3.038242,-2.207454,-6.540959,-0.079672,-0.043433,-0.165740
13981,-3.347094,-1.867477,-6.538565,-0.088998,-0.079939,-0.156680
13996,-3.450045,-1.714248,-6.641515,-0.110315,-0.089665,-0.091530
14011,-3.603273,-1.357512,-6.768408,-0.133764,-0.065550,-0.010925
14026,-3.658340,-1.110910,-6.904878,-0.114446,-0.019585,0.058222
14041,-3.675100,-1.000776,-6.981492,-0.065283,0.045565,0.100456
14056,-3.737349,-1.168370,-6.964733,-0.026513,0.110315,0.113380
14071,-3.347094,-1.175553,-6.868965,-0.008260,0.124172,0.115245
14086,-3.155558,-1.508347,-6.665457,-0.025314,0.102988,0.119908
14101,-2.904167,-1.723825,-6.548141,-0.007594,0.088998,0.057822
14116,-2.908955,-2.123657,-6.495469,0.022116,-0.019585,-0.033175
14131,-2.940080,-2.140416,-6.502652,0.002531,-0.070080,-0.100456
14146,-3.234566,-2.157176,-6.665457,-0.023315,-0.090198,-0.130300
14161,-3.246537,-1.905784,-6.797139,-0.041568,-0.091130,-0.127902
14176,-3.648763,-1.719037,-6.845023,-0.059554,-0.069280,-0.090864
14191,-3.682282,-1.450886,-6.914454,-0.094727,0.002265,-0.015855
14206,-3.691859,-1.302446,-7.041347,-0.120708,0.040502,0.066349
14221,-3.624821,-0.938527,-6.964733,-0.108983,0.104320,0.120041
14236,-3.447650,-0.852336,-6.909666,-0.032508,0.104320,0.144423
14251,-3.368642,-1.034295,-6.651092,0.034640,0.090597,0.146688
14266,-3.239355,-1.424550,-6.545747,0.029977,0.107651,0.142291
14281,-2.906561,-1.752556,-6.631938,0.046498,0.046098,0.087666
14296,-2.906561,-2.276886,-6.557718,0.044366,0.010525,-0.007727
14311,-2.925714,-2.377442,-6.629544,0.041835,-0.085668,-0.105786
14326,-3.217807,-2.317587,-6.780379,0.009459,-0.107518,-0.161876
14341,-3.327940,-2.154782,-6.722918,-0.034773,-0.093395,-0.172268
14356,-3.696647,-1.941698,-6.955156,-0.076075,-0.057689,-0.130300
14371,-3.854665,-1.534683,-7.046135,-0.116178,0.051161,-0.037305
14386,-3.576937,-1.206678,-6.928820,-0.133364,0.070479,0.050761
14401,-3.550601,-0.914585,-6.938396,-0.112847,0.102055,0.117377
14416,-3.368642,-0.627281,-6.777985,-0.015188,0.087533,0.150018
14431,-3.445256,-1.122881,-6.758832,0.072744,0.073943,0.140159
14446,-3.203442,-1.833959,-6.775591,0.087533,0.112181,0.099657
14461,-2.841917,-2.099715,-6.574478,0.093795,0.040769,0.002531
14476,-3.069366,-2.506729,-6.677428,0.055291,-0.003331,-0.079273
14491,-3.184288,-2.236184,-6.639121,0.014922,-0.056357,-0.127103
14506,-3.277662,-1.991976,-6.655880,-0.000533,-0.065550,-0.144689
14521,-3.275268,-1.640028,-6.758832,0.015188,-0.087133,-0.127103
14536,-3.694253,-1.541866,-6.737284,-0.008394,-0.020118,-0.059821
14551,-3.782839,-1.558625,-6.900089,-0.050228,0.034107,0.034374
14566,-3.828328,-1.391031,-6.928820,-0.112714,0.130300,0.119775
14581,-3.354276,-1.089362,-6.873753,-0.114179,0.162675,0.174000
14596,-3.189077,-0.854730,-6.809110,-0.004397,0.109250,0.162809
14611,-3.380613,-1.400608,-6.833052,0.055824,0.116577,0.145222
14626,-3.059790,-1.948880,-6.706159,0.057956,0.132165,0.094461
14641,-2.820369,-2.379837,-6.622362,0.052227,0.083403,0.001332
14656,-2.724602,-2.626439,-6.564901,0.022383,-0.001865,-0.090597
14671,-3.028665,-2.473210,-6.514623,-0.029178,-0.059421,-0.145355
14686,-3.294421,-2.056619,-6.691793,-0.048496,-0.087000,-0.170003
14701,-3.440468,-1.774103,-6.708553,-0.043833,-0.048363,-0.152816
14716,-3.440468,-1.728614,-6.823475,-0.081671,-0.003064,-0.075009
14731,-3.643975,-1.690306,-6.895301,-0.147221,0.026646,0.018386
14746,-3.445256,-1.110910,-6.797139,-0.141625,0.072744,0.092196
14761,-3.335123,-1.031901,-6.811504,-0.074210,0.077674,0.119375
14776,-3.196259,-1.371878,-6.732495,-0.006928,0.098058,0.094461
14791,-2.944868,-1.673547,-6.619967,0.051560,0.084335,0.030377
14806,-3.069366,-2.039860,-6.493075,0.056490,0.020651,-0.026113
14821,-2.987964,-2.025495,-6.514623,0.010658,-0.004663,-0.045432
14836,-3.205836,-1.881842,-6.675034,-0.017720,-0.022383,-0.049695
14851,-3.234566,-1.869871,-6.627150,-0.035306,-0.012790,-0.035173
14866,-3.406949,-1.905784,-6.749255,-0.066216,-0.008260,0.003864
14881,-3.323152,-1.750161,-6.687005,-0.125904,0.028112,0.050761
14896,-3.157952,-1.429338,-6.761226,-0.137761,0.025847,0.072211
14911,-3.201048,-1.326388,-6.809110,-0.102188,0.037838,0.070746
14926,-3.289633,-1.113304,-6.718130,-0.028511,0.037305,0.072211
14941,-3.292027,-1.316811,-6.754043,0.030243,0.013856,0.076608
14956,-3.227384,-1.462857,-6.675034,0.027579,0.037571,0.095926
14971,-3.181894,-1.745373,-6.689399,0.008926,0.025714,0.098058
14986,-3.122039,-2.042254,-6.677428,0.001599,0.031043,0.052893
15001,-3.136404,-2.135628,-6.691793,0.023182,-0.000533,-0.031043
15016,-3.019088,-2.276886,-6.675034,0.021184,-0.023715,-0.092862
15031,-3.236961,-2.308010,-6.751649,-0.016387,-0.022516,-0.114579
15046,-3.536236,-2.094926,-6.799533,-0.057289,0.007328,-0.117110
15061,-3.423708,-1.927332,-6.629544,-0.074077,0.026113,-0.096060
15076,-3.227384,-1.810017,-6.548141,-0.121107,0.025447,-0.047297
15091,-3.023877,-1.443704,-6.478710,-0.143357,-0.011458,0.002531
15106,-3.339911,-1.194707,-6.512228,-0.113913,-0.023449,0.039170
15121,-3.354276,-0.943315,-6.440403,-0.028245,-0.041435,0.058489
15136,-3.342305,-1.209072,-6.579266,0.041568,-0.012790,0.053026
15151,-3.145981,-1.575385,-6.655880,0.073011,0.009326,0.028245
15166,-3.148375,-1.982399,-6.811504,0.069680,0.010925,-0.002531
15181,-3.366247,-2.197877,-6.816292,-0.006928,0.021850,-0.014789
15196,-3.162740,-1.924938,-6.835446,-0.061553,-0.019052,-0.016387
15211,-3.234566,-1.812411,-6.763620,-0.080605,-0.025047,-0.005596
15226,-3.253720,-1.611298,-6.777985,-0.073943,-0.008527,0.009859
15241,-3.406949,-1.572991,-6.701370,-0.066482,0.000133,0.034773
15256,-3.335123,-1.611298,-6.682217,-0.054092,-0.001066,0.043833
15271,-3.232172,-1.745373,-6.775591,-0.058489,0.032908,0.040769
15286,-2.992752,-1.584962,-6.739678,-0.028911,0.027845,0.004796
15301,-3.272874,-1.889025,-6.854599,-0.013989,0.027845,-0.035040
15316,-3.232172,-1.812411,-6.715735,-0.044366,0.001066,-0.035040
15331,-3.275268,-1.628057,-6.797139,-0.079406,0.000000,-0.018519
15346,-3.318363,-1.496376,-6.749255,-0.089265,-0.002665,0.005329
15361,-3.361459,-1.450886,-6.722918,-0.093129,0.011991,0.039570
15376,-3.335123,-1.403002,-6.761226,-0.086734,-0.000266,0.071412
15391,-3.244143,-1.381454,-6.653486,-0.071945,0.018919,0.078606
15406,-3.203442,-1.525106,-6.734890,-0.022383,0.020384,0.038237
15421,-3.169923,-1.886631,-6.749255,0.008527,0.020384,-0.033175
15436,-3.224990,-2.224213,-6.754043,-0.003198,-0.006528,-0.097925
15451,-3.191471,-2.267309,-6.890512,-0.052227,-0.010925,-0.137495
15466,-3.191471,-1.900996,-6.785168,-0.058489,-0.054092,-0.152283
15481,-3.519476,-1.826776,-6.854599,-0.067815,-0.012790,-0.133364
15496,-3.442862,-1.570596,-6.682217,-0.076874,0.017320,-0.078606
15511,-3.327940,-1.230620,-6.524199,-0.072744,0.001466,-0.005729
15526,-3.287239,-1.185130,-6.612785,-0.044899,-0.015721,0.065017
15541,-3.356671,-1.051054,-6.569689,-0.006395,-0.024115,0.110848
15556,-3.440468,-1.118092,-6.574478,0.049162,-0.019851,0.126303
15571,-3.473987,-1.393425,-6.777985,0.052093,0.031576,0.130167
15586,-3.210624,-1.853112,-6.868965,0.036639,0.067415,0.096060
15601,-2.985569,-2.221819,-6.648698,0.038637,0.028112,0.000799
15616,-3.136404,-2.504335,-6.734890,-0.001732,-0.006662,-0.086734
15631,-3.114856,-2.312799,-6.687005,-0.061686,-0.040636,-0.122173
15646,-3.177106,-1.932121,-6.687005,-0.087666,-0.088332,-0.123639
15661,-3.390190,-1.628057,-6.651092,-0.096193,-0.070080,-0.088599
15676,-3.579331,-1.381454,-6.797139,-0.090464,-0.061953,-0.027712
15691,-3.524265,-1.149217,-6.698976,-0.072611,-0.032908,0.040902
15706,-3.548207,-1.029507,-6.864176,-0.034773,-0.022916,0.092995
15721,-3.505111,-0.995988,-6.890512,0.009859,0.025447,0.116178
15736,-3.512294,-1.223437,-6.976704,0.049962,0.030776,0.123372
15751,-3.399766,-1.580173,-6.868965,0.031842,0.071812,0.121907
15766,-3.268085,-1.867477,-6.665457,0.028112,0.065683,0.073410
15781,-3.124433,-2.126051,-6.698976,0.027579,0.042234,-0.005462
15796,-3.332729,-2.336741,-6.718130,-0.001199,-0.001332,-0.067681
15811,-3.318363,-2.066196,-6.619967,-0.038237,-0.011724,-0.096726
15826,-3.323152,-1.838747,-6.677428,-0.027579,-0.043833,-0.091397
15841,-3.383007,-1.769315,-6.607996,-0.035573,-0.035573,-0.051560
15856,-3.454833,-1.556231,-6.636727,-0.062352,-0.009859,0.014389
15871,-3.581726,-1.441309,-6.651092,-0.068348,-0.008394,0.075009
15886,-3.564966,-1.355118,-6.782773,-0.067149,0.035573,0.108450
15901,-3.435679,-1.237802,-6.737284,-0.031576,0.062086,0.108717
15916,-3.426103,-1.484405,-6.706159,-0.002531,0.069680,0.099657
15931,-3.272874,-1.757344,-6.691793,0.010792,0.081404,0.063685
15946,-3.007117,-2.023100,-6.567295,0.030776,0.027579,0.001066
15961,-2.952051,-2.248155,-6.543353,-0.002798,-0.006662,-0.042900
15976,-3.138798,-2.161964,-6.502652,-0.034374,-0.054625,-0.072478
15991,-3.296816,-1.965640,-6.485892,-0.047164,-0.068481,-0.087133
16006,-3.433285,-1.656788,-6.612785,-0.031842,-0.070746,-0.083403
16021,-3.548207,-1.625663,-6.670246,-0.023049,-0.049029,-0.049429
16036,-3.423708,-1.544260,-6.703764,-0.046498,-0.039436,-0.003331
16051,-3.703830,-1.347936,-6.854599,-0.072078,0.009726,0.045165
16066,-3.519476,-1.304840,-6.842628,-0.063951,0.020917,0.074343
16081,-3.371036,-1.158794,-6.916849,-0.033441,0.054492,0.082737
16096,-3.373430,-1.170765,-6.821081,0.014123,0.042767,0.086867
16111,-3.464410,-1.221043,-6.770802,0.040636,0.025314,0.102055
16126,-3.442862,-1.297657,-6.739678,0.043833,0.016254,0.138427
16141,-3.323152,-1.565808,-6.660669,0.022116,0.042234,0.160011
16156,-3.141193,-1.896208,-6.586449,0.028778,0.040103,0.119508
16171,-3.258508,-2.451663,-6.617573,0.014389,0.049962,0.045165
16186,-3.258508,-2.817975,-6.696582,-0.044366,0.054358,-0.041302
16201,-3.014300,-2.707842,-6.567295,-0.075276,0.012657,-0.143757
16216,-3.086126,-2.501941,-6.648698,-0.092729,-0.009593,-0.213703
16231,-3.323152,-2.173935,-6.607996,-0.093795,-0.056623,-0.246478
16246,-3.483563,-1.831564,-6.584054,-0.097525,-0.067282,-0.227426
16261,-3.512294,-1.501164,-6.560112,-0.094994,-0.083669,-0.163741
16276,-3.591302,-1.115698,-6.493075,-0.090198,-0.073410,-0.064884
16291,-3.818752,-0.866701,-6.610391,-0.066083,-0.039436,0.041302
16306,-3.840299,-0.737414,-6.744466,-0.007328,0.030377,0.117910
16321,-3.660734,-0.667982,-6.811504,0.083536,0.054758,0.154415
16336,-3.591302,-1.101333,-6.950367,0.102188,0.083536,0.190387
16351,-3.521871,-1.711854,-6.868965,0.062352,0.122706,0.178930
16366,-3.253720,-2.274492,-6.663063,0.045832,0.129767,0.080605
16381,-2.839523,-2.612074,-6.600814,0.029711,0.100723,-0.043300
16396,-2.834735,-2.688689,-6.622362,-0.020518,-0.010392,-0.134963
16411,-3.047819,-2.360683,-6.593631,-0.083802,-0.071279,-0.180262
16426,-3.529053,-2.123657,-6.543353,-0.122040,-0.066349,-0.177064
16441,-3.538630,-1.589750,-6.739678,-0.110449,-0.067681,-0.126570
16456,-3.435679,-1.223437,-6.672640,-0.082337,-0.050095,-0.052626
16471,-3.615244,-1.115698,-6.727706,-0.054358,-0.030643,0.033441
16486,-3.653552,-1.084573,-6.646304,-0.010126,0.012923,0.089531
16501,-3.627216,-1.240196,-6.821081,0.036505,0.065949,0.094727
16516,-3.375824,-1.568202,-6.763620,0.085268,0.094061,0.037704
16531,-3.201048,-2.193089,-6.742072,0.088466,0.069680,-0.037438
16546,-3.301604,-2.360683,-6.596025,0.033041,0.027979,-0.090198
16561,-3.476381,-2.039860,-6.682217,-0.031309,0.006129,-0.104587
16576,-3.296816,-1.642422,-6.548141,-0.026113,-0.037438,-0.096459
16591,-3.469198,-1.493982,-6.581660,0.000799,-0.015588,-0.060620
16606,-3.658340,-1.606509,-6.651092,-0.029178,0.020651,0.008926
16621,-3.529053,-1.561020,-6.718130,-0.066083,0.026247,0.087533
16636,-3.450045,-1.414973,-6.732495,-0.077008,0.040502,0.140559
16651,-3.390190,-1.225831,-6.725312,-0.056224,0.069547,0.152683
16666,-3.368642,-1.110910,-6.837840,0.011991,0.079806,0.145089
16681,-3.495534,-1.692701,-6.823475,0.034773,0.105519,0.136029
16696,-2.990358,-1.869871,-6.722918,0.070746,0.094861,0.072877
16711,-3.071761,-2.561796,-6.754043,0.042501,0.074743,-0.004663
16726,-2.817975,-2.590526,-6.519411,-0.003730,-0.001732,-0.071412
16741,-3.213019,-2.432509,-6.627150,-0.037172,-0.006262,-0.123106
16756,-3.318363,-2.066196,-6.627150,-0.043833,-0.059288,-0.142824
16771,-3.236961,-1.735796,-6.531382,-0.026113,-0.039570,-0.128968
16786,-3.514688,-1.733402,-6.667851,-0.019319,-0.027579,-0.086334
16801,-3.567360,-1.663970,-6.696582,-0.046631,-0.007727,-0.020651
16816,-3.447650,-1.575385,-6.691793,-0.066616,0.020384,0.015721
16831,-3.359065,-1.632846,-6.675034,-0.044366,0.020251,0.003064
16846,-3.222595,-1.754950,-6.591237,-0.036372,0.018386,-0.019319
16861,-3.229778,-1.754950,-6.612785,-0.019452,-0.030110,-0.034374
16876,-3.335123,-1.649605,-6.639121,-0.004663,-0.070213,-0.024781
16891,-3.404555,-1.577779,-6.634333,0.001066,-0.078740,-0.002265
16906,-3.722984,-1.467646,-6.703764,0.002665,-0.019718,0.034773
16921,-3.737349,-1.671153,-6.856994,0.004663,0.078207,0.068747
16936,-3.462016,-1.668759,-6.708553,-0.006395,0.118975,0.104720
16951,-3.282450,-1.618480,-6.636727,-0.004530,0.087266,0.116844
16966,-3.213019,-1.853112,-6.655880,-0.013323,0.105519,0.110182
16981,-3.131616,-2.154782,-6.536170,-0.011325,0.102188,0.051294
16996,-3.112462,-2.509123,-6.605602,-0.022116,0.073410,-0.024381
17011,-3.076549,-2.387019,-6.682217,-0.050628,0.017320,-0.083802
17026,-3.107674,-2.121263,-6.631938,-0.079273,-0.039570,-0.113113
17041,-3.464410,-1.872266,-6.672640,-0.078606,-0.050095,-0.120708
17056,-3.576937,-1.699883,-6.660669,-0.056757,-0.020784,-0.098325
17071,-3.445256,-1.549048,-6.607996,-0.035706,0.016521,-0.047031
17086,-3.378219,-1.505953,-6.552930,-0.044233,0.030776,0.020651
17101,-3.423708,-1.455675,-6.622362,-0.034507,0.018253,0.063018
17116,-3.359065,-1.321599,-6.569689,0.001066,0.038904,0.067815
17131,-3.280056,-1.584962,-6.567295,0.048896,0.056357,0.045565
17146,-3.119645,-1.958457,-6.528988,0.075142,0.011458,-0.001466
17161,-3.241749,-2.296039,-6.557718,0.027312,-0.000666,-0.023049
17176,-3.359065,-2.171541,-6.531382,-0.037305,-0.016654,-0.028378
17191,-3.385401,-2.075773,-6.584054,-0.081271,-0.010126,-0.020917
17206,-3.241749,-1.831564,-6.531382,-0.076874,-0.007328,-0.008660
17221,-3.174711,-1.683124,-6.708553,-0.048496,-0.011724,-0.000400
17236,-3.306392,-1.766921,-6.756437,-0.025980,-0.039836,0.014123
17251,-3.428497,-1.860295,-6.701370,-0.022250,-0.032775,0.018786
17266,-3.476381,-1.956063,-6.878541,-0.017453,0.002265,-0.000533
17281,-3.368642,-2.018312,-6.818686,-0.006795,0.048096,-0.029311
17296,-3.375824,-2.121263,-6.900089,-0.016387,0.050761,-0.050495
17311,-3.366247,-1.891419,-6.722918,-0.017986,0.025181,-0.061686
17326,-3.354276,-1.848324,-6.631938,-0.027845,0.012524,-0.055291
17341,-3.248932,-1.771709,-6.655880,-0.042501,-0.000533,-0.020651
17356,-3.473987,-1.745373,-6.739678,-0.055158,-0.003464,0.009726
17371,-3.447650,-1.747767,-6.754043,-0.064484,0.014522,0.030243
17386,-3.363853,-1.869871,-6.675034,-0.065683,0.024781,0.026380
17401,-3.210624,-2.015918,-6.722918,-0.070479,0.043300,0.002531
17416,-3.174711,-1.903390,-6.682217,-0.060620,0.015055,-0.032109
17431,-3.265691,-1.932121,-6.588843,-0.047564,-0.015988,-0.061153
17446,-3.205836,-1.805228,-6.619967,-0.035839,-0.051294,-0.070746
17461,-3.236961,-1.745373,-6.639121,-0.020784,-0.051294,-0.068081
17476,-3.430891,-1.702277,-6.691793,-0.019851,-0.036905,-0.057423
17491,-3.521871,-1.565808,-6.660669,-0.006395,-0.020118,-0.031709
17506,-3.536236,-1.551443,-6.727706,-0.003864,0.036505,-0.002665
17521,-3.428497,-1.443704,-6.761226,0.010392,0.054492,0.028378
17536,-3.505111,-1.529895,-6.789956,0.004530,0.086867,0.056757
17551,-3.325546,-1.683124,-6.746861,-0.005862,0.077141,0.077807
17566,-3.394978,-1.941698,-6.734890,-0.030910,0.097126,0.079406
17581,-2.935291,-1.970428,-6.651092,-0.068747,0.047430,0.071678
17596,-3.004723,-1.941698,-6.584054,-0.064750,-0.010392,0.036639
17611,-3.066972,-1.932121,-6.449979,-0.043167,-0.068214,-0.005729
17626,-3.143587,-1.766921,-6.521805,-0.009726,-0.094194,-0.038904
17641,-3.349488,-1.757344,-6.646304,0.020118,-0.113247,-0.051161
17656,-3.557784,-1.702277,-6.682217,0.022916,-0.054891,-0.034240
17671,-3.660734,-1.654393,-6.797139,0.028245,0.006795,0.001066
17686,-3.380613,-1.637634,-6.720524,0.030243,0.027979,0.041701
17701,-3.423708,-1.910573,-6.672640,-0.023449,0.048096,0.092862
17716,-3.378219,-1.886631,-6.710947,-0.053026,-0.007727,0.116178
17731,-3.311181,-1.774103,-6.720524,-0.045165,-0.004397,0.113247
17746,-3.306392,-1.764527,-6.593631,-0.029977,-0.020651,0.096593
17761,-3.394978,-1.881842,-6.612785,-0.005729,-0.035440,0.062619
17776,-3.526659,-2.013524,-6.682217,-0.001865,-0.028645,0.033175
17791,-3.433285,-2.138022,-6.639121,-0.000133,-0.030776,0.008527
17806,-3.330334,-2.080561,-6.696582,0.013057,-0.039436,-0.014522
17821,-3.442862,-2.171541,-6.617573,0.011191,-0.057956,-0.031176
17836,-3.653552,-2.190695,-6.828263,0.006129,-0.043700,-0.035706
17851,-3.701436,-2.164358,-6.799533,-0.004263,-0.004130,-0.037438
17866,-3.598485,-2.135628,-6.782773,-0.029044,0.019452,-0.018519
17881,-3.576937,-1.958457,-6.821081,-0.065417,0.030910,0.009593
17896,-3.641581,-1.802834,-6.746861,-0.054225,0.034374,0.025580
17911,-3.732560,-1.833959,-6.856994,-0.051427,0.044632,0.041302
17926,-3.445256,-1.912967,-6.742072,-0.051827,0.077141,0.031975
17941,-3.260903,-2.085350,-6.672640,-0.042767,0.077807,-0.012524
17956,-3.330334,-2.159570,-6.696582,-0.035306,0.049695,-0.058089
17971,-3.303998,-2.099715,-6.457162,-0.039969,0.004130,-0.087133
17986,-3.256114,-1.900996,-6.397307,-0.045698,-0.022116,-0.096726
18001,-3.234566,-1.687912,-6.449979,-0.038504,-0.048896,-0.085401
18016,-3.339911,-1.549048,-6.442797,-0.018919,-0.079006,-0.061286
18031,-3.507505,-1.556231,-6.478710,-0.006262,-0.099524,-0.021450
18046,-3.517082,-1.604115,-6.617573,-0.016521,-0.108583,0.027179
18061,-3.687071,-1.821988,-6.677428,-0.065949,-0.028245,0.055957
18076,-3.627216,-1.802834,-6.732495,-0.063285,0.065150,0.039969
18091,-3.457227,-1.975216,-6.675034,-0.054758,0.121107,0.019319
18106,-3.105279,-1.936909,-6.670246,-0.056757,0.089398,-0.000666
18121,-3.038242,-1.640028,-6.502652,-0.035706,0.011724,-0.013989
18136,-3.145981,-1.745373,-6.584054,-0.012524,-0.052893,-0.019052
18151,-3.335123,-1.702277,-6.555324,0.005596,-0.086467,-0.004930
18166,-3.440468,-1.678335,-6.636727,0.004930,-0.094461,0.009326
18181,-3.524265,-1.702277,-6.643909,0.005995,-0.080472,0.021051
18196,-3.691859,-1.884237,-6.701370,-0.019452,-0.019452,0.033308
18211,-3.711013,-1.915361,-6.698976,-0.026247,0.020917,0.027312
18226,-3.591302,-1.898602,-6.722918,-0.020118,0.052360,0.007194
18241,-3.462016,-1.994370,-6.727706,-0.014522,0.046897,-0.004663
18256,-3.392584,-1.975216,-6.603208,-0.028645,0.026646,-0.003064
18271,-3.433285,-1.814805,-6.500257,-0.030110,-0.010792,0.006528
18286,-3.531447,-1.867477,-6.682217,-0.012790,-0.036905,0.008926
18301,-3.478775,-1.817199,-6.598420,-0.005196,-0.033308,0.018919
18316,-3.481169,-1.766921,-6.624756,-0.004530,-0.030377,0.031975
18331,-3.562572,-1.872266,-6.538565,0.010925,-0.030377,0.031842
18346,-3.634398,-1.824382,-6.524199,0.038237,-0.014522,0.015988
18361,-3.404555,-1.987187,-6.639121,0.053692,-0.003064,-0.006528
18376,-3.354276,-2.097321,-6.531382,0.053825,-0.025047,-0.021317
18391,-3.497929,-2.281674,-6.629544,0.016121,-0.021717,-0.027579
18406,-3.624821,-2.142811,-6.600814,-0.023182,-0.025580,-0.022116
18421,-3.672705,-2.013524,-6.619967,-0.047697,-0.006262,-0.014256
18436,-3.430891,-1.872266,-6.421249,-0.051427,0.007461,-0.001599
18451,-3.433285,-1.824382,-6.385336,-0.041168,0.001332,0.016521
18466,-3.409343,-1.731008,-6.296751,-0.011325,-0.030910,0.019718
18481,-3.430891,-1.795651,-6.404490,0.024515,-0.047297,0.011191
18496,-3.359065,-1.917755,-6.428432,0.038637,-0.046764,0.001199
18511,-3.509900,-2.018312,-6.670246,0.041968,-0.045032,-0.006795
18526,-3.552995,-1.137246,-6.385336,0.173467,-0.034240,-0.043167
18541,-3.986346,-2.583344,-6.785168,0.155747,-0.030243,-0.051827
18556,-3.236961,-2.205060,-6.596025,0.130833,-0.067681,-0.037971
18571,-3.950433,-2.674323,-6.868965,-0.034773,0.078340,0.014789
18586,-3.574543,-2.190695,-6.734890,-0.092329,-0.035839,0.035573
18601,-3.708618,-1.963245,-6.689399,-0.091530,0.043833,0.036239
18616,-3.655946,-1.903390,-6.576872,-0.048230,0.028645,0.021583
18631,-3.536236,-1.922544,-6.629544,-0.029844,0.053559,0.012391
18646,-3.627216,-2.185906,-6.627150,-0.025847,0.018253,-0.000533
18661,-3.548207,-2.066196,-6.481104,-0.050495,-0.009193,0.003597
18676,-3.541024,-1.908179,-6.663063,-0.055158,-0.017054,0.001865
18691,-3.655946,-1.860295,-6.591237,-0.041168,-0.013989,0.002265
18706,-3.749320,-1.939303,-6.639121,-0.023715,0.013190,0.010925
18721,-3.737349,-1.912967,-6.682217,-0.018919,0.044499,0.015988
18736,-3.493140,-2.042254,-6.725312,-0.008127,0.075142,0.003864
18751,-3.397372,-2.157176,-6.538565,-0.003331,0.059954,-0.016521
18766,-3.351882,-2.183512,-6.552930,-0.009193,0.037438,-0.035972
18781,-3.531447,-2.130840,-6.488286,-0.011591,0.000400,-0.045698
18796,-3.567360,-2.082955,-6.517017,-0.030377,0.010658,-0.035440
18811,-3.541024,-1.932121,-6.581660,-0.045032,0.008394,-0.013590
18826,-3.581726,-2.013524,-6.667851,-0.051827,0.022783,0.005862
18841,-3.751714,-1.788469,-6.552930,-0.055557,0.046098,0.032508
18856,-3.572149,-1.738190,-6.397307,-0.028511,0.041435,0.045832
18871,-3.409343,-1.857901,-6.421249,-0.005063,0.064351,0.026113
18886,-3.366247,-2.080561,-6.500257,0.011991,0.037172,-0.000933
18901,-3.488352,-2.154782,-6.327875,0.006262,0.037838,-0.025447
18916,-3.442862,-2.106897,-6.440403,0.001865,0.021983,-0.041302
18931,-3.390190,-2.102109,-6.519411,-0.013856,0.020518,-0.037172
18946,-3.445256,-2.037466,-6.569689,-0.032242,0.001599,-0.016787
18961,-3.598485,-1.989582,-6.540959,-0.051294,0.013190,0.014256
18976,-3.543418,-1.898602,-6.536170,-0.056357,-0.011458,0.044632
18991,-3.478775,-1.872266,-6.550536,-0.048230,-0.003997,0.061020
19006,-3.555389,-1.999158,-6.572083,-0.035306,0.015455,0.054225
19021,-3.579331,-2.166753,-6.639121,-0.033441,0.025580,0.032908
19036,-3.471592,-2.178724,-6.622362,-0.029977,0.014789,0.000933
19051,-3.373430,-2.118868,-6.682217,-0.024914,0.006129,-0.023449
19066,-3.452439,-2.059013,-6.485892,-0.013057,-0.022383,-0.035706
19081,-3.727772,-2.082955,-6.562507,-0.013057,-0.009326,-0.028245
19096,-3.689465,-2.037466,-6.586449,-0.017453,0.002398,-0.007194
19111,-3.514688,-2.061408,-6.540959,-0.029178,0.004263,0.015721
19126,-3.327940,-2.042254,-6.418855,-0.020917,0.023715,0.014789
19141,-3.574543,-2.185906,-6.490681,0.006662,0.020784,-0.006395
19156,-3.574543,-2.348712,-6.643909,-0.003331,0.012657,-0.022783
19171,-3.612850,-2.382231,-6.576872,-0.039570,0.017853,-0.037571
19186,-3.574543,-2.243367,-6.581660,-0.061020,0.002798,-0.048496
19201,-3.679888,-2.063802,-6.670246,-0.068747,0.018386,-0.053559
19216,-3.687071,-1.833959,-6.581660,-0.046631,0.021717,-0.042501
19231,-3.622427,-1.764527,-6.543353,-0.021051,0.027046,-0.031842
19246,-3.481169,-1.800440,-6.509834,-0.018119,0.037305,-0.006662
19261,-3.509900,-1.735796,-6.349423,-0.009326,0.024248,0.015855
19276,-3.639187,-1.793257,-6.385336,0.001865,0.038104,0.022383
19291,-3.416526,-1.853112,-6.521805,0.019452,0.044233,0.019718
19306,-3.205836,-2.061408,-6.457162,0.026247,0.002665,0.011325
19321,-3.380613,-2.300828,-6.466739,-0.020784,0.012657,0.010658
19336,-3.490746,-2.126051,-6.610391,-0.049162,-0.000933,0.004130
19351,-3.519476,-2.097321,-6.579266,-0.053959,0.001599,0.005729
19366,-3.409343,-2.051831,-6.569689,-0.060753,0.016787,0.009992
19381,-3.390190,-1.946486,-6.447585,-0.050894,0.010525,0.020384
19396,-3.584120,-1.879448,-6.435614,-0.029311,0.019718,0.030643
19411,-3.505111,-1.920150,-6.416461,-0.010259,0.036905,0.028645
19426,-3.275268,-2.013524,-6.428432,-0.005862,0.036639,0.027979
19441,-3.280056,-2.099715,-6.344635,-0.002798,0.000533,0.011325
19456,-3.347094,-2.114080,-6.370971,-0.005063,-0.025447,-0.000266
19471,-3.473987,-2.051831,-6.315904,-0.004930,-0.047297,0.000666
19486,-3.478775,-1.958457,-6.404490,-0.002531,-0.068881,-0.001066
19501,-3.514688,-1.960851,-6.493075,-0.004930,-0.047031,0.002931
19516,-3.816357,-2.138022,-6.572083,-0.006662,-0.037704,0.015455
19531,-3.703830,-2.173935,-6.605602,-0.044366,0.006129,0.043433
19546,-3.579331,-2.025495,-6.562507,-0.057956,0.003864,0.054891
19561,-3.521871,-2.049437,-6.679822,-0.047297,0.000000,0.048629
19576,-3.754108,-2.231396,-6.663063,-0.044632,0.021051,0.035306
19591,-3.660734,-2.169147,-6.667851,-0.036505,0.034907,0.017054
19606,-3.555389,-2.238579,-6.734890,-0.038770,0.038104,0.007194
19621,-3.404555,-2.051831,-6.560112,-0.041435,0.006795,0.001066
19636,-3.538630,-1.963245,-6.550536,-0.017587,-0.013856,-0.006262
19651,-3.632004,-1.989582,-6.447585,-0.001332,-0.019718,-0.003331
19666,-3.591302,-1.936909,-6.531382,0.005995,-0.004263,-0.002265
19681,-3.514688,-2.008735,-6.545747,0.022916,-0.011858,-0.011858
19696,-3.598485,-2.121263,-6.612785,0.026380,0.002931,-0.025714
19711,-3.701436,-2.248155,-6.555324,0.011724,0.006395,-0.033574
19726,-3.677494,-2.260126,-6.579266,-0.005729,0.022516,-0.035573
19741,-3.603273,-2.126051,-6.476315,-0.028112,0.028378,-0.025980
19756,-3.677494,-2.085350,-6.469133,-0.047963,0.039170,-0.009992
19771,-3.634398,-2.006341,-6.399701,-0.056357,0.020118,0.012657
19786,-3.500323,-1.920150,-6.373365,-0.046098,-0.003464,0.028778
19801,-3.356671,-1.980005,-6.270414,-0.019718,-0.027712,0.030776
19816,-3.557784,-2.161964,-6.390124,-0.004530,-0.034107,0.020118
19831,-3.605668,-2.284068,-6.411672,-0.000799,-0.040502,0.004663
19846,-3.670311,-2.308010,-6.478710,-0.017986,-0.024115,-0.014522
19861,-3.648763,-2.200271,-6.512228,-0.014922,-0.011858,-0.030776
19876,-3.634398,-2.049437,-6.505046,-0.009459,-0.000666,-0.041302
19891,-3.670311,-2.090138,-6.536170,-0.005729,0.009326,-0.034240
19906,-3.663129,-2.082955,-6.581660,-0.021717,0.014522,-0.003730
19921,-3.483563,-2.152387,-6.524199,-0.032508,-0.010658,0.013989
19936,-3.505111,-2.130840,-6.579266,-0.037305,-0.014655,0.015455
19951,-3.646369,-2.260126,-6.612785,-0.041835,0.002798,0.009326
19966,-3.696647,-2.171541,-6.572083,-0.048363,0.009726,0.000666
19981,-3.588908,-1.968034,-6.593631,-0.046897,-0.000133,-0.008127
19996,-3.586514,-1.996764,-6.677428,-0.044766,-0.004130,-0.011858
20011,-3.684676,-1.884237,-6.703764,-0.048096,0.008660,0.006662
20026,-3.768473,-1.922544,-6.588843,-0.047697,0.024648,0.030377
20041,-3.651158,-2.025495,-6.562507,-0.047031,0.049695,0.034640
20056,-3.428497,-2.135628,-6.536170,-0.040369,0.036372,0.022649
20071,-3.509900,-2.240973,-6.521805,-0.042234,0.015322,0.005196
20086,-3.636792,-2.238579,-6.564901,-0.047697,-0.007194,-0.004397
20101,-3.663129,-2.059013,-6.562507,-0.048496,-0.001732,-0.011724
20116,-3.696647,-1.941698,-6.600814,-0.045832,0.023449,-0.004397
20131,-3.617639,-1.891419,-6.593631,-0.060221,0.039436,0.028645
20146,-3.670311,-1.807622,-6.624756,-0.070879,0.046364,0.069547
20161,-3.610456,-1.766921,-6.445191,-0.066882,0.038637,0.101789
20176,-3.409343,-1.632846,-6.402095,-0.027446,0.020118,0.107784
20191,-3.574543,-1.939303,-6.433220,0.012391,0.012124,0.098191
20206,-3.514688,-2.209848,-6.447585,0.015322,0.036372,0.066482
20221,-3.426103,-2.485181,-6.347029,0.017320,0.007594,0.007461
20236,-3.440468,-2.647987,-6.447585,-0.001466,0.001332,-0.058222
20251,-3.454833,-2.561796,-6.473921,-0.027312,-0.015322,-0.104720
20266,-3.596091,-2.528277,-6.426037,-0.053159,-0.034374,-0.128701
20281,-3.617639,-2.367865,-6.502652,-0.070479,-0.061153,-0.123372
20296,-3.754108,-2.085350,-6.567295,-0.086867,-0.050095,-0.089398
20311,-3.775656,-1.941698,-6.562507,-0.106585,-0.043567,-0.030510
20326,-3.890578,-1.654393,-6.665457,-0.090464,-0.005063,0.020651
20341,-4.000711,-1.553837,-6.607996,-0.049429,0.025714,0.054358
20356,-3.730166,-1.695095,-6.598420,-0.003730,0.059688,0.055557
20371,-3.430891,-2.020706,-6.387730,0.006795,0.063951,0.031043
20386,-3.435679,-2.193089,-6.476315,-0.002265,0.033441,0.001332
20401,-3.555389,-2.161964,-6.404490,-0.017320,-0.010792,-0.013456
20416,-3.569755,-1.898602,-6.291962,-0.005063,-0.047031,-0.018519
20431,-3.497929,-1.980005,-6.445191,0.005729,-0.047031,-0.006395
20446,-3.687071,-2.082955,-6.385336,-0.010126,-0.042234,0.026646
20461,-3.660734,-1.960851,-6.426037,-0.017986,-0.045832,0.064084
20476,-3.780444,-2.039860,-6.517017,-0.026113,-0.036106,0.085002
20491,-3.706224,-1.941698,-6.581660,-0.040369,-0.003064,0.101389
20506,-3.730166,-2.006341,-6.584054,-0.037305,0.013323,0.101256
20521,-3.770868,-2.351106,-6.548141,-0.051161,0.052493,0.077274
20536,-3.600879,-2.355894,-6.392519,-0.042234,0.026779,0.022649
20551,-3.550601,-2.456451,-6.557718,-0.053426,0.029044,-0.013856
20566,-3.567360,-2.387019,-6.483498,-0.063285,-0.010259,-0.041168
20581,-3.739743,-2.360683,-6.473921,-0.068081,-0.007594,-0.045832
20596,-3.806781,-2.082955,-6.507440,-0.072611,0.000133,-0.040236
20611,-3.605668,-1.865083,-6.459556,-0.057156,-0.005196,-0.027979
20626,-3.742137,-1.819593,-6.519411,-0.028112,-0.007461,-0.018652
20641,-3.825934,-1.850718,-6.478710,-0.016121,0.003331,0.002132
20656,-3.976769,-1.960851,-6.607996,-0.031309,0.027446,0.027046
20671,-3.725378,-1.821988,-6.567295,-0.058222,0.048763,0.055691
20686,-3.667917,-1.819593,-6.538565,-0.077274,0.048763,0.090064
20701,-3.634398,-1.719037,-6.435614,-0.085135,0.041568,0.115645
20716,-3.634398,-1.869871,-6.378153,-0.099657,0.049162,0.126836
20731,-3.227384,-1.900996,-6.347029,-0.071945,0.006928,0.085401
20746,-3.320758,-2.099715,-6.351817,-0.017187,-0.025047,0.007194
20761,-3.421314,-2.346318,-6.461950,-0.002398,-0.041035,-0.063285
20776,-3.600879,-2.370260,-6.402095,-0.008793,-0.067149,-0.117776
20791,-3.632004,-2.257732,-6.653486,-0.023582,-0.062752,-0.138560
20806,-3.615244,-1.960851,-6.555324,-0.025980,-0.060620,-0.122839
20821,-3.883395,-1.951274,-6.574478,-0.040103,-0.043300,-0.078606
20836,-4.029441,-1.831564,-6.672640,-0.069413,-0.011858,-0.012657
20851,-3.962404,-1.635240,-6.682217,-0.088732,0.004530,0.059021
20866,-3.816357,-1.441309,-6.627150,-0.074743,0.022116,0.109649
20881,-3.756502,-1.261744,-6.631938,-0.029444,0.034907,0.129767
20896,-3.950433,-1.340753,-6.643909,0.029711,0.033041,0.132299
20911,-3.871424,-1.414973,-6.557718,0.059954,0.046364,0.152683
20926,-3.787627,-1.613692,-6.574478,0.039836,0.052227,0.200779
20941,-3.699042,-1.845930,-6.454768,-0.004530,0.076208,0.228758
20956,-3.533842,-2.406173,-6.349423,-0.040769,0.093262,0.188522
20971,-3.210624,-2.691083,-6.167463,-0.055025,0.056623,0.094194
20986,-3.189077,-2.825158,-6.361394,-0.038104,-0.033308,-0.028378
21001,-3.399766,-2.863465,-6.394913,-0.044499,-0.085534,-0.132832
21016,-3.770868,-2.808398,-6.485892,-0.050894,-0.106718,-0.191986
21031,-3.904943,-2.578555,-6.509834,-0.069280,-0.090064,-0.208107
21046,-3.914520,-2.176329,-6.536170,-0.095394,-0.054092,-0.168804
21061,-4.007894,-1.762132,-6.509834,-0.120441,-0.019718,-0.083003
21076,-4.070143,-1.482011,-6.406884,-0.122306,-0.005596,0.021717
21091,-4.019865,-1.101333,-6.284780,-0.075675,0.018652,0.097392
21106,-3.794810,-1.000776,-6.394913,0.028511,0.007328,0.127236
21121,-3.758897,-1.407791,-6.368577,0.086067,0.009593,0.139893
21136,-3.722984,-2.149993,-6.433220,0.057023,0.056490,0.115511
21151,-3.440468,-2.468422,-6.258443,0.081138,-0.009193,0.005995
21166,-3.617639,-2.928109,-6.447585,0.033041,-0.015322,-0.087666
21181,-3.730166,-2.659958,-6.459556,-0.059288,-0.054891,-0.121907
21196,-3.945644,-2.298434,-6.555324,-0.096726,-0.039570,-0.124971
21211,-4.007894,-1.917755,-6.627150,-0.097925,-0.031176,-0.105652
21226,-3.962404,-1.596933,-6.677428,-0.078606,-0.016654,-0.050495
21241,-3.859453,-1.436521,-6.696582,-0.061153,-0.011191,0.033308
21256,-4.027047,-1.462857,-6.703764,-0.044100,0.014256,0.095127
21271,-4.046201,-1.474828,-6.643909,-0.014789,0.042368,0.118309
21286,-4.036624,-1.644817,-6.667851,0.000400,0.089531,0.123372
21301,-3.663129,-1.991976,-6.540959,-0.005462,0.139893,0.096326
21316,-3.383007,-2.497152,-6.394913,0.001865,0.131499,-0.002531
21331,-3.330334,-3.028665,-6.315904,-0.009992,0.061153,-0.115112
21346,-3.411737,-3.136404,-6.196194,-0.068614,-0.002132,-0.199847
21361,-3.538630,-2.755726,-6.277597,-0.118043,-0.063685,-0.250208
21376,-3.629610,-2.231396,-6.452374,-0.123106,-0.086734,-0.259002
21391,-3.900155,-1.843535,-6.502652,-0.100856,-0.095527,-0.216634
21406,-4.132392,-1.453280,-6.507440,-0.099790,-0.060753,-0.119908
21421,-4.156334,-1.036689,-6.524199,-0.099124,-0.028511,0.016787
21436,-4.034230,-0.885855,-6.557718,-0.072478,0.031443,0.140559
21451,-4.039018,-0.797269,-6.538565,0.004530,0.073943,0.197982
21466,-4.046201,-1.403002,-6.505046,0.044366,0.135629,0.204510
21481,-3.289633,-1.877054,-6.279991,0.093395,0.118576,0.137628
21496,-3.272874,-2.375048,-6.323087,0.086067,0.095394,0.045299
21511,-3.239355,-2.557007,-6.418855,0.058622,-0.011858,-0.032775
21526,-3.584120,-2.482787,-6.416461,0.009459,-0.058089,-0.075009
21541,-3.684676,-2.233790,-6.430826,-0.028378,-0.073277,-0.077141
21556,-3.828328,-2.061408,-6.619967,-0.065017,-0.053292,-0.028511
21571,-3.871424,-1.810017,-6.607996,-0.087533,-0.014789,0.040769
21586,-4.029441,-1.750161,-6.660669,-0.094861,0.023182,0.086467
21601,-3.761291,-1.668759,-6.512228,-0.091263,0.047297,0.105119
21616,-3.713407,-1.625663,-6.430826,-0.057822,0.037571,0.095394
21631,-3.751714,-1.632846,-6.421249,-0.013057,0.033308,0.071945
21646,-3.584120,-1.680730,-6.378153,0.027979,0.002398,0.047830
21661,-3.711013,-1.944092,-6.354211,0.045965,-0.011458,0.043300
21676,-3.785233,-2.224213,-6.306327,0.034640,-0.008660,0.031043
21691,-3.835511,-2.458845,-6.303933,0.029577,0.009992,-0.008127
21706,-3.715801,-2.607285,-6.416461,0.004930,0.017187,-0.048363
21721,-3.696647,-2.633622,-6.505046,-0.045032,0.014123,-0.063551
21736,-3.782839,-2.506729,-6.416461,-0.083003,-0.004130,-0.069547
21751,-3.957615,-2.365471,-6.390124,-0.101522,-0.009992,-0.066882
21766,-3.773262,-1.989582,-6.411672,-0.104587,-0.020917,-0.031975
21781,-3.811569,-1.628057,-6.289568,-0.089931,-0.011325,0.019319
21796,-3.790021,-1.458069,-6.323087,-0.030776,-0.024781,0.056090
21811,-3.998317,-1.505953,-6.378153,0.024381,-0.020251,0.082070
21826,-4.010288,-1.563414,-6.442797,0.057289,-0.008926,0.105519
21841,-3.914520,-1.529895,-6.459556,0.069680,0.006528,0.130300
21856,-3.991134,-1.841141,-6.469133,0.047164,0.050628,0.146021
21871,-3.871424,-2.197877,-6.473921,0.021850,0.077274,0.115245
21886,-3.572149,-2.497152,-6.449979,-0.003864,0.066216,0.051827
21901,-3.294421,-2.664747,-6.351817,-0.034640,0.012657,-0.017587
21916,-3.519476,-2.712631,-6.454768,-0.077274,-0.029178,-0.059688
21931,-3.739743,-2.477999,-6.378153,-0.103787,-0.047963,-0.096060
21946,-3.869030,-2.178724,-6.303933,-0.115245,-0.050761,-0.101789
21961,-3.746926,-1.845930,-6.421249,-0.115245,-0.038504,-0.079006
21976,-3.804386,-1.460463,-6.272809,-0.084602,-0.043567,-0.031842
21991,-4.010288,-1.422156,-6.387730,-0.065949,-0.026247,0.027446
22006,-3.974375,-1.266533,-6.363788,-0.029844,-0.013723,0.074743
22021,-3.943250,-1.352724,-6.483498,0.006795,0.009326,0.102588
22036,-3.811569,-1.525106,-6.483498,0.043567,0.007594,0.109383
22051,-3.866636,-1.968034,-6.540959,0.047031,0.044366,0.087133
22066,-3.792415,-2.157176,-6.457162,0.050495,0.006395,0.046764
22081,-3.801992,-2.552219,-6.368577,-0.031443,0.031975,0.024515
22096,-3.598485,-2.396596,-6.457162,-0.083936,-0.017853,-0.001199
22111,-3.768473,-2.365471,-6.426037,-0.104853,-0.019452,-0.021850
22126,-3.909731,-2.145205,-6.519411,-0.124172,-0.012124,-0.025847
22141,-3.871424,-1.776498,-6.394913,-0.098191,-0.031176,-0.025580
22156,-3.825934,-1.606509,-6.502652,-0.056357,-0.025847,-0.022116
22171,-3.950433,-1.618480,-6.464345,-0.019585,-0.021317,0.001066
22186,-4.036624,-1.656788,-6.579266,-0.004130,-0.000799,0.035972
22201,-4.012682,-1.687912,-6.531382,-0.002398,0.021317,0.062752
22216,-3.806781,-1.750161,-6.471527,0.002531,0.015988,0.081671
22231,-3.823540,-2.006341,-6.481104,-0.003331,0.042501,0.069946
22246,-3.787627,-2.348712,-6.426037,-0.000666,0.018386,0.021051
22261,-3.904943,-2.602497,-6.509834,-0.040502,0.028778,-0.019185
22276,-3.632004,-2.489970,-6.390124,-0.067015,0.017986,-0.066482
22291,-3.687071,-2.422932,-6.505046,-0.087266,0.021983,-0.107384
22306,-3.799598,-2.118868,-6.363788,-0.076475,-0.011058,-0.131632
22321,-3.904943,-1.855506,-6.347029,-0.054492,-0.025047,-0.131499
22336,-3.871424,-1.673547,-6.356606,-0.026247,-0.043034,-0.106052
22351,-4.010288,-1.505953,-6.404490,-0.021850,-0.016654,-0.045165
22366,-4.156334,-1.465251,-6.440403,-0.018386,-0.012923,0.019319
22381,-4.103662,-1.422156,-6.445191,0.018386,0.018386,0.054358
22396,-4.065354,-1.424550,-6.418855,0.050894,0.044766,0.078074
22411,-3.955221,-1.467646,-6.430826,0.062485,0.066349,0.097925
22426,-4.043807,-1.690306,-6.397307,0.043034,0.084868,0.138294
22441,-3.897760,-1.980005,-6.375759,-0.000400,0.121107,0.152816
22456,-3.555389,-2.367865,-6.174646,-0.021051,0.082070,0.117643
22471,-3.251326,-2.705448,-6.114791,-0.067948,0.090597,0.043700
22486,-3.373430,-2.796427,-6.246472,-0.075542,-0.025980,-0.047697
22501,-3.531447,-2.621651,-6.270414,-0.090864,-0.084335,-0.111781
22516,-3.749320,-2.415750,-6.239290,-0.090997,-0.116844,-0.155747
22531,-3.830723,-2.075773,-6.390124,-0.071812,-0.117110,-0.168538
22546,-4.017470,-1.759738,-6.469133,-0.057423,-0.074210,-0.125637
22561,-4.199430,-1.649605,-6.524199,-0.047963,-0.057423,-0.060221
22576,-4.177882,-1.448492,-6.624756,-0.029711,-0.021583,0.007594
22591,-4.175488,-1.486799,-6.646304,0.000666,0.026913,0.055557
22606,-4.094085,-1.549048,-6.531382,0.023049,0.066882,0.079406
22621,-4.163517,-1.695095,-6.526594,0.020251,0.085668,0.094594
22636,-4.015076,-1.850718,-6.521805,-0.006395,0.069680,0.120708
22651,-3.900155,-2.126051,-6.397307,-0.094328,0.140159,0.136962
22666,-3.493140,-2.181118,-6.246472,-0.108983,0.071412,0.091263
22681,-3.572149,-2.296039,-6.440403,-0.100590,0.037838,0.025714
22696,-3.548207,-2.140416,-6.323087,-0.060087,-0.033708,-0.040369
22711,-3.665523,-2.090138,-6.464345,-0.016521,-0.041701,-0.097659
22726,-3.792415,-1.977611,-6.555324,0.005862,-0.040103,-0.114845
22741,-3.902549,-1.939303,-6.593631,0.017320,-0.038770,-0.105652
22756,-4.053383,-1.845930,-6.567295,0.007461,-0.021450,-0.078606
22771,-3.967192,-1.549048,-6.548141,0.016920,-0.013989,-0.036505
22786,-4.005499,-1.505953,-6.538565,0.042501,0.002665,0.012124
22801,-4.173093,-1.757344,-6.643909,0.029444,0.057289,0.064084
22816,-3.960010,-1.728614,-6.519411,-0.002132,0.080605,0.106319
22831,-3.842694,-1.616086,-6.404490,-0.014123,0.087799,0.136562
22846,-3.790021,-1.462857,-6.327875,-0.008793,0.065017,0.166806
22861,-3.871424,-1.422156,-6.356606,0.018253,0.043433,0.201312
22876,-3.866636,-1.788469,-6.351817,0.022116,0.108850,0.178397
22891,-3.524265,-2.219425,-6.224924,0.059421,0.049429,0.091530
22906,-3.284845,-2.707842,-6.251261,0.020651,0.073943,0.005596
22921,-3.354276,-2.803610,-6.081272,-0.017054,-0.043300,-0.081404
22936,-3.560178,-2.734178,-6.256049,-0.054758,-0.070613,-0.143623
22951,-3.732560,-2.317587,-6.311116,-0.052093,-0.113646,-0.174133
22966,-3.835511,-1.958457,-6.339846,-0.028112,-0.114446,-0.173201
22981,-4.108450,-1.922544,-6.320693,-0.024381,-0.104320,-0.116311
22996,-4.434062,-1.917755,-6.428432,-0.069147,-0.064351,0.001865
23011,-4.266468,-1.671153,-6.430826,-0.127636,0.028778,0.124305
23026,-4.240131,-1.527501,-6.531382,-0.134564,0.069014,0.212637
23041,-3.924097,-1.316811,-6.493075,-0.111115,0.101789,0.251407
23056,-4.103662,-1.276109,-6.452374,-0.028778,0.091663,0.256204
23071,-4.029441,-1.570596,-6.282385,0.004130,0.112314,0.240882
23086,-3.445256,-2.030283,-6.208165,0.046764,0.122706,0.145222
23101,-3.354276,-2.612074,-6.325481,0.086600,0.044366,0.008793
23116,-3.315969,-2.908955,-6.263232,0.056623,-0.015322,-0.109783
23131,-3.581726,-2.683900,-6.234501,0.058355,-0.123239,-0.198248
23146,-3.811569,-2.542642,-6.368577,0.036239,-0.145089,-0.241548
23161,-4.019865,-2.212242,-6.631938,0.027712,-0.136296,-0.225427
23176,-4.596867,-2.257732,-6.646304,-0.011991,-0.083802,-0.147753
23191,-4.695029,-2.363077,-6.804321,-0.130700,0.030510,-0.013723
23206,-4.513070,-1.900996,-6.612785,-0.243147,0.117110,0.118043
23221,-4.141969,-1.513135,-6.464345,-0.237418,0.158812,0.189322
23236,-3.813963,-1.132457,-6.512228,-0.150818,0.178663,0.189055
23251,-3.837905,-1.158794,-6.354211,-0.016920,0.121240,0.157613
23266,-3.653552,-1.900996,-6.373365,0.020917,0.151884,0.101389
23281,-3.251326,-2.023100,-6.093243,0.089265,0.064351,-0.018919
23296,-3.454833,-2.616862,-6.198588,0.087266,0.014922,-0.116577
23311,-3.562572,-2.449268,-6.191405,0.037704,-0.072478,-0.153616
23326,-3.737349,-2.003947,-6.313510,0.027979,-0.090198,-0.166539
23341,-3.794810,-1.817199,-6.342240,0.054891,-0.111648,-0.157346
23356,-4.247314,-2.104503,-6.536170,0.012391,-0.069147,-0.079139
23371,-4.268862,-2.135628,-6.624756,-0.122173,0.015322,0.041835
23386,-4.220977,-1.716643,-6.612785,-0.193052,0.065816,0.129900
23401,-4.122815,-1.642422,-6.710947,-0.210905,0.136162,0.180928
23416,-3.751714,-1.297657,-6.473921,-0.169603,0.144556,0.189588
23431,-3.806781,-1.084573,-6.430826,-0.059554,0.113513,0.170536
23446,-3.715801,-1.513135,-6.399701,0.012923,0.102188,0.141891
23461,-3.311181,-2.003947,-6.177040,0.070213,0.090064,0.061286
23476,-3.339911,-2.561796,-6.210559,0.078740,0.034507,-0.046231
23491,-3.327940,-2.588132,-6.212953,0.052893,-0.055691,-0.133631
23506,-3.651158,-2.360683,-6.117185,0.034107,-0.104054,-0.180262
23521,-3.564966,-1.910573,-6.258443,0.065017,-0.161077,-0.212237
23536,-4.089296,-2.140416,-6.605602,0.069813,-0.141758,-0.185058
23551,-4.376601,-2.260126,-6.655880,-0.049429,-0.052760,-0.076208
23566,-4.345476,-1.817199,-6.646304,-0.142291,0.019585,0.037704
23581,-4.350265,-1.625663,-6.715735,-0.189988,0.106985,0.138694
23596,-3.852270,-1.261744,-6.555324,-0.171469,0.131233,0.191320
23611,-3.878607,-0.976834,-6.435614,-0.053959,0.113380,0.180129
23626,-3.883395,-1.130063,-6.308722,0.059954,0.092862,0.163208
23641,-3.847482,-1.905784,-6.428432,0.078207,0.101123,0.153216
23656,-3.296816,-2.264915,-6.126762,0.068081,0.079806,0.080338
23671,-3.421314,-2.679112,-6.210559,0.045432,0.022916,-0.008926
23686,-3.378219,-2.698265,-6.145916,0.019851,-0.053026,-0.103920
23701,-3.576937,-2.535460,-6.114791,0.022649,-0.109783,-0.182127
23716,-3.842694,-2.461239,-6.452374,0.011458,-0.131899,-0.206908
23731,-4.163517,-2.511518,-6.497863,-0.061020,-0.089265,-0.171602
23746,-4.146757,-2.080561,-6.452374,-0.146021,-0.016121,-0.089931
23761,-4.311957,-1.790863,-6.567295,-0.207041,0.029577,0.025580
23776,-3.916914,-1.067814,-6.387730,-0.195983,0.050628,0.126170
23791,-3.991134,-0.703895,-6.289568,-0.084735,0.062485,0.184525
23806,-4.029441,-0.694318,-6.397307,0.058755,0.042234,0.208374
23821,-4.048595,-1.034295,-6.483498,0.141358,0.066749,0.244613
23836,-3.971981,-1.604115,-6.540959,0.142957,0.074077,0.264331
23851,-3.617639,-2.255338,-6.390124,0.116444,0.099257,0.194784
23866,-3.509900,-2.966416,-6.339846,0.081671,0.127369,0.063152
23881,-3.215413,-3.296816,-6.306327,0.052093,0.028378,-0.094861
23896,-3.416526,-3.347094,-6.241684,-0.026646,-0.041968,-0.180795
23911,-3.744531,-3.023877,-6.258443,-0.125904,-0.072877,-0.207708
23926,-3.902549,-2.557007,-6.272809,-0.157613,-0.092729,-0.198781
23941,-4.153940,-2.272097,-6.323087,-0.175066,-0.086867,-0.139626
23956,-4.153940,-1.850718,-6.337452,-0.243147,-0.023449,-0.029444
23971,-4.144363,-1.242591,-6.512228,-0.232622,-0.036905,0.064217
23986,-4.326323,-1.027112,-6.754043,-0.145888,0.035573,0.104187
24001,-4.311957,-0.945710,-6.581660,-0.024648,0.089265,0.099657
24016,-3.945644,-1.302446,-6.643909,0.051028,0.111781,0.092329
24031,-3.790021,-1.623269,-6.545747,0.055557,0.119908,0.085002
24046,-3.598485,-2.059013,-6.318298,0.042767,0.094461,0.048763
24061,-3.411737,-2.317587,-6.224924,0.019585,0.043034,-0.011058
24076,-3.485958,-2.398990,-6.220136,-0.022250,0.002132,-0.065949
24091,-3.380613,-2.420538,-6.203376,-0.060087,-0.031309,-0.103920
24106,-3.691859,-2.377442,-6.356606,-0.080205,-0.064351,-0.129368
24121,-3.799598,-2.114080,-6.404490,-0.100190,-0.059954,-0.137095
24136,-3.883395,-1.865083,-6.418855,-0.089132,-0.074743,-0.131899
24151,-3.847482,-1.692701,-6.509834,-0.105519,-0.043966,-0.096193
24166,-3.983952,-1.474828,-6.564901,-0.109516,-0.035440,-0.021983
24181,-4.072537,-1.139640,-6.524199,-0.093928,-0.011325,0.062352
24196,-4.096479,-1.067814,-6.505046,-0.031842,0.014522,0.117643
24211,-4.007894,-1.046266,-6.540959,0.046631,0.037172,0.138427
24226,-4.132392,-1.268927,-6.639121,0.097525,0.060354,0.159877
24241,-4.108450,-1.489193,-6.588843,0.081804,0.088066,0.205709
24256,-4.139575,-2.116474,-6.603208,-0.002132,0.131499,0.233155
24271,-3.416526,-2.353500,-6.260838,-0.056224,0.147887,0.179995
24286,-3.416526,-2.971204,-6.263232,-0.112447,0.139360,0.078740
24301,-3.361459,-2.961627,-6.217741,-0.173201,0.077807,-0.015188
24316,-3.402161,-2.753332,-6.212953,-0.201712,-0.001599,-0.118309
24331,-3.462016,-2.205060,-6.272809,-0.153216,-0.109516,-0.201179
24346,-3.670311,-1.970428,-6.332664,-0.092063,-0.138694,-0.238084
24361,-4.072537,-1.833959,-6.461950,-0.070746,-0.135896,-0.200113
24376,-4.307169,-1.520318,-6.512228,-0.058089,-0.098458,-0.116178
24391,-4.422091,-1.180341,-6.550536,-0.053292,-0.040769,-0.013190
24406,-4.194641,-0.945710,-6.481104,-0.018253,0.050495,0.077407
24421,-4.077325,-0.900220,-6.445191,0.086201,0.057556,0.109116
24436,-3.945644,-1.376666,-6.366182,0.142025,0.074876,0.103654
24451,-3.730166,-2.094926,-6.359000,0.139360,0.066749,0.061153
24466,-3.517082,-2.724602,-6.361394,0.054758,0.053692,-0.009326
24481,-3.459621,-2.920926,-6.306327,-0.034773,-0.009859,-0.082470
24496,-3.928885,-2.889802,-6.464345,-0.153616,-0.038237,-0.116444
24511,-3.706224,-2.238579,-6.347029,-0.224761,-0.069946,-0.127369
24526,-3.869030,-1.479617,-6.394913,-0.170802,-0.082870,-0.135496
24541,-3.892972,-1.290475,-6.428432,-0.077008,-0.111248,-0.103787
24556,-4.156334,-1.328782,-6.536170,-0.047697,-0.062619,-0.017187
24571,-4.278439,-1.312023,-6.538565,-0.051294,-0.024648,0.076741
24586,-4.122815,-1.168370,-6.718130,-0.036639,0.046364,0.137628
24601,-3.948039,-1.127669,-6.555324,0.027579,0.078606,0.156813
24616,-4.015076,-1.256956,-6.521805,0.082204,0.099124,0.163208
24631,-4.000711,-1.632846,-6.382942,0.079139,0.084202,0.183193
24646,-3.679888,-2.183512,-6.359000,-0.009060,0.103387,0.184126
24661,-3.402161,-2.533065,-6.129156,-0.080205,0.072211,0.130700
24676,-3.543418,-2.712631,-6.179434,-0.144289,0.048763,0.049162
24691,-3.550601,-2.355894,-6.263232,-0.163874,-0.024248,-0.033175
24706,-3.634398,-1.972822,-6.318298,-0.122972,-0.077141,-0.091130
24721,-3.787627,-1.774103,-6.421249,-0.046631,-0.102721,-0.129767
24736,-4.015076,-1.769315,-6.488286,0.014389,-0.097259,-0.137228
24751,-4.146757,-1.778892,-6.445191,0.009326,-0.052493,-0.102055
24766,-4.137180,-1.620875,-6.457162,-0.014389,-0.051694,-0.033574
24781,-4.048595,-1.472434,-6.363788,-0.037971,-0.012391,0.041168
24796,-4.029441,-1.180341,-6.442797,0.012657,-0.015455,0.077807
24811,-4.194641,-1.417367,-6.488286,0.077008,-0.011991,0.089798
24826,-4.199430,-2.044648,-6.481104,0.030510,0.047164,0.106585
24841,-3.787627,-2.281674,-6.411672,-0.027979,0.061553,0.077141
24856,-3.964798,-2.880225,-6.562507,-0.120175,0.083669,0.031309
24871,-3.950433,-2.820369,-6.552930,-0.276322,0.129101,0.005196
24886,-3.509900,-1.934515,-6.375759,-0.270859,0.035839,-0.055824
24901,-3.766079,-1.671153,-6.507440,-0.183459,0.017320,-0.115778
24916,-3.689465,-1.338359,-6.433220,-0.066749,-0.050095,-0.155747
24931,-3.943250,-1.419762,-6.493075,0.000799,-0.062219,-0.138161
24946,-4.055778,-1.355118,-6.430826,-0.004930,-0.068881,-0.074743
24961,-4.134786,-1.106121,-6.517017,-0.005462,-0.022250,-0.000266
24976,-4.127604,-0.984017,-6.493075,0.038371,0.011058,0.052760
24991,-4.173093,-0.960075,-6.366182,0.109383,0.043966,0.078473
25006,-4.256891,-1.331176,-6.536170,0.128701,0.076608,0.123639
25021,-4.055778,-1.771709,-6.514623,0.035839,0.127502,0.195583
25036,-3.790021,-2.030283,-6.399701,-0.060753,0.172002,0.218100
25051,-3.916914,-2.614468,-6.248867,-0.153616,0.206508,0.180395
25066,-3.282450,-2.382231,-6.054936,-0.218766,0.175066,0.110449
25081,-3.189077,-1.963245,-6.004658,-0.165340,0.062086,0.002931
25096,-3.007117,-1.821988,-5.963956,-0.044766,-0.094994,-0.112714
25111,-3.648763,-1.972822,-6.246472,0.043300,-0.174933,-0.166406
25126,-3.873818,-1.877054,-6.291962,0.072611,-0.198381,-0.161343
25141,-4.218583,-1.869871,-6.519411,0.045965,-0.127636,-0.112980
25156,-4.187459,-1.656788,-6.528988,0.013456,-0.058755,-0.044899
25171,-4.244920,-1.496376,-6.524199,0.019851,-0.002398,0.011191
25186,-4.364630,-1.699883,-6.524199,0.013723,0.043700,0.059954
25201,-4.077325,-1.917755,-6.461950,-0.053825,0.122440,0.091663
25216,-3.969586,-2.346318,-6.435614,-0.112181,0.093662,0.084469
25231,-3.885789,-2.657564,-6.449979,-0.241415,0.159078,0.069547
25246,-3.562572,-2.090138,-6.363788,-0.298971,0.091930,0.028245
25261,-3.677494,-1.436521,-6.433220,-0.234753,0.014522,-0.037305
25276,-3.833117,-1.259350,-6.375759,-0.130167,-0.031443,-0.093395
25291,-3.761291,-1.177947,-6.478710,-0.027845,-0.075809,-0.101522
25306,-3.962404,-1.144428,-6.485892,0.014522,-0.067415,-0.070080
25321,-4.070143,-1.120486,-6.591237,0.045165,-0.106585,-0.028778
25336,-4.019865,-1.084573,-6.519411,0.071812,-0.050761,0.023715
25351,-4.168305,-1.235408,-6.730101,0.094061,-0.015455,0.065017
25366,-4.323928,-1.577779,-6.789956,0.064884,0.059954,0.129634
25381,-4.010288,-1.362301,-6.569689,0.011458,0.109916,0.186391
25396,-4.062960,-1.474828,-6.701370,-0.033708,0.133231,0.234087
25411,-3.660734,-1.776498,-6.562507,-0.084202,0.142691,0.232622
25426,-3.524265,-2.149993,-6.342240,-0.091930,0.175865,0.144423
25441,-3.399766,-2.355894,-6.227318,-0.074077,0.095127,0.026513
25456,-3.296816,-2.030283,-6.212953,-0.071812,0.008660,-0.066882
25471,-3.533842,-1.881842,-6.203376,-0.026113,-0.095793,-0.134963
25486,-3.722984,-1.723825,-6.270414,0.022649,-0.125504,-0.172401
25501,-4.058172,-1.668759,-6.315904,0.044632,-0.153083,-0.159478
25516,-4.218583,-1.532289,-6.473921,0.033574,-0.122573,-0.088998
25531,-4.496311,-1.635240,-6.555324,-0.054358,-0.021184,0.034640
25546,-4.335899,-1.436521,-6.718130,-0.128968,0.055691,0.151484
25561,-4.496311,-1.434127,-6.600814,-0.155081,0.151884,0.222096
25576,-3.971981,-1.199495,-6.572083,-0.126703,0.151884,0.231023
25591,-3.828328,-1.491588,-6.612785,-0.080738,0.190121,0.183992
25606,-3.562572,-1.616086,-6.335058,0.010658,0.098058,0.080338
25621,-3.620033,-1.908179,-6.411672,0.044899,0.063818,-0.012790
25636,-3.641581,-1.968034,-6.399701,0.041168,-0.030776,-0.055557
25651,-3.751714,-1.805228,-6.339846,0.036106,-0.062752,-0.079139
25666,-3.995923,-1.738190,-6.488286,0.045432,-0.064484,-0.078473
25681,-3.971981,-1.793257,-6.574478,0.031576,-0.050495,-0.045165
25696,-4.048595,-1.745373,-6.526594,-0.033175,0.012257,0.004530
25711,-4.223372,-1.750161,-6.636727,-0.077541,0.030910,0.055691
25726,-4.137180,-1.541866,-6.619967,-0.101922,0.073277,0.084602
25741,-3.928885,-1.256956,-6.636727,-0.072078,0.094461,0.097925
25756,-3.809175,-1.192312,-6.397307,-0.025847,0.066749,0.108317
25771,-3.828328,-1.654393,-6.291962,-0.023848,0.096060,0.094194
25786,-3.509900,-1.893813,-6.193799,0.013323,0.032109,0.013456
25801,-3.598485,-2.178724,-6.133945,0.005596,0.001732,-0.054358
25816,-3.481169,-1.987187,-6.136339,-0.021983,-0.058755,-0.092995
25831,-3.703830,-1.838747,-6.167463,-0.003997,-0.100323,-0.123772
25846,-3.938462,-1.829170,-6.414066,0.008127,-0.091930,-0.127769
25861,-4.137180,-1.910573,-6.579266,-0.010658,-0.071678,-0.083669
25876,-4.029441,-1.824382,-6.615179,-0.087533,-0.004663,-0.009193
25891,-4.180276,-1.642422,-6.663063,-0.143224,0.026113,0.059421
25906,-4.072537,-1.470040,-6.552930,-0.156946,0.054891,0.100323
25921,-4.141969,-1.570596,-6.610391,-0.155348,0.095926,0.108184
25936,-3.586514,-1.510741,-6.478710,-0.130833,0.086734,0.076475
25951,-3.509900,-1.575385,-6.373365,-0.086334,0.036106,0.018386
25966,-3.742137,-1.769315,-6.325481,-0.062352,0.004930,-0.035440
25981,-3.732560,-1.592144,-6.337452,-0.010259,-0.072211,-0.083936
25996,-3.687071,-1.472434,-6.562507,0.044499,-0.070479,-0.124438
26011,-4.041412,-1.484405,-6.610391,0.069813,-0.068081,-0.122306
26026,-4.022259,-1.651999,-6.730101,0.065017,-0.049296,-0.105919
26041,-4.340688,-1.831564,-6.835446,0.000000,0.014655,-0.057956
26056,-4.106056,-1.625663,-6.708553,-0.097659,0.060887,0.013456
26071,-4.118027,-1.450886,-6.725312,-0.141225,0.080338,0.070479
26086,-4.247314,-1.412579,-6.653486,-0.179596,0.141891,0.126303
26101,-3.885789,-0.993594,-6.440403,-0.168271,0.138560,0.151617
26116,-3.703830,-0.737414,-6.428432,-0.064084,0.072211,0.139626
26131,-3.687071,-1.039083,-6.447585,-0.007328,0.114712,0.112314
26146,-3.560178,-1.443704,-6.397307,0.072211,0.055424,0.048096
26161,-3.548207,-1.963245,-6.325481,0.080871,0.058622,-0.027046
26176,-3.521871,-2.104503,-6.248867,0.069014,0.006262,-0.087533
26191,-3.418920,-2.037466,-6.200982,0.067282,-0.032375,-0.142025
26206,-3.641581,-2.054225,-6.186617,0.069946,-0.077807,-0.170403
26221,-4.005499,-2.286463,-6.265626,-0.013057,-0.043034,-0.142158
26236,-3.792415,-1.774103,-6.093243,-0.077008,-0.075276,-0.089265
26251,-3.957615,-1.465251,-6.294356,-0.112580,-0.033308,-0.023315
26266,-4.007894,-1.254562,-6.438008,-0.128035,-0.012524,0.055025
26281,-4.108450,-1.189918,-6.543353,-0.104054,0.005995,0.103387
26296,-3.859453,-1.249773,-6.356606,-0.032242,0.017587,0.071545
26311,-3.653552,-1.561020,-6.385336,0.013989,0.016654,0.024381
26326,-3.634398,-1.771709,-6.397307,0.005862,-0.025847,-0.006928
26341,-3.840299,-1.678335,-6.301539,0.004796,-0.066216,-0.032242
26356,-4.003105,-1.482011,-6.270414,0.024914,-0.063018,-0.039436
26371,-3.842694,-1.266533,-6.394913,0.052093,-0.069680,-0.021850
26386,-3.928885,-1.436521,-6.411672,0.070746,-0.056623,0.012124
26401,-4.043807,-1.860295,-6.564901,0.024248,-0.018519,0.075409
26416,-4.101267,-1.946486,-6.459556,-0.070213,0.041168,0.117643
26431,-3.979163,-2.102109,-6.691793,-0.122839,0.033175,0.106718
26446,-3.646369,-2.102109,-6.457162,-0.170003,0.061686,0.064617
26461,-3.785233,-1.982399,-6.426037,-0.161077,0.006528,0.009859
26476,-3.842694,-1.719037,-6.454768,-0.119642,-0.029977,-0.039703
26491,-3.936068,-1.534683,-6.354211,-0.055691,-0.049296,-0.072078
26506,-3.861847,-1.501164,-6.306327,-0.015855,-0.057689,-0.067681
26521,-4.000711,-1.364695,-6.359000,0.007194,-0.060887,-0.037571
26536,-4.206612,-1.335965,-6.404490,0.016387,-0.052893,0.006528
26551,-4.079720,-1.201889,-6.409278,0.028511,-0.037172,0.047297
26566,-3.916914,-1.082179,-6.500257,0.078473,-0.048096,0.059821
26581,-4.321534,-1.498770,-6.521805,0.094061,-0.025181,0.087400
26596,-4.225766,-1.970428,-6.557718,-0.014789,0.102188,0.128435
26611,-3.948039,-2.080561,-6.533776,-0.070613,0.086067,0.106985
26626,-3.840299,-2.284068,-6.457162,-0.133498,0.090064,0.067681
26641,-3.785233,-2.049437,-6.478710,-0.176132,0.064484,0.021717
26656,-3.890578,-1.733402,-6.368577,-0.149219,0.011858,-0.026779
26671,-3.928885,-1.517924,-6.414066,-0.102855,0.000533,-0.055025
26686,-3.857059,-1.314417,-6.483498,-0.045299,-0.031309,-0.060753
26701,-4.103662,-1.426944,-6.507440,-0.028645,0.006262,-0.043433
26716,-4.134786,-1.319205,-6.512228,-0.022649,0.014655,-0.007328
26731,-4.106056,-1.326388,-6.538565,-0.008127,0.038104,0.012657
26746,-3.955221,-1.247379,-6.485892,0.022516,0.051427,0.002265
26761,-3.828328,-1.400608,-6.342240,0.053159,0.058355,-0.020251
26776,-3.897760,-1.707066,-6.368577,0.045432,0.044499,-0.033841
26791,-3.955221,-2.056619,-6.313510,-0.041835,0.058222,-0.003331
26806,-3.703830,-1.795651,-6.258443,-0.097259,-0.014789,0.016654
26821,-3.761291,-1.668759,-6.244078,-0.115645,-0.011325,0.018652
26836,-3.811569,-1.410185,-6.370971,-0.097659,-0.052093,0.016920
26851,-3.955221,-1.338359,-6.421249,-0.056490,-0.050228,0.004130
26866,-3.938462,-1.309628,-6.461950,-0.013590,-0.063152,-0.005995
26881,-4.003105,-1.345541,-6.550536,0.006662,-0.048096,-0.003464
26896,-4.170699,-1.359907,-6.660669,0.004530,0.001732,0.013989
26911,-4.089296,-1.199495,-6.730101,0.020784,0.042101,0.037838
26926,-4.022259,-1.297657,-6.576872,0.041302,0.038904,0.051161
26941,-4.012682,-1.429338,-6.552930,0.047164,0.042368,0.057289
26956,-3.998317,-1.793257,-6.500257,0.030110,0.044100,0.062086
26971,-4.086902,-2.154782,-6.557718,-0.034907,0.050361,0.064351
26986,-3.890578,-2.161964,-6.411672,-0.127636,0.048230,0.070213
27001,-3.974375,-2.094926,-6.394913,-0.185591,0.040369,0.059688
27016,-3.883395,-1.819593,-6.296751,-0.189988,0.038371,0.019052
27031,-3.936068,-1.484405,-6.354211,-0.125504,0.012657,-0.034773
27046,-3.859453,-1.426944,-6.179434,-0.045698,0.010792,-0.076741
27061,-3.770868,-1.388637,-6.256049,0.015588,-0.037838,-0.095926
27076,-3.900155,-1.616086,-6.330269,0.019718,-0.045565,-0.082204
27091,-4.010288,-1.742979,-6.311116,0.014522,-0.053426,-0.090331
27106,-4.050989,-1.850718,-6.251261,0.016920,-0.063951,-0.107118
27121,-4.254497,-1.972822,-6.366182,-0.026513,-0.019851,-0.098325
27136,-4.228160,-1.917755,-6.469133,-0.090864,0.021717,-0.063285
27151,-4.074931,-1.632846,-6.382942,-0.138560,0.051827,-0.020651
27166,-4.086902,-1.335965,-6.351817,-0.140692,0.053159,0.022916
27181,-3.864241,-1.168370,-6.301539,-0.121507,0.059688,0.065417
27196,-3.758897,-1.149217,-6.253655,-0.097925,0.044100,0.090331
27211,-3.840299,-1.132457,-6.402095,-0.054358,0.001732,0.094727
27226,-3.914520,-1.261744,-6.406884,-0.039703,-0.012657,0.085801
27241,-3.799598,-1.448492,-6.363788,-0.013456,0.022116,0.039836
27256,-3.842694,-1.848324,-6.426037,0.016787,-0.019985,-0.036505
27271,-3.828328,-1.977611,-6.426037,-0.021051,-0.019585,-0.085135
27286,-3.988740,-1.872266,-6.397307,-0.053692,-0.055957,-0.102855
27301,-3.955221,-1.630451,-6.478710,-0.071279,-0.056757,-0.095793
27316,-4.122815,-1.561020,-6.464345,-0.088332,-0.026380,-0.060487
27331,-4.101267,-1.343147,-6.675034,-0.096326,-0.001466,-0.008527
27346,-4.237737,-1.362301,-6.624756,-0.124971,0.015855,0.069680
27361,-4.197035,-1.376666,-6.607996,-0.190254,0.072078,0.148686
27376,-3.909731,-0.921768,-6.457162,-0.164807,0.056890,0.176398
27391,-3.926491,-0.802058,-6.493075,-0.073810,0.068214,0.158812
27406,-4.039018,-0.912191,-6.433220,0.009326,0.056224,0.140959
27421,-3.950433,-1.307234,-6.528988,0.043700,0.110049,0.110582
27436,-3.610456,-1.831564,-6.440403,0.055424,0.076608,0.035306
27451,-3.466804,-2.140416,-6.320693,0.032642,0.060887,-0.054758
27466,-3.569755,-2.296039,-6.133945,0.028645,-0.029444,-0.154948
27481,-3.617639,-2.245761,-6.150704,0.006528,-0.090997,-0.223296
27496,-3.797204,-2.080561,-6.248867,0.003864,-0.148020,-0.253006
27511,-4.206612,-2.085350,-6.560112,-0.069547,-0.094594,-0.215701
27526,-4.204218,-1.714248,-6.500257,-0.147354,-0.081804,-0.137628
27541,-4.563348,-1.565808,-6.730101,-0.228092,-0.010259,-0.029577
27556,-4.323928,-1.084573,-6.653486,-0.301636,0.067681,0.092329
27571,-4.077325,-0.390255,-6.461950,-0.257136,0.101389,0.153882
27586,-3.955221,-0.117316,-6.514623,-0.095527,0.096060,0.150018
27601,-3.881001,-0.169988,-6.349423,0.064084,0.063018,0.130433
27616,-3.873818,-1.122881,-6.294356,0.095127,0.084602,0.105919
27631,-3.275268,-1.479617,-6.181828,0.117643,0.008127,0.010126
27646,-3.667917,-2.061408,-6.382942,0.116844,-0.035573,-0.107384
27661,-3.799598,-1.932121,-6.418855,0.076475,-0.085268,-0.164541
27676,-3.998317,-1.529895,-6.397307,0.079672,-0.107518,-0.194651
27691,-4.232948,-1.601721,-6.581660,0.091263,-0.131499,-0.175732
27706,-4.357447,-1.685518,-6.641515,-0.024648,-0.045299,-0.073144
27721,-4.532224,-1.340753,-6.555324,-0.122440,-0.023315,0.066616
27736,-4.544195,-1.122881,-6.746861,-0.196116,0.047963,0.194917
27751,-4.304775,-0.780510,-6.679822,-0.203044,0.110982,0.265530
27766,-4.165911,-0.667982,-6.552930,-0.136029,0.118975,0.290577
27781,-3.967192,-1.156399,-6.411672,-0.062219,0.188789,0.225827
27796,-3.488352,-1.661576,-6.155492,0.065683,0.113380,0.064750
27811,-3.349488,-2.355894,-6.105214,0.100856,0.031043,-0.094594
27826,-3.469198,-2.379837,-6.136339,0.080205,-0.100323,-0.204910
27841,-3.823540,-2.197877,-6.229712,0.066083,-0.134697,-0.268994
27856,-4.065354,-1.704672,-6.342240,0.101522,-0.178130,-0.293242
27871,-4.446033,-1.862689,-6.641515,0.058489,-0.136162,-0.212504
27886,-4.630386,-1.687912,-6.524199,-0.113113,-0.009326,-0.050095
27901,-4.812346,-1.323994,-6.787562,-0.217167,0.036772,0.112580
27916,-4.568137,-0.993594,-6.696582,-0.279253,0.145089,0.219965
27931,-4.022259,-0.447716,-6.629544,-0.203311,0.159611,0.235953
27946,-3.809175,-0.847547,-6.452374,-0.079273,0.166139,0.176798
27961,-3.330334,-1.381454,-6.258443,0.051161,0.099124,0.048629
27976,-3.502717,-1.941698,-6.311116,0.104187,0.015055,-0.064884
27991,-3.488352,-1.831564,-6.265626,0.102055,-0.096992,-0.135096
28006,-3.931279,-1.699883,-6.385336,0.084868,-0.077141,-0.158412
28021,-3.897760,-1.458069,-6.442797,0.094461,-0.077274,-0.154015
28036,-4.103662,-1.273715,-6.536170,0.118975,-0.050894,-0.118709
28051,-4.137180,-1.515530,-6.531382,0.075542,-0.024115,-0.041701
28066,-4.103662,-1.503559,-6.552930,-0.049029,0.020118,0.073810
28081,-4.036624,-1.256956,-6.406884,-0.132832,0.055424,0.152550
28096,-4.252102,-1.134852,-6.555324,-0.151084,0.083136,0.198381
28111,-4.144363,-0.928950,-6.540959,-0.160011,0.107384,0.245945
