T,AX,AY,AZ,GX,GY,GZ
46,-3.430891,2.442086,-6.442797,-0.029178,0.026779,0.003464
61,-3.603273,2.394202,-6.461950,-0.032775,0.012257,0.001599
76,-3.440468,2.449268,-6.359000,-0.034507,0.017587,0.004530
91,-3.521871,2.506729,-6.476315,-0.039170,0.039170,0.001332
106,-3.440468,2.463634,-6.327875,-0.033308,0.002398,0.001599
121,-3.466804,2.418144,-6.392519,-0.034773,0.036239,0.001332
136,-3.584120,2.501941,-6.414066,-0.036639,0.033308,0.000400
151,-3.349488,2.477999,-6.392519,-0.035440,0.021583,0.000400
166,-3.399766,2.375048,-6.536170,-0.038504,0.023715,0.000799
181,-3.459621,2.403779,-6.519411,-0.042234,0.016920,0.006928
196,-3.572149,2.454057,-6.363788,-0.035706,-0.001865,0.004796
211,-3.471592,2.525883,-6.409278,-0.032109,0.016787,0.004263
226,-3.426103,2.564190,-6.392519,-0.028911,0.013590,0.001599
241,-3.378219,2.384625,-6.385336,-0.023449,-0.000533,0.000266
256,-3.536236,2.456451,-6.464345,-0.027446,0.032908,0.003597
271,-3.466804,2.487576,-6.359000,-0.027579,-0.003331,0.002798
286,-3.318363,2.430115,-6.284780,-0.025714,0.015721,0.006662
301,-3.663129,2.401384,-6.435614,-0.032908,0.034374,0.009992
316,-3.445256,2.418144,-6.356606,-0.029711,0.007994,0.008127
331,-3.387795,2.511518,-6.452374,-0.037038,0.042501,0.007594
346,-3.387795,2.566584,-6.572083,-0.028378,0.011325,-0.001199
361,-3.327940,2.537854,-6.473921,-0.017720,-0.016387,-0.003198
376,-3.538630,2.470816,-6.435614,-0.012257,-0.013057,-0.007328
391,-3.548207,2.454057,-6.442797,-0.006528,-0.037438,-0.006395
406,-3.325546,2.482787,-6.392519,-0.000799,-0.037971,-0.015721
421,-3.596091,2.422932,-6.409278,0.000000,-0.021717,-0.023049
436,-3.433285,2.533065,-6.461950,0.026247,-0.082204,-0.026646
451,-3.545813,2.324770,-6.421249,0.021450,-0.041035,-0.031709
466,-3.411737,2.367865,-6.397307,0.014655,-0.054225,-0.033841
481,-3.476381,2.339135,-6.373365,-0.002798,-0.033441,-0.027446
496,-3.605668,2.252944,-6.373365,-0.023582,-0.019985,-0.023449
511,-3.622427,2.377442,-6.493075,-0.026513,-0.002931,-0.018386
526,-3.447650,2.444480,-6.344635,-0.014922,-0.006528,-0.023982
541,-3.555389,2.384625,-6.349423,-0.018652,-0.001066,-0.031709
556,-3.586514,2.382231,-6.382942,-0.022383,-0.019585,-0.031309
571,-3.722984,2.245761,-6.332664,-0.037838,-0.015322,-0.026913
586,-3.586514,2.288857,-6.349423,-0.062219,-0.001466,-0.025447
601,-3.471592,2.387019,-6.356606,-0.077407,0.023315,-0.022383
616,-3.552995,2.422932,-6.428432,-0.080205,0.024648,-0.026247
631,-3.612850,2.437297,-6.416461,-0.079406,0.040369,-0.031842
646,-3.414132,2.485181,-6.397307,-0.073144,0.019452,-0.034374
661,-3.452439,2.475605,-6.438008,-0.065017,0.030510,-0.038637
676,-3.567360,2.401384,-6.397307,-0.053292,-0.022250,-0.039703
691,-3.641581,2.418144,-6.359000,-0.054492,-0.021184,-0.038904
706,-3.620033,2.494758,-6.282385,-0.043167,-0.010792,-0.041168
721,-3.514688,2.501941,-6.327875,-0.033841,-0.010658,-0.039836
736,-3.608062,2.501941,-6.385336,-0.023182,-0.003198,-0.046498
751,-3.754108,2.413355,-6.394913,-0.016787,0.004263,-0.052893
766,-3.557784,2.537854,-6.356606,-0.006129,-0.015188,-0.062086
781,-3.567360,2.557007,-6.387730,-0.011058,0.005063,-0.061553
796,-3.667917,2.365471,-6.354211,-0.007861,-0.008260,-0.065017
811,-3.734955,2.264915,-6.454768,-0.016787,0.011458,-0.055691
826,-3.634398,2.257732,-6.323087,-0.014655,0.011058,-0.053825
841,-3.576937,2.229002,-6.339846,-0.023449,0.015055,-0.043167
856,-3.620033,2.219425,-6.327875,-0.029711,0.027712,-0.033974
871,-3.689465,2.097321,-6.325481,-0.033974,0.022783,-0.026380
886,-3.775656,2.140416,-6.335058,-0.054625,0.057423,-0.013590
901,-3.526659,2.303222,-6.347029,-0.062086,0.052093,0.005196
916,-3.651158,2.248155,-6.370971,-0.076075,0.101522,0.021184
931,-3.584120,2.334347,-6.454768,-0.068081,0.063818,0.023715
946,-3.545813,2.379837,-6.488286,-0.064884,0.066482,0.022250
961,-3.569755,2.475605,-6.435614,-0.058888,0.035440,0.024115
976,-3.337517,2.458845,-6.344635,-0.050361,0.034773,0.025714
991,-3.715801,2.375048,-6.471527,-0.049162,0.022649,0.023715
1006,-3.579331,2.353500,-6.394913,-0.042634,0.016121,0.030110
1021,-3.667917,2.305616,-6.392519,-0.037438,0.005329,0.031842
1036,-3.438074,2.348712,-6.409278,-0.049296,0.030243,0.037438
1051,-3.627216,2.391808,-6.550536,-0.053026,0.039436,0.039703
1066,-3.476381,2.398990,-6.320693,-0.050228,0.019585,0.035173
1081,-3.691859,2.394202,-6.445191,-0.055824,0.049962,0.035173
1096,-3.371036,2.554613,-6.461950,-0.045032,0.000799,0.029977
1111,-3.620033,2.365471,-6.380548,-0.051694,0.051294,0.036239
1126,-3.699042,2.494758,-6.303933,-0.046231,0.025047,0.030910
1141,-3.445256,2.557007,-6.378153,-0.035040,0.019452,0.028511
1156,-3.615244,2.466028,-6.430826,-0.029044,0.010525,0.024914
1171,-3.464410,2.466028,-6.380548,-0.036772,0.005729,0.024648
1186,-3.663129,2.406173,-6.359000,-0.040769,0.021184,0.028245
1201,-3.555389,2.434903,-6.414066,-0.050361,0.028911,0.027446
1216,-3.454833,2.466028,-6.464345,-0.051427,0.036772,0.029311
1231,-3.512294,2.425326,-6.438008,-0.048896,0.021717,0.035706
1246,-3.505111,2.341529,-6.404490,-0.048230,0.025181,0.026380
1261,-3.584120,2.427721,-6.332664,-0.054492,0.016787,0.027179
1276,-3.390190,2.489970,-6.320693,-0.059554,0.042634,0.029977
1291,-3.488352,2.499547,-6.418855,-0.059155,0.050894,0.018253
1306,-3.452439,2.525883,-6.449979,-0.049296,0.025714,0.006129
1321,-3.557784,2.475605,-6.363788,-0.049429,0.046231,0.003464
1336,-3.445256,2.564190,-6.368577,-0.043034,0.028378,0.004263
1351,-3.390190,2.547431,-6.392519,-0.044899,0.027979,0.000533
1366,-3.526659,2.444480,-6.402095,-0.044100,0.041302,0.001066
1381,-3.603273,2.554613,-6.406884,-0.044233,0.028245,0.003198
1396,-3.394978,2.504335,-6.339846,-0.042767,0.018386,0.002931
1411,-3.430891,2.475605,-6.433220,-0.047430,0.035040,0.006395
1426,-3.569755,2.545036,-6.435614,-0.043167,0.008926,0.009992
1441,-3.406949,2.489970,-6.359000,-0.039436,-0.001865,0.006795
1456,-3.509900,2.480393,-6.435614,-0.034374,-0.001599,0.007727
1471,-3.438074,2.506729,-6.370971,-0.029711,-0.032375,0.001732
1486,-3.488352,2.418144,-6.296751,-0.036772,0.012124,0.002132
1501,-3.648763,2.420538,-6.370971,-0.030377,0.011191,-0.000266
1516,-3.495534,2.504335,-6.296751,-0.029444,0.004663,0.003864
1531,-3.545813,2.454057,-6.382942,-0.036772,0.036905,0.005462
1546,-3.608062,2.494758,-6.380548,-0.037438,0.025447,0.009992
1561,-3.481169,2.477999,-6.272809,-0.035306,0.011858,0.012124
1576,-3.603273,2.341529,-6.399701,-0.046897,0.062352,0.017187
1591,-3.416526,2.466028,-6.397307,-0.048363,0.032242,0.020118
1606,-3.335123,2.456451,-6.485892,-0.061953,0.056357,0.028511
1621,-3.612850,2.504335,-6.591237,-0.059688,0.036772,0.036505
1636,-3.497929,2.509123,-6.402095,-0.056490,0.015188,0.028245
1651,-3.442862,2.731784,-6.459556,-0.054358,0.039037,0.030510
1666,-3.452439,2.497152,-6.461950,-0.042101,0.002531,0.017187
1681,-3.538630,2.533065,-6.363788,-0.046231,-0.017853,0.013323
1696,-3.557784,2.525883,-6.313510,-0.049162,0.011191,0.011191
1711,-3.519476,2.597709,-6.421249,-0.046364,0.013456,0.008527
1726,-3.356671,2.545036,-6.270414,-0.043700,0.022783,0.001466
1741,-3.612850,2.499547,-6.342240,-0.053026,0.063018,0.004130
1756,-3.564966,2.466028,-6.287174,-0.059554,0.056890,0.007594
1771,-3.366247,2.549825,-6.406884,-0.067415,0.065550,0.013723
1786,-3.411737,2.425326,-6.473921,-0.072211,0.062352,0.018652
1801,-3.404555,2.398990,-6.466739,-0.085268,0.040103,0.024248
1816,-3.569755,2.427721,-6.370971,-0.100323,0.067415,0.029444
1831,-3.507505,2.619257,-6.521805,-0.096326,0.058089,0.024115
1846,-3.404555,2.693477,-6.313510,-0.082737,0.046631,0.017720
1861,-3.615244,2.770091,-6.272809,-0.056357,0.078740,0.014389
1876,-3.588908,2.798822,-6.540959,-0.047430,0.094727,0.008926
1891,-3.277662,2.628834,-6.370971,-0.023449,0.020118,0.003331
1906,-3.354276,2.513912,-6.368577,-0.035040,0.045032,0.006129
1921,-3.502717,2.444480,-6.277597,-0.042900,0.030776,0.019052
1936,-3.347094,2.535460,-6.347029,-0.050628,0.043167,0.021051
1951,-3.490746,2.645593,-6.452374,-0.055025,0.079939,0.023982
1966,-3.330334,2.645593,-6.351817,-0.046764,0.032375,0.024648
1981,-3.315969,2.511518,-6.344635,-0.054758,0.075276,0.022916
1996,-3.541024,2.545036,-6.562507,-0.052227,0.062752,0.026513
2011,-3.337517,2.528277,-6.488286,-0.051294,0.041568,0.025181
2026,-3.327940,2.549825,-6.368577,-0.052227,0.069680,0.031975
2041,-3.476381,2.463634,-6.397307,-0.050095,0.045032,0.043433
2056,-3.323152,2.566584,-6.299145,-0.054891,0.075142,0.048629
2071,-3.342305,2.681506,-6.560112,-0.066349,0.075276,0.049429
2086,-3.299210,2.877831,-6.560112,-0.029711,0.039570,0.052893
2101,-3.349488,2.619257,-6.428432,-0.040369,0.014389,0.043567
2116,-3.349488,2.736573,-6.461950,-0.049296,0.001066,0.035440
2131,-3.284845,2.810793,-6.222530,-0.034907,-0.004663,0.032775
2146,-3.361459,2.669535,-6.363788,-0.035972,0.024781,0.029844
2161,-3.430891,2.736573,-6.368577,-0.021583,0.020917,0.026247
2176,-3.268085,2.693477,-6.382942,-0.020518,0.008127,0.015988
2191,-3.306392,2.652776,-6.414066,-0.034107,0.056490,0.017054
2206,-3.375824,2.487576,-6.361394,-0.039703,0.053292,0.021051
2221,-3.246537,2.607285,-6.402095,-0.046498,0.061553,0.022250
2236,-3.320758,2.667141,-6.495469,-0.042234,0.058222,0.017986
2251,-3.157952,2.614468,-6.461950,-0.037838,0.017986,0.015455
2266,-3.227384,2.880225,-6.471527,-0.000266,0.033574,0.015188
2281,-3.447650,2.676718,-6.514623,-0.035306,0.012923,0.009726
2296,-3.356671,2.901772,-6.426037,-0.038237,-0.001865,0.012790
2311,-3.248932,2.748544,-6.390124,-0.036905,0.015188,0.010925
2326,-3.459621,2.561796,-6.473921,-0.045165,0.034374,0.015855
2341,-3.179500,2.681506,-6.339846,-0.049562,0.007061,0.016787
2356,-3.378219,2.652776,-6.430826,-0.053159,0.062752,0.020384
2371,-3.268085,2.765303,-6.414066,-0.040369,0.004930,0.011991
2386,-3.143587,2.633622,-6.399701,-0.035440,0.007061,0.008127
2401,-3.327940,2.614468,-6.370971,-0.030510,0.008394,-0.005729
2416,-3.347094,2.636016,-6.440403,-0.026380,0.003064,-0.003597
2431,-3.251326,2.633622,-6.428432,-0.032508,0.022116,-0.003597
2446,-3.306392,2.604891,-6.452374,-0.043567,0.051427,0.004397
2461,-3.392584,2.552219,-6.533776,-0.048629,0.033441,0.009459
2476,-3.263297,2.628834,-6.426037,-0.061686,0.052360,0.018919
2491,-3.378219,2.789245,-6.473921,-0.055025,0.040236,0.023582
2506,-3.124433,2.849100,-6.507440,-0.046364,-0.003064,0.020917
2521,-3.301604,2.628834,-6.306327,-0.048496,0.002398,0.022916
2536,-3.414132,2.698265,-6.402095,-0.050628,0.014922,0.026113
2551,-3.303998,2.803610,-6.536170,-0.041168,-0.006928,0.019185
2566,-3.138798,2.863465,-6.411672,-0.042234,0.016387,0.020518
2581,-3.332729,2.719813,-6.399701,-0.031576,-0.011191,0.016787
2596,-3.311181,2.612074,-6.344635,-0.029044,0.001066,0.016920
2611,-3.323152,2.636016,-6.438008,-0.034507,0.022516,0.017320
2626,-3.217807,2.645593,-6.461950,-0.036772,0.024381,0.014389
2641,-3.260903,2.612074,-6.435614,-0.044233,0.043433,0.015188
2656,-3.347094,2.614468,-6.406884,-0.049296,0.057689,0.019585
2671,-3.256114,2.736573,-6.435614,-0.039969,0.042634,0.016654
2686,-3.136404,2.782062,-6.433220,-0.035306,0.040103,0.015455
2701,-3.311181,2.786851,-6.471527,-0.035306,0.038637,0.015588
2716,-3.256114,2.722207,-6.473921,-0.029844,0.017187,0.016787
2731,-3.313575,2.803610,-6.533776,-0.030643,0.020118,0.024781
2746,-3.208230,2.810793,-6.471527,-0.017720,-0.015588,0.031576
2761,-3.150769,2.774880,-6.378153,-0.021317,-0.006528,0.031043
2776,-3.380613,2.746149,-6.323087,-0.017187,0.002531,0.026779
2791,-3.287239,2.688689,-6.442797,-0.015988,0.005596,0.025314
2806,-3.215413,2.475605,-6.457162,-0.033308,0.017986,0.028778
2821,-3.098097,2.602497,-6.471527,-0.053292,0.054225,0.039303
2836,-3.325546,2.647987,-6.557718,-0.062219,0.047564,0.035972
2851,-3.210624,2.820369,-6.464345,-0.050628,0.020118,0.024115
2866,-3.280056,2.815581,-6.447585,-0.041568,0.010392,0.011325
2881,-3.208230,2.753332,-6.452374,-0.031043,-0.006262,0.002398
2896,-3.335123,2.815581,-6.392519,-0.027179,0.018253,-0.001199
2911,-3.327940,2.774880,-6.411672,-0.022116,0.015322,0.000400
2926,-3.282450,2.772485,-6.253655,-0.037038,0.038770,0.011325
2941,-3.246537,2.770091,-6.416461,-0.054625,0.060887,0.023049
2956,-3.224990,2.813187,-6.593631,-0.055158,0.035306,0.025580
2971,-3.208230,2.659958,-6.610391,-0.054891,-0.005596,0.022116
2986,-3.246537,2.767697,-6.459556,-0.052760,-0.014922,0.020784
3001,-3.148375,2.885013,-6.332664,-0.027979,-0.020651,0.016254
3016,-3.236961,2.779668,-6.342240,-0.022383,-0.027845,0.003064
3031,-3.414132,2.731784,-6.366182,-0.022916,-0.004130,0.002531
3046,-3.378219,2.667141,-6.289568,-0.019718,0.024648,0.001998
3061,-3.196259,2.580949,-6.222530,-0.030243,0.059288,0.015322
3076,-3.222595,2.681506,-6.454768,-0.038770,0.076342,0.017720
3091,-3.272874,2.748544,-6.406884,-0.029977,0.059421,0.022649
3106,-3.213019,2.786851,-6.337452,-0.030643,0.077807,0.023848
3121,-3.143587,3.141193,-6.538565,0.034240,0.058089,0.031576
3136,-3.191471,2.688689,-6.588843,-0.029711,0.066349,0.021051
3151,-3.224990,2.901772,-6.533776,-0.051827,0.055824,0.014655
3166,-3.236961,2.937685,-6.394913,-0.040769,0.042900,0.005995
3181,-3.107674,2.925714,-6.449979,-0.024248,0.030377,-0.007727
3196,-3.193865,2.889802,-6.390124,-0.014389,0.016920,-0.021850
3211,-3.246537,2.743755,-6.445191,-0.012257,0.001466,-0.031443
3226,-3.136404,2.686294,-6.488286,-0.009726,-0.006928,-0.035440
3241,-3.177106,2.734178,-6.552930,-0.005596,-0.017853,-0.035573
3256,-3.134010,2.631228,-6.411672,-0.015855,-0.018253,-0.031176
3271,-3.354276,2.619257,-6.356606,-0.031309,0.024781,-0.024781
3286,-3.335123,2.710236,-6.315904,-0.035306,0.037704,-0.017720
3301,-3.210624,2.748544,-6.325481,-0.032508,0.042900,-0.012790
3316,-3.136404,2.765303,-6.404490,-0.035040,0.046631,-0.015721
3331,-3.203442,2.655170,-6.545747,-0.034907,0.032908,-0.010925
3346,-3.201048,2.688689,-6.418855,-0.035440,0.023182,-0.003464
3361,-3.260903,2.712631,-6.476315,-0.035839,0.027179,-0.001732
3376,-3.174711,2.717419,-6.397307,-0.031043,0.009326,0.000133
3391,-3.172317,2.715025,-6.447585,-0.027179,0.020118,0.004263
3406,-3.251326,2.758120,-6.493075,-0.018919,0.004796,0.001732
3421,-3.119645,2.808398,-6.524199,-0.013723,0.000000,0.001466
3436,-3.169923,2.738967,-6.469133,-0.021583,0.019452,-0.000933
3451,-3.172317,2.700660,-6.509834,-0.029178,0.019452,0.002665
3466,-3.303998,2.707842,-6.433220,-0.028511,0.025447,0.004130
3481,-3.102885,2.844311,-6.593631,-0.018519,0.007727,-0.004397
3496,-3.035848,2.767697,-6.459556,-0.013989,-0.005329,-0.012524
3511,-3.141193,2.695871,-6.533776,-0.012524,-0.009726,-0.017187
3526,-3.277662,2.760514,-6.426037,-0.009992,-0.004530,-0.019585
3541,-3.210624,2.738967,-6.454768,-0.007328,-0.014123,-0.021184
3556,-3.198653,2.731784,-6.507440,-0.010792,0.004397,-0.021184
3571,-3.253720,2.712631,-6.433220,-0.013456,-0.002531,-0.021717
3586,-3.356671,2.545036,-6.375759,-0.024648,0.018786,-0.008793
3601,-3.366247,2.683900,-6.387730,-0.029577,0.019052,0.000666
3616,-3.129222,2.659958,-6.421249,-0.034640,0.027179,0.006395
3631,-3.260903,2.597709,-6.481104,-0.041302,0.038637,0.014522
3646,-3.277662,2.578555,-6.361394,-0.044766,0.023982,0.020784
3661,-3.332729,2.650381,-6.359000,-0.045965,0.044899,0.027579
3676,-3.157952,2.892196,-6.488286,-0.033708,0.012257,0.022383
3691,-3.069366,2.930503,-6.505046,-0.016787,-0.003064,0.002265
3706,-3.265691,2.803610,-6.416461,-0.007194,-0.009326,-0.010525
3721,-3.239355,2.774880,-6.438008,-0.000933,-0.008260,-0.022783
3736,-3.122039,2.719813,-6.375759,-0.000799,0.017453,-0.027179
3751,-3.112462,2.676718,-6.457162,-0.010925,0.042634,-0.030910
3766,-3.323152,2.561796,-6.442797,-0.016654,0.052360,-0.020518
3781,-3.272874,2.540248,-6.485892,-0.024515,0.063818,-0.006528
3796,-3.213019,2.592920,-6.536170,-0.036372,0.049029,0.002665
3811,-3.055001,2.595315,-6.524199,-0.037971,0.028112,0.006129
3826,-3.244143,2.640805,-6.423643,-0.043700,0.028378,0.011991
3841,-3.315969,2.540248,-6.442797,-0.043700,0.024248,0.019985
3856,-3.232172,2.729390,-6.533776,-0.038371,0.022383,0.025047
3871,-3.148375,2.683900,-6.576872,-0.034374,0.019319,0.020784
3886,-3.145981,2.588132,-6.564901,-0.031576,-0.003064,0.018519
3901,-3.287239,2.679112,-6.390124,-0.028645,0.014922,0.019319
3916,-3.172317,2.743755,-6.366182,-0.029311,0.010792,0.013057
3931,-3.131616,2.839523,-6.536170,-0.035040,0.024914,0.008527
3946,-3.114856,2.820369,-6.421249,-0.024115,0.002265,0.009326
3961,-3.217807,2.636016,-6.435614,-0.029178,0.014256,0.011858
3976,-3.299210,2.686294,-6.416461,-0.040769,0.023049,0.015322
3991,-3.110068,2.698265,-6.454768,-0.044899,0.031309,0.018786
4006,-3.260903,2.715025,-6.414066,-0.041435,0.040236,0.017453
4021,-3.246537,2.762909,-6.457162,-0.037038,0.029178,0.014389
4036,-3.232172,2.683900,-6.562507,-0.034374,0.025847,0.011058
4051,-3.124433,2.722207,-6.588843,-0.034907,0.022250,0.009992
4066,-3.208230,2.770091,-6.576872,-0.032242,0.017187,0.010259
4081,-3.186682,2.688689,-6.354211,-0.022916,-0.023315,0.005596
4096,-3.193865,2.703054,-6.430826,-0.030776,0.008926,0.007061
4111,-3.167529,2.738967,-6.442797,-0.028511,0.001466,0.007861
4126,-3.074155,2.774880,-6.449979,-0.030377,-0.005729,0.007194
4141,-3.186682,2.789245,-6.311116,-0.027979,0.006662,0.007727
4156,-3.260903,2.762909,-6.426037,-0.025980,0.011458,0.003597
4171,-3.157952,2.794033,-6.416461,-0.027179,0.019452,-0.000799
4186,-3.165135,2.746149,-6.435614,-0.031576,0.031176,-0.001066
4201,-3.169923,2.767697,-6.493075,-0.029178,0.024781,0.002265
4216,-3.217807,2.698265,-6.564901,-0.025847,0.017587,-0.005063
4231,-3.239355,2.621651,-6.490681,-0.022383,-0.005462,0.000266
4246,-3.105279,2.643199,-6.557718,-0.025714,0.001732,0.004930
4261,-3.236961,2.643199,-6.421249,-0.026513,0.003064,0.008127
4276,-3.222595,2.681506,-6.430826,-0.022649,-0.002931,0.010525
4291,-3.165135,2.774880,-6.464345,-0.023049,-0.004530,0.007061
4306,-3.069366,2.719813,-6.457162,-0.016787,-0.007328,0.007594
4321,-3.205836,2.726996,-6.569689,-0.021450,-0.002531,0.005063
4336,-3.193865,2.703054,-6.526594,-0.019452,-0.008926,0.004397
4351,-3.196259,2.743755,-6.390124,-0.015988,-0.000400,0.001865
4366,-3.134010,2.734178,-6.416461,-0.017054,-0.015721,0.002531
4381,-3.213019,2.726996,-6.464345,-0.015588,-0.001199,0.002931
4396,-3.253720,2.717419,-6.483498,-0.014123,-0.009193,0.001066
4411,-3.210624,2.777274,-6.459556,-0.013323,-0.006262,-0.004397
4426,-3.232172,2.767697,-6.392519,-0.009992,-0.008527,-0.013190
4441,-3.184288,2.832340,-6.418855,-0.006662,-0.006662,-0.018519
4456,-3.363853,2.741361,-6.430826,-0.001599,-0.001199,-0.024648
4471,-3.272874,2.705448,-6.380548,0.002665,-0.005862,-0.026513
4486,-3.258508,2.681506,-6.430826,0.000133,0.005596,-0.022516
4501,-3.227384,2.626439,-6.426037,-0.002665,-0.003198,-0.018652
4516,-3.287239,2.695871,-6.545747,-0.012257,0.023449,-0.009326
4531,-3.313575,2.655170,-6.505046,-0.004663,-0.009859,-0.007194
4546,-3.210624,2.719813,-6.445191,-0.006528,0.000266,-0.004663
4561,-3.165135,2.602497,-6.399701,-0.003864,-0.006795,-0.002931
4576,-3.287239,2.583344,-6.433220,-0.008394,0.007461,-0.003198
4591,-3.390190,2.568978,-6.387730,-0.006795,0.017453,0.005862
4606,-3.220201,2.549825,-6.366182,-0.012524,0.029444,0.014789
4621,-3.303998,2.525883,-6.392519,-0.016387,0.033708,0.029178
4636,-3.296816,2.444480,-6.394913,-0.022250,0.038770,0.040236
4651,-3.280056,2.391808,-6.478710,-0.035573,0.044632,0.050761
4666,-3.157952,2.499547,-6.588843,-0.044366,0.046764,0.056890
4681,-3.045424,2.578555,-6.560112,-0.049162,0.051161,0.067681
4696,-3.193865,2.604891,-6.550536,-0.047697,0.046498,0.070213
4711,-3.234566,2.707842,-6.605602,-0.036905,0.023982,0.065417
4726,-3.236961,2.813187,-6.505046,-0.022783,0.010259,0.060620
4741,-3.033453,2.992752,-6.540959,-0.006528,-0.021051,0.037704
4756,-3.102885,3.035848,-6.505046,0.005596,-0.040902,0.023449
4771,-3.459621,2.806004,-6.370971,0.014655,-0.033308,-0.011591
4786,-3.184288,2.865859,-6.447585,0.019185,-0.041835,-0.023982
4801,-3.213019,2.760514,-6.390124,0.014922,-0.010392,-0.036505
4816,-3.157952,2.748544,-6.382942,0.012657,-0.018119,-0.045832
4831,-3.246537,2.559402,-6.440403,0.005196,-0.002798,-0.051294
4846,-3.268085,2.576161,-6.445191,-0.007594,0.010126,-0.047297
4861,-3.215413,2.521094,-6.375759,-0.019185,0.011458,-0.046098
4876,-3.246537,2.576161,-6.452374,-0.023182,0.027312,-0.040502
4891,-3.342305,2.509123,-6.483498,-0.016121,0.014789,-0.036639
4906,-3.378219,2.494758,-6.409278,-0.017587,0.021317,-0.033841
4921,-3.253720,2.509123,-6.543353,-0.021184,0.021184,-0.023982
4936,-3.258508,2.425326,-6.392519,-0.029444,0.023449,-0.011325
4951,-3.301604,2.568978,-6.442797,-0.038904,0.041035,-0.001466
4966,-3.275268,2.506729,-6.505046,-0.038770,0.022783,0.006129
4981,-3.155558,2.595315,-6.428432,-0.049695,0.051827,0.009992
4996,-3.181894,2.588132,-6.476315,-0.044366,0.024515,0.015721
5011,-3.224990,2.645593,-6.478710,-0.043300,0.013323,0.015588
5026,-3.313575,2.700660,-6.457162,-0.037438,0.009459,0.012391
5041,-3.186682,2.729390,-6.473921,-0.031709,-0.003730,0.008660
5056,-3.150769,2.590526,-6.421249,-0.034240,0.013057,0.008394
5071,-3.294421,2.516306,-6.394913,-0.037438,0.029178,0.010525
5086,-3.260903,2.528277,-6.466739,-0.039570,0.023582,0.007328
5101,-3.114856,2.616862,-6.430826,-0.036239,0.029711,0.006662
5116,-3.220201,2.607285,-6.550536,-0.032508,0.019985,0.004530
5131,-3.265691,2.590526,-6.600814,-0.031309,0.023315,0.005995
5146,-3.320758,2.590526,-6.478710,-0.022516,0.013190,0.002931
5161,-3.184288,2.698265,-6.442797,-0.019985,0.010525,0.004530
5176,-3.114856,2.636016,-6.512228,-0.016121,-0.001732,0.000933
5191,-3.222595,2.564190,-6.435614,-0.025314,0.017187,0.005329
5206,-3.301604,2.542642,-6.607996,-0.032908,0.008926,0.006928
5221,-3.172317,2.609680,-6.421249,-0.033974,0.008394,0.010126
5236,-3.224990,2.671929,-6.452374,-0.036505,0.022916,0.010126
5251,-3.157952,2.585738,-6.428432,-0.038770,0.021583,0.010392
5266,-3.227384,2.624045,-6.514623,-0.033974,0.025980,0.007994
5281,-3.272874,2.609680,-6.517017,-0.030910,0.008793,0.004663
5296,-3.145981,2.664747,-6.404490,-0.030243,0.022783,0.002132
5311,-3.162740,2.578555,-6.481104,-0.025047,0.027179,0.000933
5326,-3.215413,2.566584,-6.471527,-0.020784,-0.005063,-0.002398
5341,-3.320758,2.580949,-6.469133,-0.021717,-0.001332,-0.000799
5356,-3.179500,2.554613,-6.373365,-0.025714,0.004263,0.004397
5371,-3.189077,2.655170,-6.380548,-0.024781,0.021184,0.006129
5386,-3.246537,2.600103,-6.473921,-0.023449,0.004130,0.005196
5401,-3.217807,2.633622,-6.555324,-0.022649,0.003464,0.008127
5416,-3.222595,2.513912,-6.452374,-0.021983,-0.010525,0.011458
5431,-3.081337,2.669535,-6.473921,-0.022916,-0.008793,0.008394
5446,-3.315969,2.583344,-6.483498,-0.026913,-0.006129,0.007861
5461,-3.368642,2.600103,-6.359000,-0.025181,0.005729,0.007461
5476,-3.208230,2.523489,-6.382942,-0.031576,0.018919,0.006795
5491,-3.193865,2.600103,-6.449979,-0.033175,0.035173,0.003331
5506,-3.244143,2.585738,-6.615179,-0.036639,0.025847,0.003464
5521,-3.275268,2.535460,-6.473921,-0.041701,0.026113,-0.001199
5536,-3.287239,2.549825,-6.505046,-0.041168,0.028645,0.001466
5551,-3.177106,2.667141,-6.426037,-0.040502,0.025714,-0.000400
5566,-3.275268,2.597709,-6.438008,-0.039836,0.026513,0.003198
5581,-3.294421,2.590526,-6.569689,-0.041835,0.032242,0.005063
5596,-3.270479,2.705448,-6.435614,-0.029311,0.022250,0.003730
5611,-3.081337,2.710236,-6.493075,-0.023848,0.002265,0.000533
5626,-3.232172,2.636016,-6.581660,-0.019452,0.008527,0.000533
5641,-3.229778,2.588132,-6.423643,0.000400,-0.040769,-0.003730
5656,-3.248932,2.501941,-6.454768,-0.005862,-0.020651,0.000533
5671,-3.193865,2.552219,-6.368577,-0.009593,-0.029577,0.003464
5686,-3.179500,2.537854,-6.445191,-0.020917,-0.010658,0.005063
5701,-3.402161,2.521094,-6.354211,-0.026779,0.012257,0.008926
5716,-3.282450,2.590526,-6.440403,-0.027446,0.020251,0.007194
5731,-3.227384,2.559402,-6.402095,-0.035306,0.050761,0.006795
5746,-3.167529,2.597709,-6.445191,-0.033974,0.036505,0.007594
5761,-3.268085,2.588132,-6.569689,-0.034374,0.037838,0.005862
5776,-3.292027,2.597709,-6.548141,-0.033974,0.027046,0.006928
5791,-3.102885,2.659958,-6.600814,-0.034640,0.018119,0.005462
5806,-3.184288,2.597709,-6.416461,-0.029844,0.014922,0.001199
5821,-3.303998,2.580949,-6.512228,-0.034907,0.027579,0.003198
5836,-3.289633,2.683900,-6.545747,-0.029711,0.017187,0.005329
5851,-3.265691,2.628834,-6.536170,-0.029977,0.023982,0.004796
5866,-3.124433,2.542642,-6.502652,-0.021583,-0.011991,0.005729
5881,-3.265691,2.580949,-6.356606,-0.025847,0.004796,0.005862
5896,-3.392584,2.504335,-6.418855,-0.033974,0.004263,0.005862
5911,-3.248932,2.566584,-6.524199,-0.036505,0.009593,0.006129
5926,-3.122039,2.703054,-6.385336,-0.035306,0.029311,0.003331
5941,-3.299210,2.566584,-6.464345,-0.031842,0.028911,0.001332
5956,-3.236961,2.525883,-6.600814,-0.034907,0.036505,-0.001998
5971,-3.220201,2.624045,-6.497863,-0.036106,0.026247,-0.002798
5986,-3.062184,2.647987,-6.461950,-0.028511,0.012391,-0.007194
6001,-3.208230,2.667141,-6.581660,-0.027179,0.007594,-0.007061
6016,-3.172317,2.707842,-6.540959,-0.020384,-0.007461,-0.008394
6031,-3.256114,2.530671,-6.469133,-0.022516,-0.000799,-0.004263
6046,-3.284845,2.552219,-6.387730,-0.020384,-0.010925,0.001865
6061,-3.380613,2.604891,-6.497863,-0.024381,0.020784,0.010525
6076,-3.349488,2.604891,-6.414066,-0.027579,0.002531,0.011724
6091,-3.059790,2.614468,-6.447585,-0.031443,0.014256,0.013723
6106,-3.404555,2.547431,-6.531382,-0.033308,0.025580,0.013590
6121,-3.236961,2.542642,-6.294356,-0.024914,0.005462,0.012524
6136,-3.229778,2.643199,-6.473921,-0.024248,0.021450,0.011058
6151,-3.100491,2.655170,-6.524199,-0.020384,0.006262,0.007594
6166,-3.277662,2.568978,-6.373365,-0.019585,0.015721,0.006262
6181,-3.313575,2.513912,-6.473921,-0.024115,0.015188,0.005862
6196,-3.251326,2.557007,-6.488286,-0.034773,0.034374,0.008926
6211,-3.260903,2.545036,-6.526594,-0.037305,0.035173,0.009992
6226,-3.210624,2.533065,-6.404490,-0.039170,0.031043,0.014256
6241,-3.335123,2.552219,-6.536170,-0.038637,0.030510,0.014922
6256,-3.344700,2.597709,-6.528988,-0.042368,0.032109,0.014522
6271,-3.124433,2.659958,-6.552930,-0.037571,0.017853,0.014256
6286,-3.246537,2.686294,-6.670246,-0.040369,0.017720,0.013456
6301,-3.282450,2.628834,-6.416461,-0.028378,-0.009992,0.008394
6316,-3.224990,2.624045,-6.519411,-0.026513,0.000666,0.005862
6331,-3.136404,2.585738,-6.430826,-0.022383,-0.007194,0.003198
6346,-3.172317,2.645593,-6.452374,-0.027579,0.013323,0.005063
6361,-3.347094,2.523489,-6.411672,-0.025181,0.010925,0.002931
6376,-3.275268,2.559402,-6.414066,-0.031443,0.032242,0.005063
6391,-3.246537,2.600103,-6.366182,-0.035573,0.036106,0.007061
6406,-3.155558,2.612074,-6.392519,-0.035573,0.035972,0.004663
6421,-3.292027,2.631228,-6.466739,-0.041835,0.037704,0.000400
6436,-3.234566,2.652776,-6.454768,-0.039436,0.037438,0.005462
6451,-3.184288,2.657564,-6.555324,-0.034640,0.027845,0.003064
6466,-3.100491,2.676718,-6.507440,-0.028778,0.013723,-0.001865
6481,-3.323152,2.588132,-6.560112,-0.032508,0.019185,0.002665
6496,-3.251326,2.671929,-6.495469,-0.029178,0.006395,-0.000266
6511,-3.196259,2.588132,-6.404490,-0.029577,0.015055,0.002531
6526,-3.227384,2.674323,-6.478710,-0.030243,0.017453,0.002398
6541,-3.203442,2.580949,-6.368577,-0.030510,0.020917,0.003997
6556,-3.335123,2.621651,-6.433220,-0.030776,0.031176,0.003331
6571,-3.169923,2.621651,-6.469133,-0.028378,0.027979,0.003730
6586,-3.074155,2.549825,-6.461950,-0.027845,0.029977,0.005995
6601,-3.155558,2.537854,-6.526594,-0.032908,0.024515,0.004263
6616,-3.184288,2.559402,-6.552930,-0.032375,0.015322,0.008793
6631,-3.229778,2.659958,-6.538565,-0.033041,0.015322,0.004796
6646,-3.143587,2.631228,-6.540959,-0.027312,0.014256,0.003064
6661,-3.155558,2.631228,-6.409278,-0.024648,0.014389,0.001066
6676,-3.246537,2.607285,-6.536170,-0.024248,0.011191,-0.002265
6691,-3.268085,2.647987,-6.543353,-0.023449,0.005862,-0.003064
6706,-3.047819,2.719813,-6.476315,-0.020651,-0.008260,-0.005995
6721,-3.184288,2.738967,-6.567295,-0.012790,-0.016787,-0.003864
6736,-3.327940,2.530671,-6.471527,-0.005329,-0.034773,-0.003331
6751,-3.203442,2.633622,-6.426037,-0.014655,-0.014655,-0.002931
6766,-3.253720,2.604891,-6.488286,-0.015721,-0.010792,-0.005063
6781,-3.167529,2.604891,-6.397307,-0.019851,-0.002531,-0.005462
6796,-3.315969,2.583344,-6.483498,-0.021051,0.005063,-0.005462
6811,-3.253720,2.475605,-6.476315,-0.021850,0.002665,-0.002665
6826,-3.186682,2.523489,-6.579266,-0.028511,0.016920,-0.001466
6841,-3.145981,2.549825,-6.481104,-0.032375,0.006395,0.004263
6856,-3.203442,2.547431,-6.500257,-0.034107,0.012391,0.001599
6871,-3.325546,2.626439,-6.457162,-0.027179,0.002398,0.004663
6886,-3.222595,2.600103,-6.435614,-0.029178,0.008527,0.003464
6901,-3.239355,2.564190,-6.500257,-0.030776,0.006795,0.003864
6916,-3.256114,2.597709,-6.397307,-0.029711,0.003331,0.006662
6931,-3.378219,2.619257,-6.493075,-0.020784,0.009726,0.008527
6946,-3.191471,2.681506,-6.435614,-0.022783,0.004130,0.008260
6961,-3.217807,2.578555,-6.440403,-0.027446,0.000400,0.003864
6976,-3.213019,2.564190,-6.411672,-0.029844,0.000799,0.002665
6991,-3.311181,2.568978,-6.564901,-0.025314,-0.006795,0.003730
7006,-3.330334,2.609680,-6.399701,-0.023715,0.003198,0.001332
7021,-3.222595,2.636016,-6.435614,-0.028378,0.011191,-0.003464
7036,-3.246537,2.547431,-6.464345,-0.020118,0.023049,-0.001066
7051,-3.303998,2.475605,-6.509834,-0.026779,0.019185,0.000933
7066,-3.325546,2.525883,-6.493075,-0.038904,0.039703,0.002132
7081,-3.184288,2.657564,-6.521805,-0.032508,0.039836,0.005063
7096,-3.143587,2.578555,-6.445191,-0.036905,0.037172,0.005196
7111,-3.191471,2.612074,-6.576872,-0.032908,0.022916,0.001599
7126,-3.251326,2.540248,-6.552930,-0.030110,0.019851,0.000933
7141,-3.117250,2.533065,-6.543353,-0.031842,0.009193,0.000266
7156,-3.205836,2.501941,-6.576872,-0.035040,0.008527,-0.001998
7171,-3.248932,2.568978,-6.442797,-0.032375,0.005329,-0.000799
7186,-3.359065,2.652776,-6.505046,-0.030776,0.010925,0.000799
7201,-3.210624,2.671929,-6.469133,-0.016387,-0.019851,0.000000
7216,-3.179500,2.631228,-6.478710,-0.019985,-0.007727,-0.000400
7231,-3.435679,2.554613,-6.452374,-0.024648,-0.005196,-0.001332
7246,-3.342305,2.583344,-6.263232,-0.025181,-0.002398,0.002265
7261,-3.299210,2.545036,-6.442797,-0.031176,0.034374,0.008394
7276,-3.205836,2.592920,-6.363788,-0.032109,0.019585,0.011991
7291,-3.311181,2.535460,-6.512228,-0.032908,0.043966,0.013323
7306,-3.361459,2.540248,-6.543353,-0.034640,0.032908,0.015988
7321,-3.138798,2.604891,-6.531382,-0.033441,0.030910,0.014123
7336,-3.179500,2.595315,-6.591237,-0.027979,0.028778,0.013057
7351,-3.141193,2.580949,-6.447585,-0.017986,-0.001599,0.003864
7366,-3.349488,2.547431,-6.517017,-0.022250,0.017720,0.003597
7381,-3.248932,2.518700,-6.488286,-0.017720,-0.004796,0.003464
7396,-3.098097,2.604891,-6.488286,-0.027312,0.028378,0.005196
7411,-3.244143,2.554613,-6.500257,-0.027446,0.025980,0.005196
7426,-3.296816,2.549825,-6.624756,-0.029178,0.012790,0.008926
7441,-3.306392,2.470816,-6.354211,-0.036905,0.008127,0.011058
7456,-3.145981,2.686294,-6.416461,-0.037838,0.015588,0.009326
7471,-3.265691,2.626439,-6.418855,-0.036772,0.013590,0.009193
7486,-3.265691,2.695871,-6.447585,-0.029178,0.009859,-0.000799
7501,-3.354276,2.640805,-6.406884,-0.028645,0.026513,-0.001732
7516,-3.157952,2.604891,-6.435614,-0.033841,0.015055,-0.003331
7531,-3.172317,2.583344,-6.449979,-0.030243,0.028245,-0.003730
7546,-3.313575,2.494758,-6.461950,-0.029444,0.015988,-0.004263
7561,-3.253720,2.583344,-6.562507,-0.027712,0.009060,-0.004130
7576,-3.275268,2.518700,-6.473921,-0.024381,0.017720,0.001865
7591,-3.153164,2.647987,-6.528988,-0.023582,0.007861,0.004397
7606,-3.296816,2.463634,-6.550536,-0.025714,0.001998,0.002798
7621,-3.332729,2.573767,-6.502652,-0.025447,0.007861,0.005729
7636,-3.208230,2.523489,-6.531382,-0.028112,0.000533,0.006795
7651,-3.193865,2.588132,-6.524199,-0.027979,-0.000266,0.003730
7666,-3.239355,2.525883,-6.505046,-0.022116,-0.014922,-0.000266
7681,-3.344700,2.597709,-6.485892,-0.023582,0.008260,-0.003464
7696,-3.260903,2.542642,-6.368577,-0.013989,-0.010126,-0.000666
7711,-3.141193,2.585738,-6.430826,-0.024648,0.004930,0.001998
7726,-3.270479,2.506729,-6.442797,-0.032642,0.020518,-0.000533
7741,-3.296816,2.494758,-6.397307,-0.039570,0.013856,0.003730
7756,-3.217807,2.540248,-6.359000,-0.042501,0.031443,0.004530
7771,-3.210624,2.513912,-6.473921,-0.046631,0.031709,0.005196
7786,-3.258508,2.533065,-6.490681,-0.047564,0.034240,0.008260
7801,-3.351882,2.506729,-6.490681,-0.044499,0.037971,0.013323
7816,-3.239355,2.640805,-6.531382,-0.035040,0.030510,0.011591
7831,-3.167529,2.712631,-6.543353,-0.027845,0.020118,0.011724
7846,-3.213019,2.688689,-6.600814,-0.015988,0.002665,0.005196
7861,-3.268085,2.535460,-6.581660,-0.021983,-0.001066,0.000000
7876,-3.251326,2.607285,-6.536170,-0.024248,-0.001066,-0.000266
7891,-3.184288,2.691083,-6.476315,-0.021717,-0.002798,-0.004930
7906,-3.189077,2.621651,-6.466739,-0.026380,-0.001199,-0.010126
7921,-3.342305,2.557007,-6.488286,-0.023049,0.010259,-0.008527
7936,-3.373430,2.545036,-6.473921,-0.025714,0.003597,-0.003464
7951,-3.253720,2.590526,-6.485892,-0.027046,0.014123,-0.001332
7966,-3.280056,2.576161,-6.457162,-0.022383,0.007461,0.000133
7981,-3.323152,2.499547,-6.478710,-0.025314,0.010259,0.000000
7996,-3.402161,2.552219,-6.545747,-0.032642,0.018519,0.001865
8011,-3.184288,2.624045,-6.569689,-0.030643,0.011058,-0.000266
8026,-3.181894,2.645593,-6.490681,-0.024914,0.019052,0.000133
8041,-3.342305,2.633622,-6.478710,-0.020784,0.003464,-0.000133
8056,-3.332729,2.626439,-6.524199,-0.017853,0.005862,-0.000799
8071,-3.284845,2.568978,-6.500257,-0.015055,-0.008260,0.000533
8086,-3.169923,2.636016,-6.512228,-0.011858,-0.009326,0.000666
8101,-3.330334,2.485181,-6.562507,-0.007861,-0.024381,-0.000400
8116,-3.373430,2.473210,-6.471527,-0.002931,-0.019718,0.001466
8131,-3.289633,2.410961,-6.469133,-0.008660,-0.014789,0.005729
8146,-3.193865,2.403779,-6.390124,-0.027979,0.023182,0.011724
8161,-3.363853,2.398990,-6.500257,-0.038637,0.044766,0.012923
8176,-3.248932,2.477999,-6.392519,-0.040502,0.051560,0.010925
8191,-3.318363,2.545036,-6.426037,-0.044499,0.050361,0.015988
8206,-3.141193,2.542642,-6.538565,-0.038637,0.032642,0.014256
8221,-3.227384,2.537854,-6.562507,-0.041568,0.030510,0.017853
8236,-3.292027,2.518700,-6.406884,-0.036772,0.013989,0.014389
8251,-3.411737,2.537854,-6.435614,-0.041435,0.030643,0.018119
8266,-3.169923,2.619257,-6.519411,-0.036772,0.008793,0.011325
8281,-3.167529,2.621651,-6.572083,-0.045698,0.035839,0.014389
8296,-3.313575,2.545036,-6.519411,-0.038237,0.006795,0.009459
8311,-3.160346,2.626439,-6.509834,-0.038637,0.023449,0.009593
8326,-3.337517,2.600103,-6.528988,-0.037971,0.031043,0.005729
8341,-3.148375,2.600103,-6.438008,-0.034240,0.006662,0.003997
8356,-3.330334,2.523489,-6.519411,-0.038104,0.037038,0.004796
8371,-3.318363,2.576161,-6.481104,-0.035573,0.008260,0.002265
8386,-3.162740,2.595315,-6.481104,-0.032375,0.023715,0.001066
8401,-3.268085,2.518700,-6.476315,-0.032242,0.019851,0.001599
8416,-3.359065,2.482787,-6.449979,-0.033441,0.031709,0.004796
8431,-3.344700,2.434903,-6.471527,-0.035972,0.044766,0.010925
8446,-3.191471,2.580949,-6.442797,-0.032508,0.036772,0.009593
8461,-3.143587,2.626439,-6.564901,-0.032508,0.046231,0.014256
8476,-3.217807,2.571373,-6.555324,-0.033175,0.025847,0.017054
8491,-3.265691,2.482787,-6.438008,-0.030510,0.023315,0.017720
8506,-3.253720,2.647987,-6.550536,-0.029444,0.022516,0.018119
8521,-3.083732,2.638410,-6.509834,-0.023982,0.011858,0.019052
8536,-3.191471,2.504335,-6.430826,-0.027579,0.009726,0.019718
8551,-3.282450,2.564190,-6.464345,-0.021583,0.005995,0.013989
8566,-3.239355,2.612074,-6.500257,-0.026913,0.021184,0.014922
8581,-3.131616,2.561796,-6.404490,-0.023582,0.009593,0.013190
8596,-3.181894,2.509123,-6.442797,-0.028511,0.022516,0.009992
8611,-3.327940,2.497152,-6.505046,-0.030776,0.031842,0.009726
8626,-3.181894,2.537854,-6.459556,-0.026247,0.010925,0.006528
8641,-3.148375,2.540248,-6.440403,-0.032508,0.023449,0.006129
8656,-3.229778,2.557007,-6.485892,-0.029844,0.014522,0.010259
8671,-3.292027,2.547431,-6.471527,-0.028112,0.016254,0.013323
8686,-3.270479,2.554613,-6.433220,-0.031576,0.021983,0.011191
8701,-3.157952,2.585738,-6.440403,-0.034773,0.013323,0.007594
8716,-3.196259,2.616862,-6.423643,-0.033974,0.016654,0.006928
8731,-3.311181,2.592920,-6.471527,-0.031309,0.015455,0.005063
8746,-3.301604,2.576161,-6.421249,-0.031176,0.019718,0.004397
8761,-3.138798,2.564190,-6.478710,-0.032242,0.007194,0.002798
8776,-3.107674,2.585738,-6.507440,-0.030110,0.015988,0.006395
8791,-3.263297,2.573767,-6.593631,-0.025980,-0.002398,0.004663
8806,-3.275268,2.523489,-6.514623,-0.019985,-0.012257,0.004530
8821,-3.224990,2.566584,-6.581660,-0.023982,-0.016654,0.005462
8836,-3.203442,2.573767,-6.469133,-0.024648,-0.006129,0.007461
8851,-3.339911,2.578555,-6.497863,-0.029977,0.002665,0.007061
8866,-3.308787,2.513912,-6.466739,-0.031309,0.020784,0.006662
8881,-3.277662,2.595315,-6.495469,-0.030110,0.017720,0.005063
8896,-3.167529,2.647987,-6.459556,-0.032242,0.016121,0.001599
8911,-3.251326,2.638410,-6.517017,-0.024381,0.021450,0.001332
8926,-3.253720,2.564190,-6.507440,-0.017720,-0.004397,0.002398
8941,-3.201048,2.595315,-6.466739,-0.024381,0.016920,0.000000
8956,-3.217807,2.607285,-6.471527,-0.024648,0.005729,0.002798
8971,-3.215413,2.540248,-6.418855,-0.028378,0.015721,0.004130
8986,-3.394978,2.494758,-6.581660,-0.026513,0.013989,0.006262
9001,-3.193865,2.547431,-6.454768,-0.030377,0.013190,0.005462
9016,-3.217807,2.552219,-6.519411,-0.028778,0.026380,0.008127
9031,-3.155558,2.518700,-6.555324,-0.024914,0.002531,0.004397
9046,-3.258508,2.516306,-6.426037,-0.029844,0.020784,0.007727
9061,-3.289633,2.545036,-6.471527,-0.029577,0.006795,0.006262
9076,-3.090914,2.537854,-6.466739,-0.032508,0.013456,0.005462
9091,-3.205836,2.609680,-6.505046,-0.029977,0.008926,0.001865
9106,-3.241749,2.626439,-6.414066,-0.030776,0.001732,-0.000933
9121,-3.335123,2.530671,-6.536170,-0.028645,0.010259,0.001199
9136,-3.167529,2.616862,-6.421249,-0.028245,-0.003198,0.000533
9151,-3.205836,2.576161,-6.473921,-0.028378,0.012257,0.007061
9166,-3.272874,2.559402,-6.509834,-0.031709,0.007727,0.005596
9181,-3.339911,2.506729,-6.533776,-0.036106,0.018786,0.014789
9196,-3.055001,2.652776,-6.505046,-0.031576,0.005995,0.008660
9211,-3.143587,2.585738,-6.457162,-0.029311,0.015055,0.007328
9226,-3.234566,2.504335,-6.507440,-0.024648,-0.001865,0.003730
9241,-3.263297,2.537854,-6.481104,-0.029711,0.004796,0.007461
9256,-3.217807,2.597709,-6.430826,-0.030377,0.004930,0.009193
9271,-3.162740,2.552219,-6.459556,-0.025314,-0.003331,0.009326
9286,-3.299210,2.540248,-6.406884,-0.027312,0.009992,0.009060
9301,-3.325546,2.578555,-6.466739,-0.029444,0.016121,0.006262
9316,-3.306392,2.580949,-6.500257,-0.038504,0.030110,0.009726
9331,-3.186682,2.585738,-6.385336,-0.039570,0.033574,0.008926
9346,-3.256114,2.523489,-6.466739,-0.041435,0.045698,0.009992
9361,-3.311181,2.602497,-6.536170,-0.034107,0.027046,0.007727
9376,-3.172317,2.667141,-6.449979,-0.026513,0.022783,-0.000266
9391,-3.232172,2.667141,-6.476315,-0.025447,0.025847,0.001066
9406,-3.153164,2.497152,-6.461950,-0.023049,0.010792,-0.002398
9421,-3.371036,2.501941,-6.605602,-0.035306,0.041435,0.005196
9436,-3.296816,2.576161,-6.471527,-0.028645,0.013989,0.007194
9451,-3.033453,2.626439,-6.485892,-0.023582,0.005729,0.000533
9466,-3.246537,2.621651,-6.423643,-0.022516,0.011325,0.000266
9481,-3.253720,2.540248,-6.473921,-0.022916,-0.013323,-0.001199
9496,-3.315969,2.573767,-6.426037,-0.025847,-0.008260,0.001199
9511,-3.122039,2.528277,-6.418855,-0.027579,0.006395,0.001466
9526,-3.227384,2.561796,-6.445191,-0.033175,0.018519,0.001998
9541,-3.258508,2.533065,-6.469133,-0.034374,0.021983,0.003864
9556,-3.289633,2.588132,-6.466739,-0.040236,0.036239,-0.000133
9571,-3.157952,2.662352,-6.414066,-0.037305,0.017853,0.001066
9586,-3.119645,2.516306,-6.423643,-0.039303,0.028245,-0.002132
9601,-3.306392,2.535460,-6.435614,-0.031309,0.019585,-0.002665
9616,-3.246537,2.494758,-6.466739,-0.035306,0.014922,0.000266
9631,-3.208230,2.633622,-6.531382,-0.035440,0.033441,0.007328
9646,-3.167529,2.645593,-6.596025,-0.028778,0.000666,0.005196
9661,-3.241749,2.528277,-6.581660,-0.032109,0.004663,0.009459
9676,-3.320758,2.494758,-6.464345,-0.029444,-0.011325,0.009060
9691,-3.165135,2.626439,-6.368577,-0.035173,0.008926,0.009459
9706,-3.198653,2.597709,-6.449979,-0.035839,0.007994,0.007061
9721,-3.160346,2.597709,-6.433220,-0.035839,0.023449,0.005862
9736,-3.359065,2.509123,-6.478710,-0.031043,0.028911,0.004930
9751,-3.129222,2.525883,-6.452374,-0.028511,0.003730,0.002931
9766,-3.155558,2.545036,-6.500257,-0.033708,0.038770,0.006129
9781,-3.318363,2.533065,-6.485892,-0.032508,0.003597,0.006662
9796,-3.172317,2.535460,-6.528988,-0.033441,0.026247,0.009060
9811,-3.356671,2.545036,-6.476315,-0.040902,0.033441,0.006662
9826,-3.050213,2.652776,-6.411672,-0.033974,0.015055,0.005462
9841,-3.294421,2.621651,-6.574478,-0.036639,0.040369,0.006262
9856,-3.323152,2.513912,-6.624756,-0.024515,0.006795,0.005862
9871,-3.165135,2.590526,-6.607996,-0.029311,0.030377,0.008394
9886,-3.191471,2.504335,-6.459556,-0.032109,0.008127,0.008394
9901,-3.100491,2.580949,-6.493075,-0.030377,0.018119,0.013057
9916,-3.344700,2.480393,-6.586449,-0.033175,0.018786,0.012923
9931,-3.292027,2.573767,-6.493075,-0.028378,-0.007861,0.010792
9946,-3.162740,2.633622,-6.485892,-0.030110,0.011191,0.006662
9961,-3.145981,2.609680,-6.421249,-0.028645,0.006395,0.005596
9976,-3.251326,2.604891,-6.478710,-0.024248,0.013323,0.003730
9991,-3.191471,2.585738,-6.430826,-0.029044,0.027712,-0.001599
10006,-3.186682,2.640805,-6.402095,-0.027712,0.018919,0.004530
10021,-3.232172,2.504335,-6.495469,-0.032642,0.031576,0.004130
10036,-3.217807,2.516306,-6.509834,-0.032375,0.019585,-0.001199
10051,-3.088520,2.626439,-6.421249,-0.033175,0.027845,0.001199
10066,-3.337517,2.559402,-6.473921,-0.030643,0.015721,0.001332
10081,-3.155558,2.715025,-6.471527,-0.024381,0.013057,0.003198
10096,-3.332729,2.518700,-6.402095,-0.026380,0.021184,0.000933
10111,-3.019088,2.652776,-6.524199,-0.020251,-0.007861,0.000266
10126,-3.203442,2.566584,-6.636727,-0.025314,0.002132,-0.003331
10141,-3.277662,2.509123,-6.564901,-0.023182,-0.035839,-0.001599
10156,-3.280056,2.509123,-6.385336,-0.026513,-0.008127,0.000533
10171,-3.205836,2.523489,-6.473921,-0.030243,-0.001599,0.001332
10186,-3.196259,2.540248,-6.461950,-0.032109,0.014922,0.005596
10201,-3.363853,2.513912,-6.351817,-0.033175,0.028645,-0.001066
10216,-3.277662,2.576161,-6.519411,-0.033308,0.032375,0.000799
10231,-3.136404,2.561796,-6.428432,-0.039037,0.042234,0.003997
10246,-3.162740,2.561796,-6.495469,-0.038237,0.033708,0.003730
10261,-3.330334,2.604891,-6.447585,-0.035706,0.027046,0.002132
10276,-3.313575,2.583344,-6.414066,-0.039969,0.037305,0.005196
10291,-3.076549,2.616862,-6.500257,-0.033841,0.027712,0.003464
10306,-3.239355,2.650381,-6.598420,-0.031309,0.041302,0.012524
10321,-3.155558,2.592920,-6.567295,-0.022250,-0.017187,0.011325
10336,-3.284845,2.573767,-6.540959,-0.032908,0.007061,0.013590
10351,-3.193865,2.564190,-6.394913,-0.031043,-0.035972,0.013190
10366,-3.095703,2.595315,-6.433220,-0.026513,-0.039570,0.013190
10381,-3.332729,2.525883,-6.368577,-0.033708,-0.015188,0.015055
10396,-3.303998,2.590526,-6.327875,-0.029844,-0.000400,0.011991
10411,-3.284845,2.566584,-6.337452,-0.033841,0.037305,0.010525
10426,-3.153164,2.626439,-6.327875,-0.033574,0.042101,0.008127
10441,-3.134010,2.530671,-6.488286,-0.036639,0.056623,0.007994
10456,-3.263297,2.533065,-6.521805,-0.034107,0.044366,0.008394
10471,-3.167529,2.568978,-6.421249,-0.034107,0.038770,0.005995
10486,-3.126827,2.607285,-6.524199,-0.028911,0.032242,0.004530
10501,-3.196259,2.700660,-6.519411,-0.021450,0.022783,0.007061
10516,-3.184288,2.540248,-6.540959,-0.025847,0.011458,0.004663
10531,-3.289633,2.566584,-6.550536,-0.030110,0.015721,0.005596
10546,-3.148375,2.588132,-6.466739,-0.033974,-0.008394,0.008394
10561,-3.165135,2.595315,-6.502652,-0.033308,-0.018519,0.003597
10576,-3.294421,2.561796,-6.533776,-0.029844,-0.020518,0.003064
10591,-3.296816,2.549825,-6.387730,-0.027845,-0.011591,0.001066
10606,-3.246537,2.600103,-6.411672,-0.031043,0.004263,0.000933
10621,-3.150769,2.566584,-6.361394,-0.030110,0.010392,-0.004263
10636,-3.337517,2.458845,-6.461950,-0.034107,0.025181,-0.002398
10651,-3.210624,2.564190,-6.447585,-0.036239,0.029444,-0.002265
10666,-3.191471,2.592920,-6.459556,-0.039037,0.052227,-0.004263
10681,-3.153164,2.580949,-6.399701,-0.033841,0.031443,-0.002798
10696,-3.229778,2.485181,-6.524199,-0.036772,0.043700,-0.000933
10711,-3.284845,2.530671,-6.466739,-0.034640,0.042501,0.001466
10726,-3.162740,2.609680,-6.517017,-0.033708,0.037172,0.001599
10741,-3.136404,2.568978,-6.600814,-0.034507,0.037038,0.004397
10756,-3.186682,2.573767,-6.612785,-0.035306,0.021450,0.004263
10771,-3.263297,2.640805,-6.538565,-0.032109,0.016121,0.003997
10786,-3.160346,2.671929,-6.569689,-0.026247,0.009593,0.001332
10801,-3.141193,2.600103,-6.581660,-0.018919,-0.009459,-0.002265
10816,-3.193865,2.492364,-6.560112,-0.017320,-0.021583,-0.000666
10831,-3.327940,2.516306,-6.517017,-0.024515,0.005462,0.004397
10846,-3.141193,2.602497,-6.466739,-0.023982,-0.004930,-0.001199
10861,-3.177106,2.633622,-6.495469,-0.024781,0.004663,0.000533
10876,-3.213019,2.576161,-6.404490,-0.021317,-0.002931,-0.003331
10891,-3.337517,2.578555,-6.469133,-0.026913,0.018786,-0.002931
10906,-3.215413,2.561796,-6.493075,-0.024115,-0.007461,0.000799
10921,-3.177106,2.571373,-6.385336,-0.027579,0.018519,-0.000799
10936,-3.213019,2.578555,-6.461950,-0.027312,0.008527,0.000266
10951,-3.177106,2.545036,-6.366182,-0.023449,-0.000533,-0.001865
10966,-3.373430,2.540248,-6.454768,-0.027046,0.020784,-0.000400
10981,-3.145981,2.559402,-6.478710,-0.025714,-0.008660,0.000400
10996,-3.193865,2.602497,-6.457162,-0.029844,0.029711,-0.000133
11011,-3.361459,2.559402,-6.579266,-0.023449,-0.001732,0.001466
11026,-3.241749,2.549825,-6.524199,-0.023582,0.011991,0.000666
11041,-3.280056,2.552219,-6.466739,-0.026113,0.009060,0.002798
11056,-3.157952,2.590526,-6.457162,-0.029178,0.008926,0.000400
11071,-3.260903,2.537854,-6.500257,-0.030377,0.020651,-0.001599
11086,-3.224990,2.571373,-6.457162,-0.029444,0.012257,-0.004130
11101,-3.229778,2.521094,-6.488286,-0.031443,0.031043,0.001599
11116,-3.112462,2.511518,-6.411672,-0.029044,0.010925,-0.003331
11131,-3.332729,2.631228,-6.483498,-0.028112,0.020518,-0.002265
11146,-3.246537,2.592920,-6.459556,-0.017320,-0.017453,-0.006662
11161,-3.222595,2.549825,-6.478710,-0.023582,-0.000799,-0.003997
11176,-3.174711,2.640805,-6.500257,-0.019185,-0.008260,-0.005596
11191,-3.215413,2.525883,-6.478710,-0.014922,-0.012923,-0.004796
11206,-3.347094,2.463634,-6.442797,-0.020384,-0.007861,-0.002665
11221,-3.196259,2.535460,-6.519411,-0.018652,-0.005196,-0.002132
11236,-3.217807,2.578555,-6.428432,-0.027046,0.011325,-0.001865
11251,-3.184288,2.430115,-6.399701,-0.030910,0.004930,0.000400
11266,-3.325546,2.497152,-6.461950,-0.035839,0.029044,-0.000400
11281,-3.224990,2.494758,-6.483498,-0.034640,0.011325,0.000933
11296,-3.169923,2.602497,-6.497863,-0.037172,0.019052,0.001066
11311,-3.303998,2.545036,-6.452374,-0.033308,-0.002665,-0.001066
11326,-3.313575,2.568978,-6.495469,-0.032908,0.010392,0.000533
11341,-3.337517,2.604891,-6.493075,-0.034773,0.010525,-0.001199
11356,-3.193865,2.595315,-6.370971,-0.039436,0.014123,-0.001599
11371,-3.339911,2.597709,-6.452374,-0.032375,0.037971,0.002531
11386,-3.217807,2.612074,-6.528988,-0.028378,0.009593,0.000133
11401,-3.342305,2.559402,-6.507440,-0.033441,0.031309,-0.002132
11416,-3.220201,2.616862,-6.555324,-0.029044,0.005995,-0.001466
11431,-3.248932,2.549825,-6.481104,-0.034773,0.010126,0.000266
11446,-3.335123,2.609680,-6.426037,-0.021450,-0.004263,-0.001732
11461,-3.277662,2.497152,-6.452374,-0.017853,-0.009326,-0.005462
11476,-3.241749,2.509123,-6.473921,-0.019319,-0.002132,-0.001599
11491,-3.191471,2.451663,-6.387730,-0.026646,0.012923,0.001998
11506,-3.378219,2.475605,-6.464345,-0.038237,0.030910,0.004130
11521,-3.303998,2.499547,-6.428432,-0.040769,0.027579,0.005729
11536,-3.162740,2.597709,-6.572083,-0.040236,0.034240,0.004263
11551,-3.201048,2.564190,-6.473921,-0.038237,0.014789,0.001066
11566,-3.184288,2.564190,-6.473921,-0.031709,0.008926,-0.003064
11581,-3.447650,2.547431,-6.373365,-0.029844,0.010925,0.000933
11596,-3.246537,2.631228,-6.428432,-0.025580,0.004930,0.000799
11611,-3.172317,2.537854,-6.416461,-0.023049,0.020384,0.001865
11626,-3.258508,2.521094,-6.540959,-0.027312,-0.000133,0.005862
11641,-3.335123,2.454057,-6.588843,-0.039436,0.003331,0.010525
11656,-3.282450,2.545036,-6.466739,-0.038504,-0.016787,0.008260
11671,-3.189077,2.580949,-6.466739,-0.041701,0.011058,0.009726
11686,-3.327940,2.509123,-6.390124,-0.038237,0.004263,0.007994
11701,-3.251326,2.554613,-6.466739,-0.033841,0.018253,0.005995
11716,-3.320758,2.468422,-6.461950,-0.034640,0.026513,0.001998
11731,-3.078943,2.585738,-6.394913,-0.035306,0.024381,0.002132
11746,-3.296816,2.528277,-6.423643,-0.039436,0.038904,0.002665
11761,-3.263297,2.554613,-6.426037,-0.035573,0.016387,-0.001466
11776,-3.244143,2.602497,-6.449979,-0.033441,0.029444,-0.001066
11791,-3.198653,2.616862,-6.526594,-0.033175,0.021184,-0.000133
11806,-3.179500,2.624045,-6.461950,-0.038104,0.033441,0.005329
11821,-3.320758,2.540248,-6.469133,-0.037038,0.036772,0.008527
11836,-3.306392,2.552219,-6.603208,-0.032109,0.024381,0.007461
11851,-3.184288,2.542642,-6.447585,-0.034640,0.029711,0.008926
11866,-3.224990,2.588132,-6.509834,-0.030110,0.029977,0.011858
11881,-3.213019,2.564190,-6.560112,-0.023715,0.016654,0.010925
11896,-3.272874,2.489970,-6.485892,-0.025314,0.003198,0.005995
11911,-3.083732,2.554613,-6.495469,-0.018786,0.001332,0.005729
11926,-3.248932,2.552219,-6.481104,-0.025714,0.019585,0.002798
11941,-3.222595,2.549825,-6.428432,-0.027446,-0.000799,0.002798
11956,-3.296816,2.497152,-6.476315,-0.028112,0.018253,0.005729
11971,-3.248932,2.600103,-6.461950,-0.028645,0.009859,0.005995
11986,-3.150769,2.585738,-6.433220,-0.026779,0.016121,0.006528
12001,-3.325546,2.604891,-6.545747,-0.029444,0.024914,0.005995
12016,-3.294421,2.597709,-6.478710,-0.029178,0.015721,0.004930
12031,-3.287239,2.671929,-6.493075,-0.029044,0.028245,0.000266
12046,-3.251326,2.662352,-6.538565,-0.028778,0.029044,0.001066
12061,-3.282450,2.667141,-6.488286,-0.019718,0.026646,-0.002531
12076,-3.318363,2.571373,-6.507440,-0.025314,0.013057,-0.002132
12091,-3.277662,2.509123,-6.593631,-0.032642,0.016387,-0.000133
12106,-3.093308,2.571373,-6.476315,-0.025314,-0.011325,-0.004530
12121,-3.232172,2.545036,-6.567295,-0.021583,-0.009193,-0.007727
12136,-3.263297,2.530671,-6.500257,-0.018519,-0.017187,-0.006662
12151,-3.275268,2.437297,-6.390124,-0.021051,-0.003997,-0.004530
12166,-3.335123,2.475605,-6.404490,-0.034107,0.016521,-0.001998
12181,-3.165135,2.480393,-6.461950,-0.039969,0.027845,-0.001332
12196,-3.406949,2.557007,-6.555324,-0.036639,0.031842,-0.000533
12211,-3.253720,2.612074,-6.447585,-0.030510,0.019718,-0.000666
12226,-3.224990,2.573767,-6.524199,-0.030243,0.016654,0.000666
12241,-3.150769,2.573767,-6.433220,-0.027446,0.004530,-0.000533
12256,-3.337517,2.501941,-6.449979,-0.029977,0.018386,0.004796
12271,-3.272874,2.624045,-6.390124,-0.023848,0.023449,0.009459
12286,-3.222595,2.533065,-6.478710,-0.027579,0.021184,0.015588
12301,-3.244143,2.561796,-6.478710,-0.034907,0.022383,0.014522
12316,-3.251326,2.521094,-6.423643,-0.042234,0.007328,0.016121
12331,-3.308787,2.573767,-6.423643,-0.040902,0.020384,0.015988
12346,-3.270479,2.576161,-6.390124,-0.034374,0.013323,0.008660
12361,-3.105279,2.590526,-6.574478,-0.033175,0.021317,0.009593
12376,-3.272874,2.506729,-6.481104,-0.038237,0.023182,0.007994
12391,-3.222595,2.446874,-6.447585,-0.047830,0.017853,0.007194
12406,-3.272874,2.434903,-6.330269,-0.045965,0.015188,0.012257
12421,-3.143587,2.731784,-6.421249,-0.052893,0.065417,0.019319
12436,-3.256114,2.633622,-6.473921,-0.048496,0.062885,0.015721
12451,-3.229778,2.592920,-6.548141,-0.041968,0.038504,0.012790
12466,-3.136404,2.590526,-6.574478,-0.049296,0.046631,0.011191
12481,-3.217807,2.679112,-6.517017,-0.044233,0.028378,0.008926
12496,-3.086126,2.612074,-6.447585,-0.033841,0.029044,0.008127
12511,-3.349488,2.647987,-6.569689,-0.027579,0.041568,0.010259
12526,-3.215413,2.547431,-6.500257,-0.026380,-0.005862,0.010392
12541,-3.114856,2.585738,-6.454768,-0.026513,0.024115,0.011325
12556,-3.258508,2.494758,-6.502652,-0.033041,0.015721,0.013323
12571,-3.174711,2.547431,-6.619967,-0.032908,0.006395,0.011458
12586,-3.229778,2.516306,-6.512228,-0.026646,0.008527,0.009060
12601,-3.083732,2.535460,-6.461950,-0.024781,0.002398,0.007727
12616,-3.110068,2.597709,-6.528988,-0.030510,0.012524,0.003864
12631,-3.227384,2.583344,-6.481104,-0.024115,0.010925,-0.000266
12646,-3.277662,2.609680,-6.514623,-0.021184,0.006795,-0.003331
12661,-3.160346,2.645593,-6.416461,-0.016254,0.006262,-0.003730
12676,-3.234566,2.578555,-6.449979,-0.019319,0.009060,0.002931
12691,-3.241749,2.585738,-6.485892,-0.011458,0.012923,0.005596
12706,-3.265691,2.540248,-6.454768,-0.027712,0.019319,0.008527
12721,-3.160346,2.564190,-6.418855,-0.043300,0.013456,0.009992
12736,-3.112462,2.540248,-6.555324,-0.045032,-0.006395,0.011058
12751,-3.335123,2.461239,-6.524199,-0.049695,0.013723,0.012257
12766,-3.260903,2.513912,-6.490681,-0.037305,-0.008793,0.006395
12781,-3.157952,2.585738,-6.526594,-0.036239,0.018386,0.002798
12796,-3.093308,2.583344,-6.533776,-0.027845,-0.005462,-0.001599
12811,-3.145981,2.583344,-6.572083,-0.023315,-0.004930,-0.003464
12826,-3.311181,2.504335,-6.406884,-0.021051,-0.024381,-0.006262
12841,-3.272874,2.533065,-6.421249,-0.034374,-0.005729,-0.003997
12856,-3.189077,2.573767,-6.461950,-0.037571,-0.005596,-0.005729
12871,-3.282450,2.583344,-6.447585,-0.032775,0.001466,-0.004663
12886,-3.327940,2.619257,-6.435614,-0.031709,0.012124,-0.002931
12901,-3.232172,2.655170,-6.557718,-0.032242,0.013057,-0.001466
12916,-3.090914,2.777274,-6.574478,-0.029311,0.007461,-0.001998
12931,-3.215413,2.549825,-6.557718,-0.018253,0.000133,-0.002265
12946,-3.282450,2.533065,-6.567295,-0.021983,-0.007994,-0.001865
12961,-3.253720,2.516306,-6.426037,-0.023982,-0.014655,-0.001732
12976,-3.198653,2.547431,-6.414066,-0.031043,0.010392,-0.000799
12991,-3.205836,2.576161,-6.399701,-0.027845,0.007061,0.001066
13006,-3.311181,2.499547,-6.447585,-0.030377,0.021583,-0.000533
13021,-3.303998,2.542642,-6.399701,-0.027446,0.019052,-0.000133
13036,-3.203442,2.552219,-6.509834,-0.033308,0.023982,-0.000933
13051,-3.201048,2.571373,-6.449979,-0.036639,0.014922,-0.001998
13066,-3.260903,2.523489,-6.538565,-0.035440,0.011858,0.000666
13081,-3.361459,2.580949,-6.411672,-0.031576,0.019452,-0.002265
13096,-3.169923,2.609680,-6.505046,-0.029844,0.021717,0.004263
13111,-3.227384,2.669535,-6.483498,-0.035573,0.028112,0.003464
13126,-3.263297,2.554613,-6.569689,-0.029044,0.014522,0.002132
13141,-3.282450,2.683900,-6.500257,-0.025447,0.035573,0.003997
13156,-3.232172,2.604891,-6.461950,-0.021583,0.013057,0.007061
13171,-3.057395,2.590526,-6.572083,-0.025980,0.001998,0.005995
13186,-3.303998,2.523489,-6.473921,-0.026380,-0.001732,0.004397
13201,-3.232172,2.473210,-6.430826,-0.026113,-0.007727,-0.000133
13216,-3.253720,2.511518,-6.485892,-0.024648,-0.001732,-0.002665
13231,-3.143587,2.571373,-6.416461,-0.026247,0.004130,-0.004930
13246,-3.280056,2.545036,-6.485892,-0.032375,0.022649,-0.001732
13261,-3.292027,2.489970,-6.461950,-0.036372,0.009992,-0.000933
13276,-3.157952,2.578555,-6.438008,-0.037438,0.014922,-0.005729
13291,-3.186682,2.636016,-6.538565,-0.031176,-0.002531,-0.003997
13306,-3.253720,2.571373,-6.557718,-0.032908,0.013190,-0.002665
13321,-3.303998,2.497152,-6.517017,-0.032508,0.004130,0.000266
13336,-3.311181,2.652776,-6.409278,-0.028911,0.013456,-0.000133
13351,-3.131616,2.647987,-6.447585,-0.028911,0.001732,0.000533
13366,-3.198653,2.533065,-6.414066,-0.034640,0.020917,0.005596
13381,-3.323152,2.518700,-6.461950,-0.035706,0.023315,0.006129
13396,-3.251326,2.609680,-6.440403,-0.032242,0.018652,0.005596
13411,-3.217807,2.580949,-6.428432,-0.030910,0.023049,0.005995
13426,-3.217807,2.557007,-6.502652,-0.025447,0.006795,0.004663
13441,-3.323152,2.489970,-6.574478,-0.029178,0.011724,0.004130
13456,-3.253720,2.576161,-6.497863,-0.027446,-0.000133,0.004530
13471,-3.201048,2.647987,-6.485892,-0.024515,0.006528,0.001332
13486,-3.229778,2.530671,-6.502652,-0.023049,-0.003198,0.000799
13501,-3.270479,2.521094,-6.478710,-0.025580,-0.004263,0.003198
13516,-3.320758,2.516306,-6.512228,-0.030510,0.008926,0.008793
13531,-3.229778,2.614468,-6.433220,-0.034240,0.008527,0.007994
13546,-3.215413,2.518700,-6.464345,-0.038504,0.025847,0.011591
13561,-3.356671,2.554613,-6.476315,-0.039303,0.012657,0.009459
13576,-3.306392,2.547431,-6.368577,-0.044499,0.037838,0.012657
13591,-3.205836,2.614468,-6.505046,-0.037305,0.018119,0.009326
13606,-3.177106,2.645593,-6.483498,-0.031709,0.017054,0.005329
13621,-3.272874,2.580949,-6.524199,-0.027179,0.018652,0.005596
13636,-3.296816,2.571373,-6.454768,-0.030110,0.015322,0.005462
13651,-3.227384,2.525883,-6.507440,-0.034240,0.021983,0.007194
13666,-3.145981,2.602497,-6.485892,-0.028645,0.016787,0.005596
13681,-3.253720,2.535460,-6.536170,-0.025047,0.014522,0.008660
13696,-3.361459,2.540248,-6.421249,-0.031176,0.019185,0.009992
13711,-3.268085,2.662352,-6.459556,-0.029044,0.001466,0.007061
13726,-3.148375,2.662352,-6.493075,-0.029311,0.017720,0.006795
13741,-3.251326,2.614468,-6.442797,-0.022516,-0.002398,0.003864
13756,-3.251326,2.571373,-6.485892,-0.021450,0.007861,-0.001599
13771,-3.390190,2.568978,-6.481104,-0.021051,0.013456,-0.001466
13786,-3.126827,2.583344,-6.409278,-0.025047,0.005995,0.001599
13801,-3.275268,2.557007,-6.509834,-0.029044,0.026247,0.003331
13816,-3.284845,2.559402,-6.478710,-0.025847,0.007861,0.004796
13831,-3.246537,2.516306,-6.505046,-0.029711,0.026513,0.009326
13846,-3.177106,2.647987,-6.502652,-0.028378,0.010392,0.003730
13861,-3.196259,2.568978,-6.526594,-0.028245,0.016787,0.008660
13876,-3.366247,2.504335,-6.430826,-0.022250,0.011325,0.004263
13891,-3.234566,2.566584,-6.433220,-0.025980,0.016121,0.003730
13906,-3.222595,2.497152,-6.483498,-0.030510,0.025980,0.008394
13921,-3.155558,2.501941,-6.517017,-0.033175,0.012923,0.009459
13936,-3.313575,2.537854,-6.505046,-0.040902,0.028911,0.009726
13951,-3.303998,2.612074,-6.533776,-0.034773,0.009060,0.007727
13966,-3.270479,2.676718,-6.473921,-0.033308,0.024914,0.012257
13981,-3.337517,2.643199,-6.370971,-0.021583,0.016521,0.004663
13996,-3.282450,2.645593,-6.449979,-0.015855,0.007994,0.002531
14011,-3.131616,2.609680,-6.457162,-0.020118,0.002531,0.003064
14026,-3.229778,2.530671,-6.497863,-0.025447,0.015322,0.002798
14041,-3.241749,2.489970,-6.521805,-0.023182,0.005462,0.001998
14056,-3.301604,2.559402,-6.469133,-0.024914,0.023049,-0.000533
14071,-3.215413,2.590526,-6.485892,-0.021583,0.021850,-0.000933
14086,-3.186682,2.504335,-6.550536,-0.022383,0.018253,-0.001066
14101,-3.327940,2.485181,-6.457162,-0.024914,0.024248,-0.004663
14116,-3.294421,2.475605,-6.459556,-0.024515,0.020518,-0.003864
14131,-3.093308,2.576161,-6.505046,-0.029044,0.020518,-0.004130
14146,-3.184288,2.585738,-6.464345,-0.027845,0.018519,-0.001732
14161,-3.284845,2.573767,-6.457162,-0.026247,-0.005729,-0.000266
14176,-3.335123,2.492364,-6.560112,-0.027579,0.002665,0.001066
14191,-3.284845,2.585738,-6.442797,-0.030377,0.011991,0.002931
14206,-3.172317,2.501941,-6.488286,-0.028778,0.014256,0.007594
14221,-3.292027,2.458845,-6.521805,-0.027712,0.013323,0.009326
14236,-3.301604,2.554613,-6.370971,-0.025447,-0.003331,0.008527
14251,-3.191471,1.946486,-6.430826,0.023982,-0.014789,-0.048763
14266,-2.681506,2.205060,-6.098032,-0.029977,-0.071678,-0.000533
14281,-3.268085,2.561796,-6.311116,-0.031176,0.055691,0.002931
14296,-3.390190,2.482787,-6.399701,-0.023449,0.004530,0.000666
14311,-3.112462,2.516306,-6.536170,-0.029044,0.009992,0.002398
14326,-3.213019,2.530671,-6.447585,-0.030110,0.022383,0.005995
14341,-3.157952,2.482787,-6.471527,-0.031176,-0.004796,0.006795
14356,-3.363853,2.545036,-6.509834,-0.033308,0.016787,0.006528
14371,-3.299210,2.659958,-6.464345,-0.030377,0.008127,0.011191
14386,-3.143587,2.600103,-6.550536,-0.016920,0.016920,0.010925
14401,-3.306392,2.566584,-6.531382,-0.015588,0.005063,0.006795
14416,-3.301604,2.458845,-6.464345,-0.020118,0.007594,0.005596
14431,-3.323152,2.511518,-6.505046,-0.020917,0.005329,0.004796
14446,-3.186682,2.549825,-6.495469,-0.023049,-0.001199,0.003064
14461,-3.301604,2.485181,-6.514623,-0.020784,-0.000400,0.004530
14476,-3.217807,2.470816,-6.440403,-0.028245,0.017453,0.002531
14491,-3.371036,2.540248,-6.509834,-0.029444,0.039037,0.002398
14506,-3.145981,2.614468,-6.495469,-0.022783,-0.014789,-0.000400
14521,-3.110068,2.576161,-6.399701,-0.028511,0.021051,-0.001998
14536,-3.464410,2.540248,-6.593631,-0.028245,0.013989,-0.000533
14551,-3.160346,2.537854,-6.442797,-0.020651,-0.018652,-0.004930
14566,-3.272874,2.568978,-6.564901,-0.031576,0.034240,-0.002665
14581,-3.234566,2.616862,-6.552930,-0.019319,-0.027046,-0.003198
14596,-3.162740,2.566584,-6.404490,-0.019585,-0.012923,-0.004530
14611,-3.600879,2.533065,-6.607996,-0.017986,0.003997,-0.002265
14626,-3.134010,2.516306,-6.457162,-0.011058,-0.040103,-0.004796
14641,-3.268085,2.475605,-6.387730,-0.017986,0.025580,-0.004263
14656,-3.380613,2.470816,-6.481104,-0.012790,0.000533,-0.005862
14671,-3.186682,2.530671,-6.473921,-0.013190,0.001732,-0.005063
14686,-3.268085,2.494758,-6.550536,-0.017453,0.012391,-0.003864
14701,-3.136404,2.473210,-6.442797,-0.012124,-0.020251,-0.002132
14716,-3.325546,2.394202,-6.540959,-0.023848,0.019851,0.001066
14731,-3.323152,2.437297,-6.445191,-0.027979,-0.006395,0.001466
14746,-3.258508,2.473210,-6.399701,-0.026913,-0.000533,0.005196
14761,-3.270479,2.499547,-6.447585,-0.026247,0.003464,0.004530
14776,-3.308787,2.573767,-6.507440,-0.024248,0.008527,0.008793
14791,-3.327940,2.554613,-6.493075,-0.009859,-0.028778,0.002531
14806,-3.181894,2.504335,-6.394913,-0.003464,-0.023049,-0.001865
14821,-3.258508,2.545036,-6.524199,0.003864,-0.041701,-0.004530
14836,-3.213019,2.418144,-6.423643,0.004263,-0.059421,-0.005196
14851,-3.493140,2.413355,-6.440403,0.000266,-0.038504,-0.000400
14866,-3.397372,2.499547,-6.339846,-0.009326,-0.029844,-0.000266
14881,-3.339911,2.463634,-6.428432,-0.021051,0.003597,0.006928
14896,-3.275268,2.521094,-6.406884,-0.019718,-0.004663,0.000799
14911,-3.394978,2.480393,-6.457162,-0.015322,-0.000933,-0.005196
14926,-3.404555,2.422932,-6.560112,-0.014256,-0.010259,-0.009060
14941,-3.248932,2.489970,-6.478710,-0.008660,-0.014256,-0.007061
14956,-3.335123,2.375048,-6.430826,-0.016521,-0.021450,-0.009060
14971,-3.361459,2.406173,-6.404490,-0.021184,-0.005862,-0.006262
14986,-3.579331,2.501941,-6.406884,-0.030377,0.017187,-0.001732
15001,-3.325546,2.557007,-6.430826,-0.031176,0.014123,-0.001199
15016,-3.287239,2.461239,-6.464345,-0.032109,0.019851,0.002398
15031,-3.392584,2.458845,-6.457162,-0.033175,0.025447,0.003864
15046,-3.404555,2.468422,-6.452374,-0.032375,0.024115,0.004397
15061,-3.354276,2.549825,-6.447585,-0.027312,0.016521,0.004530
15076,-3.217807,2.473210,-6.452374,-0.025847,0.020384,0.000933
15091,-3.351882,2.552219,-6.564901,-0.024248,0.013323,-0.001199
15106,-3.361459,2.394202,-6.459556,-0.021717,0.004663,-0.006795
15121,-3.368642,2.497152,-6.512228,-0.024515,-0.007194,-0.009060
15136,-3.263297,2.458845,-6.514623,-0.020118,-0.015188,-0.013590
15151,-3.442862,2.468422,-6.490681,-0.015188,-0.017986,-0.013856
15166,-3.488352,2.394202,-6.447585,-0.013989,-0.024248,-0.011458
15181,-3.440468,2.415750,-6.385336,-0.017853,-0.006928,-0.010392
15196,-3.320758,2.463634,-6.426037,-0.012524,-0.036372,-0.017054
15211,-3.375824,2.473210,-6.466739,-0.028778,0.015322,-0.005596
15226,-3.514688,2.461239,-6.442797,-0.019851,-0.017853,-0.000400
15241,-3.361459,2.475605,-6.430826,-0.024914,0.010525,0.001332
15256,-3.390190,2.571373,-6.555324,-0.022783,-0.004930,0.001332
15271,-3.414132,2.530671,-6.478710,-0.018386,-0.015322,0.002398
15286,-3.529053,2.408567,-6.397307,-0.016920,-0.013989,0.001998
15301,-3.435679,2.427721,-6.375759,-0.021983,-0.006129,0.000133
15316,-3.473987,2.466028,-6.440403,-0.023182,0.005462,-0.002531
15331,-3.263297,2.398990,-6.423643,-0.017054,-0.029844,-0.005063
15346,-3.478775,2.334347,-6.433220,-0.027312,0.006928,-0.001332
15361,-3.462016,2.401384,-6.428432,-0.024248,-0.011591,0.000400
15376,-3.394978,2.446874,-6.548141,-0.027312,0.006262,-0.000933
15391,-3.354276,2.501941,-6.478710,-0.022649,-0.018519,0.003198
15406,-3.438074,2.403779,-6.363788,-0.024248,-0.000666,0.002265
15421,-3.459621,2.461239,-6.488286,-0.026913,-0.004930,-0.000400
15436,-3.406949,2.439692,-6.387730,-0.023449,0.002132,0.000000
15451,-3.375824,2.468422,-6.308722,-0.021184,0.002665,-0.003064
15466,-3.464410,2.427721,-6.466739,-0.019185,0.005462,-0.006395
15481,-3.481169,2.274492,-6.404490,-0.023848,0.014922,-0.007461
15496,-3.433285,2.494758,-6.481104,-0.025047,0.029444,-0.005063
15511,-3.318363,2.482787,-6.418855,-0.023315,0.004397,-0.001199
15526,-3.428497,2.379837,-6.452374,-0.025580,0.005329,-0.003464
15541,-3.552995,2.396596,-6.399701,-0.028112,0.003064,-0.000266
15556,-3.509900,2.391808,-6.390124,-0.034640,0.021317,0.000533
15571,-3.454833,2.401384,-6.442797,-0.034240,0.009726,0.003597
15586,-3.378219,2.480393,-6.430826,-0.037038,0.019851,0.006129
15601,-3.555389,2.437297,-6.488286,-0.033041,0.017853,0.004663
15616,-3.397372,2.456451,-6.428432,-0.034507,-0.000533,0.005063
15631,-3.442862,2.449268,-6.373365,-0.034907,0.018786,0.004930
15646,-3.354276,2.437297,-6.349423,-0.024914,-0.007194,0.001199
15661,-3.507505,2.473210,-6.476315,-0.024115,0.009859,-0.004130
15676,-3.543418,2.442086,-6.507440,-0.011858,-0.021450,-0.016787
15691,-3.272874,2.449268,-6.349423,-0.020784,0.007328,-0.015855
15706,-3.488352,2.370260,-6.404490,-0.010392,-0.021450,-0.011991
15721,-3.409343,2.305616,-6.469133,-0.026247,-0.002531,-0.005596
15736,-3.636792,2.367865,-6.430826,-0.024381,-0.007328,-0.001466
15751,-3.416526,2.360683,-6.313510,-0.025047,0.003198,0.000400
15766,-3.411737,2.403779,-6.390124,-0.024515,0.025314,0.003730
15781,-3.452439,2.317587,-6.490681,-0.018786,0.001998,0.003997
15796,-3.531447,2.303222,-6.536170,-0.030910,0.018652,0.012923
15811,-3.481169,2.420538,-6.449979,-0.033308,0.001998,0.012391
15826,-3.342305,2.461239,-6.411672,-0.034907,0.015721,0.016254
15841,-3.555389,2.463634,-6.433220,-0.036905,0.011991,0.012790
15856,-3.476381,2.516306,-6.385336,-0.029711,0.009459,0.007861
15871,-3.493140,2.439692,-6.378153,-0.026247,0.018386,0.007061
15886,-3.308787,2.559402,-6.473921,-0.025580,0.011058,0.003730
15901,-3.469198,2.418144,-6.471527,-0.025580,0.010658,0.001865
15916,-3.521871,2.353500,-6.356606,-0.023982,0.008926,0.000266
15931,-3.421314,2.410961,-6.399701,-0.026779,0.015855,0.000400
15946,-3.414132,2.415750,-6.411672,-0.027845,0.013323,-0.001998
15961,-3.450045,2.370260,-6.385336,-0.031309,0.025047,0.002132
15976,-3.531447,2.406173,-6.433220,-0.034773,0.019718,-0.000400
15991,-3.416526,2.387019,-6.394913,-0.030643,0.022649,0.003198
16006,-3.344700,2.499547,-6.519411,-0.030110,0.012524,0.001599
16021,-3.361459,2.372654,-6.514623,-0.025980,0.006262,-0.001199
16036,-3.507505,2.312799,-6.536170,-0.028645,0.012657,0.002798
16051,-3.514688,2.410961,-6.526594,-0.028112,0.013057,0.005196
16066,-3.406949,2.466028,-6.390124,-0.022649,0.007061,0.003997
16081,-3.459621,2.398990,-6.308722,-0.022916,0.000799,0.001066
16096,-3.509900,2.398990,-6.375759,-0.026913,0.014123,0.000666
16111,-3.605668,2.422932,-6.454768,-0.026513,0.007994,0.000133
16126,-3.394978,2.494758,-6.387730,-0.026646,0.014789,0.002132
16141,-3.466804,2.408567,-6.440403,-0.023848,0.000133,0.001998
16156,-3.481169,2.449268,-6.339846,-0.030377,0.009326,0.000933
16171,-3.552995,2.415750,-6.445191,-0.026247,0.009060,-0.000266
16186,-3.323152,2.398990,-6.531382,-0.023049,-0.008793,-0.003331
16201,-3.466804,2.387019,-6.478710,-0.023848,-0.006262,-0.004130
16216,-3.476381,2.343923,-6.361394,-0.028245,-0.011591,-0.001066
16231,-3.555389,2.432509,-6.385336,-0.029577,0.005729,0.003464
16246,-3.411737,2.379837,-6.414066,-0.026646,-0.003864,-0.001199
16261,-3.452439,2.343923,-6.430826,-0.025847,0.007461,-0.000133
16276,-3.543418,2.298434,-6.404490,-0.030243,0.007194,-0.000533
16291,-3.531447,2.398990,-6.438008,-0.038770,0.024248,0.004130
16306,-3.469198,2.489970,-6.373365,-0.027046,-0.009726,0.009593
16321,-3.438074,2.418144,-6.454768,-0.032375,0.017720,0.006662
16336,-3.567360,2.387019,-6.435614,-0.030243,0.000133,0.007994
16351,-3.524265,2.312799,-6.426037,-0.032908,0.022250,0.007594
16366,-3.550601,2.346318,-6.368577,-0.039836,0.030110,0.009060
16381,-3.361459,2.434903,-6.406884,-0.041168,0.032908,0.010658
16396,-3.373430,2.427721,-6.452374,-0.039703,0.036772,0.005729
16411,-3.502717,2.336741,-6.370971,-0.036905,0.028511,0.002931
16426,-3.485958,2.410961,-6.485892,-0.034240,0.032242,0.002798
16441,-3.394978,2.379837,-6.461950,-0.032642,0.017986,0.002531
16456,-3.488352,2.430115,-6.442797,-0.031576,0.013590,-0.001865
16471,-3.526659,2.391808,-6.442797,-0.027845,0.010126,-0.001332
16486,-3.552995,2.382231,-6.433220,-0.031443,0.015855,0.002398
16501,-3.457227,2.458845,-6.363788,-0.031043,0.019851,0.002798
16516,-3.421314,2.418144,-6.509834,-0.039570,0.017320,0.007461
16531,-3.483563,2.346318,-6.385336,-0.037838,0.018253,0.007727
16546,-3.529053,2.439692,-6.363788,-0.034107,0.016387,0.008527
16561,-3.450045,2.413355,-6.416461,-0.038104,0.028778,0.007061
16576,-3.416526,2.413355,-6.495469,-0.033441,0.025714,0.008394
16591,-3.485958,2.398990,-6.500257,-0.034107,0.024914,0.005329
16606,-3.488352,2.403779,-6.490681,-0.027312,0.020118,0.000666
16621,-3.375824,2.410961,-6.442797,-0.027446,0.014256,0.002931
16636,-3.418920,2.425326,-6.478710,-0.029311,0.012391,-0.001466
16651,-3.411737,2.365471,-6.473921,-0.029577,0.014522,0.001199
16666,-3.531447,2.382231,-6.378153,-0.033175,0.018786,0.001332
16681,-3.512294,2.480393,-6.418855,-0.033175,0.023582,0.003864
16696,-3.373430,2.398990,-6.351817,-0.036505,0.015188,0.007328
16711,-3.473987,2.375048,-6.452374,-0.033441,0.015188,0.006395
16726,-3.564966,2.334347,-6.500257,-0.035040,0.013590,0.011325
16741,-3.505111,2.432509,-6.476315,-0.036106,0.016387,0.011458
16756,-3.423708,2.353500,-6.426037,-0.037704,0.017587,0.013057
16771,-3.435679,2.387019,-6.380548,-0.034107,0.021317,0.010925
16786,-3.574543,2.413355,-6.404490,-0.032242,0.026646,0.012257
16801,-3.435679,2.466028,-6.370971,-0.030243,0.022649,0.007861
16816,-3.430891,2.482787,-6.404490,-0.031176,0.035440,0.005995
16831,-3.428497,2.473210,-6.426037,-0.025580,0.016787,0.001066
16846,-3.469198,2.351106,-6.550536,-0.025447,0.017587,0.001732
16861,-3.500323,2.334347,-6.404490,-0.025714,0.001998,0.001599
16876,-3.351882,2.406173,-6.488286,-0.029178,-0.003730,0.003864
16891,-3.493140,2.408567,-6.449979,-0.035972,0.017587,0.006262
16906,-3.550601,2.329558,-6.421249,-0.036505,0.007061,0.011991
16921,-3.550601,2.427721,-6.394913,-0.039703,0.030910,0.010126
16936,-3.380613,2.432509,-6.471527,-0.034773,0.024781,0.010525
16951,-3.512294,2.384625,-6.416461,-0.042767,0.037172,0.013323
16966,-3.512294,2.363077,-6.433220,-0.034640,0.024914,0.016121
16981,-3.493140,2.454057,-6.303933,-0.027845,0.024115,0.011591
16996,-3.397372,2.511518,-6.514623,-0.027712,0.021850,0.010792
17011,-3.330334,2.422932,-6.375759,-0.028511,0.015721,0.008260
17026,-3.469198,2.394202,-6.399701,-0.027845,0.011724,0.005729
17041,-3.483563,2.382231,-6.445191,-0.029311,0.005196,0.006662
17056,-3.505111,2.413355,-6.397307,-0.027979,0.016920,0.007727
17071,-3.366247,2.430115,-6.435614,-0.031975,0.009593,0.004397
17086,-3.411737,2.379837,-6.471527,-0.033441,0.026646,0.007861
17101,-3.603273,2.384625,-6.533776,-0.031975,0.016654,0.005196
17116,-3.368642,2.396596,-6.500257,-0.036239,0.027979,0.004397
17131,-3.344700,2.497152,-6.481104,-0.035573,0.018786,0.004663
17146,-3.390190,2.425326,-6.490681,-0.035306,0.018519,0.005329
17161,-3.466804,2.461239,-6.370971,-0.029844,0.008926,0.004397
17176,-3.440468,2.408567,-6.447585,-0.026113,-0.006928,0.003064
17191,-3.392584,2.442086,-6.363788,-0.026646,-0.001599,0.003864
17206,-3.442862,2.415750,-6.339846,-0.031576,0.000000,0.001066
17221,-3.514688,2.396596,-6.442797,-0.030110,0.012923,0.003597
17236,-3.471592,2.430115,-6.375759,-0.023582,0.006662,0.002931
17251,-3.368642,2.442086,-6.466739,-0.028778,0.017320,0.001332
17266,-3.452439,2.442086,-6.435614,-0.025447,0.004930,-0.000133
17281,-3.406949,2.434903,-6.466739,-0.025714,0.004796,-0.001066
17296,-3.564966,2.482787,-6.471527,-0.024381,0.007461,-0.004530
17311,-3.323152,2.406173,-6.387730,-0.013723,-0.024781,-0.009326
17326,-3.416526,2.406173,-6.454768,-0.023982,0.000666,-0.008793
17341,-3.519476,2.372654,-6.382942,-0.022783,-0.015588,-0.007994
17356,-3.533842,2.391808,-6.428432,-0.023982,0.009060,-0.005862
17371,-3.548207,2.463634,-6.354211,-0.019985,0.002798,-0.002931
17386,-3.354276,2.468422,-6.452374,-0.021450,0.001599,-0.004263
17401,-3.579331,2.329558,-6.339846,-0.023982,0.011191,0.001732
17416,-3.485958,2.327164,-6.363788,-0.025980,0.000933,0.001332
17431,-3.452439,2.394202,-6.366182,-0.029178,0.030910,0.000133
17446,-3.452439,2.358289,-6.428432,-0.024115,0.012790,0.001466
17461,-3.411737,2.355894,-6.394913,-0.029844,0.034374,-0.000400
17476,-3.533842,2.319981,-6.471527,-0.029577,0.013989,0.001066
17491,-3.462016,2.501941,-6.517017,-0.025714,0.012391,-0.001599
17506,-3.452439,2.432509,-6.500257,-0.018119,0.000799,-0.002265
17521,-3.399766,2.418144,-6.447585,-0.015188,-0.007727,-0.004263
17536,-3.593697,2.360683,-6.488286,-0.015322,-0.007594,-0.003464
17551,-3.473987,2.391808,-6.428432,-0.013856,-0.016521,-0.002798
17566,-3.363853,2.643199,-6.126762,-0.007594,-0.008527,0.013856
17581,-3.447650,2.152387,-6.533776,-0.018386,0.020251,0.005862
17596,-3.560178,2.410961,-6.418855,-0.020917,0.001998,0.005196
17611,-3.533842,2.377442,-6.390124,-0.015322,0.005995,0.005196
17626,-3.414132,2.375048,-6.325481,-0.018253,0.009326,0.009459
17641,-3.397372,2.379837,-6.481104,-0.021317,0.015455,0.004530
17656,-3.512294,2.353500,-6.428432,-0.015721,-0.004130,-0.001599
17671,-3.493140,2.398990,-6.435614,-0.010658,-0.001066,-0.001998
17686,-3.507505,2.413355,-6.375759,-0.014789,-0.002931,0.000266
17701,-3.442862,2.331952,-6.562507,-0.018386,-0.016121,0.003198
17716,-3.658340,2.343923,-6.521805,-0.008260,-0.037172,0.007328
17731,-3.632004,2.327164,-6.387730,-0.022383,-0.013856,0.011591
17746,-3.526659,2.444480,-6.363788,-0.019585,-0.004930,0.012391
17761,-3.485958,2.535460,-6.347029,-0.009859,-0.001998,0.011058
17776,-3.593697,2.279280,-6.411672,-0.000133,-0.010392,0.006795
17791,-3.560178,2.351106,-6.418855,-0.003064,-0.002398,0.006395
17806,-3.572149,2.272097,-6.373365,-0.005596,-0.005596,0.005063
17821,-3.464410,2.389413,-6.502652,-0.013723,-0.006528,0.006262
17836,-3.433285,2.401384,-6.380548,-0.012124,-0.007594,0.003198
17851,-3.648763,2.355894,-6.471527,-0.012657,-0.013723,-0.004263
17866,-3.481169,2.449268,-6.452374,-0.006129,-0.024248,-0.011591
17881,-3.557784,2.315193,-6.481104,-0.013989,-0.012524,-0.013856
17896,-3.581726,2.262521,-6.478710,-0.023049,-0.015588,-0.009060
17911,-3.610456,2.276886,-6.397307,-0.043433,0.035972,-0.004397
17926,-3.531447,2.284068,-6.390124,-0.049562,0.035040,0.001332
17941,-3.617639,2.217031,-6.370971,-0.043966,0.015055,0.001199
17956,-3.564966,2.367865,-6.433220,-0.048629,0.031709,0.002798
17971,-3.562572,2.348712,-6.373365,-0.047297,0.044899,0.001599
17986,-3.464410,2.413355,-6.445191,-0.047164,0.037172,0.009459
18001,-3.524265,2.401384,-6.399701,-0.041168,0.033574,0.006928
18016,-3.608062,2.322376,-6.421249,-0.038371,0.042767,0.006795
18031,-3.485958,2.358289,-6.447585,-0.039703,0.028378,0.005462
18046,-3.402161,2.432509,-6.404490,-0.038770,0.023582,0.004263
18061,-3.641581,2.324770,-6.416461,-0.032642,0.026247,0.003198
18076,-3.658340,2.255338,-6.349423,-0.033974,0.023182,0.005462
18091,-3.502717,2.420538,-6.461950,-0.035440,0.040636,0.005995
18106,-3.371036,2.375048,-6.461950,-0.027179,0.011724,0.003331
18121,-3.473987,2.279280,-6.330269,-0.031576,0.020251,0.001998
18136,-3.600879,2.267309,-6.344635,-0.031309,0.022116,0.005729
18151,-3.548207,2.346318,-6.402095,-0.033974,0.028112,0.009726
18166,-3.414132,2.377442,-6.351817,-0.040236,0.029711,0.012790
18181,-3.454833,2.339135,-6.464345,-0.041035,0.037038,0.011058
18196,-3.572149,2.353500,-6.567295,-0.037704,0.016121,0.010259
18211,-3.442862,2.463634,-6.517017,-0.030643,-0.001199,0.005729
18226,-3.469198,2.403779,-6.368577,-0.029977,0.013723,0.004530
18241,-3.483563,2.353500,-6.332664,-0.026779,-0.002931,0.006928
18256,-3.529053,2.375048,-6.447585,-0.030776,0.015188,0.003730
18271,-3.603273,2.334347,-6.291962,-0.031043,0.002531,0.001332
18286,-3.406949,2.389413,-6.390124,-0.027712,0.007727,0.006262
18301,-3.545813,2.384625,-6.409278,-0.029178,0.012923,0.001865
18316,-3.529053,2.319981,-6.449979,-0.027446,0.011191,0.004663
18331,-3.603273,2.293645,-6.438008,-0.030377,0.018119,0.006662
18346,-3.466804,2.355894,-6.392519,-0.034773,0.019851,0.006528
18361,-3.452439,2.396596,-6.387730,-0.032775,0.017587,0.009326
18376,-3.545813,2.370260,-6.409278,-0.034507,0.010259,0.007861
18391,-3.620033,2.384625,-6.476315,-0.029711,0.004530,0.006528
18406,-3.466804,2.406173,-6.299145,-0.037038,-0.011058,0.005329
18421,-3.481169,2.398990,-6.385336,-0.039436,0.019585,0.009992
18436,-3.514688,2.410961,-6.347029,-0.032242,-0.003198,0.005462
18451,-3.574543,2.365471,-6.471527,-0.027046,0.009726,0.001199
18466,-3.550601,2.348712,-6.347029,-0.024914,0.000799,-0.000666
18481,-3.469198,2.319981,-6.356606,-0.030776,0.010658,-0.001599
18496,-3.538630,2.303222,-6.385336,-0.036905,0.024781,0.000533
18511,-3.531447,2.360683,-6.430826,-0.035040,0.024115,0.000000
18526,-3.536236,2.451663,-6.459556,-0.029444,0.014922,0.000000
18541,-3.459621,2.384625,-6.411672,-0.031309,0.015988,-0.001998
18556,-3.548207,2.348712,-6.488286,-0.036505,0.022649,0.002132
18571,-3.615244,2.377442,-6.323087,-0.029977,0.007194,0.002132
18586,-3.538630,2.319981,-6.303933,-0.035839,0.024515,0.005995
18601,-3.462016,2.341529,-6.378153,-0.034240,0.025047,0.003997
18616,-3.483563,2.387019,-6.490681,-0.035173,0.014389,0.001199
18631,-3.612850,2.358289,-6.488286,-0.031443,0.002132,0.003064
18646,-3.562572,2.360683,-6.509834,-0.031709,-0.000533,0.001865
18661,-3.500323,2.451663,-6.426037,-0.024648,-0.013323,0.000799
18676,-3.524265,2.413355,-6.330269,-0.021583,-0.005596,-0.000266
18691,-3.569755,2.353500,-6.409278,-0.018119,0.002265,-0.002931
18706,-3.538630,2.312799,-6.414066,-0.028245,0.013856,-0.004397
18721,-3.497929,2.401384,-6.349423,-0.027845,0.020784,-0.002665
18736,-3.495534,2.324770,-6.363788,-0.023848,0.015588,0.003597
18751,-3.620033,2.329558,-6.359000,-0.029711,0.034374,0.002132
18766,-3.588908,2.372654,-6.435614,-0.031709,0.029977,0.003464
18781,-3.450045,2.310405,-6.335058,-0.033574,0.036239,0.005862
18796,-3.421314,2.377442,-6.476315,-0.033041,0.034374,0.001332
18811,-3.452439,2.446874,-6.461950,-0.025847,0.020784,0.001732
18826,-3.512294,2.372654,-6.550536,-0.024115,-0.004796,-0.000933
18841,-3.507505,2.355894,-6.344635,-0.029444,-0.003997,0.000000
18856,-3.471592,2.363077,-6.459556,-0.029977,0.003730,0.001466
18871,-3.512294,2.425326,-6.421249,-0.033708,0.009326,0.003464
18886,-3.639187,2.420538,-6.411672,-0.032775,0.021850,0.003997
18901,-3.560178,2.351106,-6.464345,-0.027179,0.015055,0.002931
18916,-3.418920,2.310405,-6.414066,-0.033308,0.015855,0.003464
18931,-3.579331,2.348712,-6.426037,-0.031043,0.018786,0.002132
18946,-3.586514,2.353500,-6.464345,-0.031576,0.016121,0.002132
18961,-3.569755,2.331952,-6.452374,-0.031709,0.019985,0.002665
18976,-3.442862,2.401384,-6.356606,-0.030243,0.018519,0.000933
18991,-3.490746,2.375048,-6.469133,-0.029311,0.019452,0.001466
19006,-3.560178,2.365471,-6.509834,-0.029444,0.017587,0.002132
19021,-3.584120,2.372654,-6.363788,-0.026779,-0.003064,0.000666
19036,-3.466804,2.391808,-6.394913,-0.030377,0.008127,-0.000400
19051,-3.490746,2.291251,-6.397307,-0.030377,0.010392,0.001599
19066,-3.548207,2.346318,-6.399701,-0.032242,0.006528,0.006262
19081,-3.620033,2.363077,-6.514623,-0.033041,0.011991,0.003464
19096,-3.509900,2.334347,-6.426037,-0.031975,0.020651,-0.000400
19111,-3.481169,2.377442,-6.406884,-0.027845,0.018919,0.002265
19126,-3.574543,2.329558,-6.416461,-0.029044,0.017986,0.001332
19141,-3.605668,2.382231,-6.347029,-0.030643,0.016787,0.001466
19156,-3.507505,2.391808,-6.461950,-0.031576,0.011458,0.000000
19171,-3.490746,2.415750,-6.459556,-0.030776,0.013323,-0.001732
19186,-3.560178,2.317587,-6.449979,-0.028645,0.012124,0.000133
19201,-3.627216,2.363077,-6.356606,-0.032375,0.004130,-0.000666
19216,-3.526659,2.382231,-6.464345,-0.031842,0.003064,0.000266
19231,-3.445256,2.379837,-6.363788,-0.033574,0.007061,0.001199
19246,-3.557784,2.327164,-6.406884,-0.035839,0.015988,0.003331
19261,-3.591302,2.355894,-6.380548,-0.034374,0.016787,0.004397
19276,-3.533842,2.331952,-6.421249,-0.036106,0.029044,0.002398
19291,-3.473987,2.382231,-6.521805,-0.031709,0.014123,0.003997
19306,-3.505111,2.305616,-6.402095,-0.033308,0.017054,0.001332
19321,-3.624821,2.334347,-6.438008,-0.032642,0.009459,-0.002132
19336,-3.572149,2.463634,-6.411672,-0.031709,0.016521,-0.001466
19351,-3.500323,2.470816,-6.454768,-0.028511,0.012524,-0.002531
19366,-3.457227,2.360683,-6.406884,-0.032109,0.007328,0.001066
19381,-3.622427,2.365471,-6.471527,-0.037172,0.013723,-0.001199
19396,-3.502717,2.367865,-6.449979,-0.036639,0.002265,-0.001199
19411,-3.514688,2.367865,-6.327875,-0.031176,0.002665,0.000799
19426,-3.471592,2.348712,-6.461950,-0.028245,-0.001732,0.006129
19441,-3.543418,2.276886,-6.390124,-0.036905,0.001199,0.007194
19456,-3.593697,2.346318,-6.370971,-0.035306,0.024781,0.003464
19471,-3.557784,2.360683,-6.411672,-0.017587,-0.010658,-0.000933
19486,-3.361459,2.406173,-6.435614,-0.018786,-0.013989,-0.002665
19501,-3.636792,2.255338,-6.370971,-0.027446,0.001599,-0.001599
19516,-3.679888,2.315193,-6.459556,-0.034907,0.004663,-0.003064
19531,-3.476381,2.346318,-6.402095,-0.033574,0.011991,0.000000
19546,-3.524265,2.396596,-6.459556,-0.028112,0.031176,0.000000
19561,-3.584120,2.327164,-6.438008,-0.023582,0.014123,-0.003064
19576,-3.737349,2.092532,-6.440403,-0.008127,-0.028245,0.000933
19591,-3.330334,2.377442,-6.449979,-0.036239,0.029577,0.004663
19606,-3.560178,2.391808,-6.366182,-0.030510,0.050894,0.005729
19621,-3.543418,2.442086,-6.373365,-0.024248,0.021583,-0.000933
19636,-3.600879,2.351106,-6.370971,-0.024914,0.026513,0.010792
19651,-3.610456,2.319981,-6.402095,-0.026513,0.005596,0.007727
19666,-3.404555,2.343923,-6.363788,-0.029178,-0.006528,0.007594
19681,-3.529053,2.272097,-6.378153,-0.030910,0.011191,0.004663
19696,-3.610456,2.346318,-6.402095,-0.029844,-0.000533,0.005462
19711,-3.545813,2.284068,-6.354211,-0.035173,0.023582,0.002798
19726,-3.505111,2.348712,-6.449979,-0.037838,0.027579,0.004397
19741,-3.471592,2.351106,-6.433220,-0.039303,0.033841,0.004930
19756,-3.615244,2.339135,-6.416461,-0.034640,0.044899,0.002265
19771,-3.521871,2.312799,-6.505046,-0.027179,0.019718,0.003064
19786,-3.354276,2.456451,-6.349423,-0.013723,-0.020118,0.002132
19801,-3.526659,2.300828,-6.485892,-0.026380,0.059155,0.002531
19816,-3.667917,2.312799,-6.461950,-0.015322,-0.005063,0.005063
19831,-3.375824,2.303222,-6.414066,-0.022783,-0.003464,0.006662
19846,-3.521871,2.355894,-6.452374,-0.028778,0.012124,0.008793
19861,-3.411737,2.346318,-6.378153,-0.034640,0.017587,0.005462
19876,-3.684676,2.264915,-6.406884,-0.028378,0.000133,0.004796
19891,-3.615244,2.331952,-6.409278,-0.027312,-0.016387,0.003864
19906,-3.418920,2.355894,-6.270414,-0.024648,0.011458,0.004130
19921,-3.550601,2.341529,-6.351817,-0.023848,0.015855,0.000799
19936,-3.495534,2.334347,-6.392519,-0.026380,0.030243,0.001466
19951,-3.562572,2.353500,-6.414066,-0.027312,0.040636,0.007061
19966,-3.574543,2.319981,-6.454768,-0.019585,0.036505,0.003464
19981,-3.485958,2.348712,-6.514623,-0.017320,0.015988,0.003864
19996,-3.493140,2.339135,-6.461950,-0.027579,0.016787,0.008394
20011,-3.687071,2.272097,-6.567295,-0.022116,-0.004397,0.004930
20026,-3.476381,2.372654,-6.533776,-0.036639,0.009193,0.004930
20041,-3.411737,2.391808,-6.347029,-0.035839,-0.008660,0.011724
20056,-3.488352,2.408567,-6.435614,-0.035839,0.021051,0.007594
20071,-3.651158,2.284068,-6.351817,-0.030510,0.020118,0.009593
20086,-3.605668,2.415750,-6.394913,-0.029977,0.022649,0.005995
20101,-3.517082,2.343923,-6.332664,-0.026913,0.025980,0.007861
20116,-3.505111,2.346318,-6.337452,-0.023982,0.029044,0.010259
20131,-3.555389,2.379837,-6.406884,-0.018253,0.011458,0.002798
20146,-3.483563,2.298434,-6.567295,-0.017453,0.019851,0.000799
20161,-3.466804,2.327164,-6.483498,-0.013190,0.001865,0.001466
20176,-3.502717,2.284068,-6.452374,-0.018119,-0.000133,0.007061
20191,-3.603273,2.214637,-6.428432,-0.040636,0.023315,0.010259
20206,-3.550601,2.312799,-6.430826,-0.038237,0.010792,0.012657
20221,-3.512294,2.432509,-6.428432,-0.039969,0.038770,0.012923
20236,-3.490746,2.432509,-6.409278,-0.035306,0.023582,0.009859
20251,-3.603273,2.351106,-6.366182,-0.035440,0.037038,0.012524
20266,-3.634398,2.334347,-6.500257,-0.028245,0.024914,0.012257
20281,-3.447650,2.315193,-6.390124,-0.028511,0.033441,0.013590
20296,-3.514688,2.269703,-6.394913,-0.025714,0.018919,0.013190
20311,-3.497929,2.288857,-6.576872,-0.031176,0.020118,0.010259
20326,-3.536236,2.327164,-6.411672,-0.031176,0.012257,0.007727
20341,-3.426103,2.363077,-6.421249,-0.024248,-0.011058,-0.004263
20356,-3.416526,2.403779,-6.521805,-0.022250,-0.011058,-0.011858
20371,-3.627216,2.252944,-6.370971,-0.015455,-0.025714,-0.027712
20386,-3.801992,2.231396,-6.524199,-0.027446,0.011991,-0.013323
20401,-3.454833,2.427721,-6.382942,-0.035306,0.006528,-0.000533
20416,-3.447650,2.377442,-6.366182,-0.037172,0.045698,0.008127
20431,-3.622427,2.370260,-6.509834,-0.029844,0.013590,0.010792
20446,-3.538630,2.324770,-6.418855,-0.030510,0.023182,0.008926
20461,-3.555389,2.437297,-6.473921,-0.026779,0.028245,0.007194
20476,-3.397372,2.377442,-6.426037,-0.022250,0.006395,0.000533
20491,-3.555389,2.334347,-6.466739,-0.025980,0.012790,-0.002265
20506,-3.586514,2.315193,-6.452374,-0.022516,-0.003864,-0.003864
20521,-3.541024,2.310405,-6.387730,-0.023715,0.000000,-0.004130
20536,-3.505111,2.279280,-6.421249,-0.026513,0.003064,-0.011591
20551,-3.667917,2.178724,-6.562507,-0.043034,0.057023,-0.005596
20566,-3.584120,2.343923,-6.318298,-0.038104,0.024381,0.004530
20581,-3.560178,2.317587,-6.447585,-0.037838,0.048096,0.015055
20596,-3.471592,2.264915,-6.476315,-0.031975,0.035839,0.011325
20611,-3.505111,2.365471,-6.473921,-0.030243,0.025447,0.016254
20626,-3.509900,2.353500,-6.394913,-0.031443,0.020384,0.013190
20641,-3.615244,2.269703,-6.404490,-0.034640,0.024648,0.018519
20656,-3.464410,2.427721,-6.387730,-0.032242,0.017986,0.017587
20671,-3.418920,2.327164,-6.351817,-0.039436,0.028112,0.015588
20686,-3.593697,2.365471,-6.447585,-0.034107,0.016521,0.016920
20701,-3.581726,2.324770,-6.421249,-0.035306,0.020651,0.010925
20716,-3.490746,2.425326,-6.387730,-0.037438,0.019319,0.013856
20731,-3.428497,2.396596,-6.442797,-0.041302,0.022783,0.012790
20746,-3.629610,2.298434,-6.370971,-0.041435,0.046098,0.019185
20761,-3.564966,2.408567,-6.394913,-0.032242,0.029178,0.016121
20776,-3.442862,2.425326,-6.471527,-0.037172,0.039703,0.013989
20791,-3.416526,2.319981,-6.411672,-0.034374,0.023449,0.008793
20806,-3.428497,2.403779,-6.440403,-0.039969,0.031576,0.009060
20821,-3.596091,2.398990,-6.461950,-0.035040,0.026513,0.005196
20836,-3.430891,2.365471,-6.478710,-0.029044,-0.009326,0.005196
20851,-3.361459,2.363077,-6.493075,-0.034107,-0.000400,0.002132
20866,-3.572149,2.319981,-6.442797,-0.034640,0.001599,0.007994
20881,-3.581726,2.432509,-6.354211,-0.038637,0.025314,0.011458
20896,-3.567360,2.461239,-6.414066,-0.033441,0.030243,0.011058
20911,-3.493140,2.375048,-6.483498,-0.024115,0.016654,0.003730
20926,-3.423708,2.346318,-6.497863,-0.031576,0.023982,0.006395
20941,-3.576937,2.336741,-6.550536,-0.026779,0.007994,0.003997
20956,-3.569755,2.331952,-6.325481,-0.028511,0.020251,0.001998
20971,-3.428497,2.377442,-6.373365,-0.027712,0.026380,0.005995
20986,-3.406949,2.365471,-6.435614,-0.028245,0.032642,0.001066
21001,-3.557784,2.308010,-6.540959,-0.025580,0.010126,0.000799
21016,-3.509900,2.377442,-6.430826,-0.028911,0.026113,0.007061
21031,-3.524265,2.339135,-6.488286,-0.029577,0.013323,0.008926
21046,-3.337517,2.327164,-6.433220,-0.031443,0.019052,0.011191
21061,-3.610456,2.346318,-6.459556,-0.034640,0.029711,0.010126
21076,-3.495534,2.319981,-6.313510,-0.031975,0.003331,0.007194
21091,-3.435679,2.394202,-6.373365,-0.038504,0.025314,0.007328
21106,-3.332729,2.367865,-6.359000,-0.034107,0.003730,0.002665
21121,-3.471592,2.398990,-6.387730,-0.033841,0.019985,-0.005462
21136,-3.519476,2.363077,-6.447585,-0.027579,-0.011991,-0.017453
21151,-3.466804,2.269703,-6.426037,-0.030243,-0.005862,-0.020118
21166,-3.488352,2.322376,-6.385336,-0.043300,0.020384,-0.006262
21181,-3.526659,2.226608,-6.459556,-0.049429,0.037038,-0.005862
21196,-3.639187,2.272097,-6.493075,-0.052760,0.029844,0.000266
21211,-3.473987,2.341529,-6.370971,-0.055557,0.038637,0.003997
21226,-3.186682,2.523489,-6.394913,-0.054758,0.035040,-0.001998
21241,-3.440468,2.461239,-6.454768,-0.041168,0.028511,0.001998
21256,-3.591302,2.351106,-6.299145,-0.029977,0.001599,0.001199
21271,-3.447650,2.413355,-6.428432,-0.029311,0.007061,0.001732
21286,-3.380613,2.396596,-6.411672,-0.025580,0.001466,0.000533
21301,-3.512294,2.398990,-6.531382,-0.031176,0.012923,0.000933
21316,-3.593697,2.401384,-6.488286,-0.029711,0.009326,0.002265
21331,-3.464410,2.351106,-6.488286,-0.029711,0.019052,0.002398
21346,-3.423708,2.446874,-6.476315,-0.028245,0.005862,-0.000799
21361,-3.351882,2.375048,-6.416461,-0.020251,0.002398,-0.002265
21376,-3.524265,2.379837,-6.505046,-0.013856,-0.007328,-0.003597
21391,-3.493140,2.415750,-6.397307,-0.008127,-0.027712,-0.007461
21406,-3.497929,2.351106,-6.524199,-0.008926,-0.023315,-0.005729
21421,-3.452439,2.300828,-6.301539,-0.012923,-0.020518,-0.004530
21436,-3.610456,2.303222,-6.402095,-0.019851,0.000400,-0.000533
21451,-3.579331,2.329558,-6.426037,-0.019452,-0.001199,0.003730
21466,-3.505111,2.365471,-6.447585,-0.027845,0.009326,0.003198
21481,-3.462016,2.341529,-6.457162,-0.030110,0.014123,0.005596
21496,-3.596091,2.329558,-6.435614,-0.042767,0.032508,0.001599
21511,-3.555389,2.401384,-6.452374,-0.032642,0.009726,0.001865
21526,-3.450045,2.331952,-6.339846,-0.032775,0.009060,-0.001599
21541,-3.514688,2.372654,-6.366182,-0.027845,0.000933,-0.001865
21556,-3.454833,2.353500,-6.469133,-0.033175,0.001199,-0.003064
21571,-3.610456,2.372654,-6.442797,-0.027979,0.006662,-0.003864
21586,-3.476381,2.425326,-6.445191,-0.027712,0.000000,-0.003198
21601,-3.536236,2.391808,-6.409278,-0.025314,0.009060,-0.001332
21616,-3.560178,2.343923,-6.375759,-0.026380,0.003331,0.000000
21631,-3.596091,2.315193,-6.361394,-0.029444,0.017054,0.006262
21646,-3.502717,2.260126,-6.454768,-0.029844,0.017187,0.006928
21661,-3.406949,2.427721,-6.442797,-0.023582,0.021051,0.009326
21676,-3.497929,2.274492,-6.438008,-0.023049,0.017587,0.004397
21691,-3.596091,2.346318,-6.445191,-0.021184,0.015455,0.006795
21706,-3.572149,2.334347,-6.414066,-0.019718,-0.004397,0.006395
21721,-3.390190,2.353500,-6.464345,-0.025447,0.006129,0.004130
21736,-3.531447,2.291251,-6.442797,-0.025580,0.005462,0.006662
21751,-3.502717,2.286463,-6.399701,-0.027579,0.008926,0.002798
21766,-3.603273,2.365471,-6.356606,-0.033841,0.021850,0.006262
21781,-3.497929,2.360683,-6.373365,-0.033574,0.015322,0.009859
21796,-3.485958,2.365471,-6.435614,-0.037305,0.031309,0.007727
21811,-3.555389,2.358289,-6.473921,-0.038770,0.025181,0.005462
21826,-3.469198,2.422932,-6.380548,-0.040236,0.026646,0.001865
21841,-3.526659,2.370260,-6.373365,-0.039436,0.033708,0.001466
21856,-3.383007,2.446874,-6.414066,-0.034240,0.016920,0.003331
21871,-3.574543,2.312799,-6.517017,-0.033041,0.035972,0.000266
21886,-3.622427,2.202666,-6.378153,-0.035706,0.015322,0.002665
21901,-3.462016,2.341529,-6.449979,-0.041968,0.038637,0.006395
21916,-3.581726,2.339135,-6.500257,-0.034107,0.031043,0.007328
21931,-3.435679,2.360683,-6.469133,-0.025580,0.007461,0.003730
21946,-3.495534,2.343923,-6.471527,-0.023315,0.011325,0.002265
21961,-3.459621,2.353500,-6.514623,-0.017054,-0.019452,0.000400
21976,-3.569755,2.226608,-6.373365,-0.023049,-0.003597,0.003198
21991,-3.524265,2.315193,-6.318298,-0.024515,-0.005462,0.007328
22006,-3.423708,2.418144,-6.461950,-0.027845,0.011458,0.004130
22021,-3.481169,2.360683,-6.500257,-0.028245,0.011191,0.008660
22036,-3.541024,2.308010,-6.438008,-0.030910,0.009193,0.003864
22051,-3.632004,2.351106,-6.440403,-0.033974,0.019052,0.007061
22066,-3.459621,2.363077,-6.275203,-0.038237,0.015455,0.006795
22081,-3.452439,2.339135,-6.442797,-0.040902,0.038237,0.009726
22096,-3.505111,2.396596,-6.466739,-0.038770,0.020651,0.007461
22111,-3.572149,2.408567,-6.394913,-0.036772,0.024248,0.004663
22126,-3.485958,2.403779,-6.433220,-0.029844,0.004397,0.003864
22141,-3.483563,2.398990,-6.366182,-0.028245,0.012657,0.004130
22156,-3.620033,2.355894,-6.481104,-0.026513,0.003864,0.004263
22171,-3.620033,2.255338,-6.385336,-0.025847,0.005729,0.004930
22186,-3.550601,2.396596,-6.402095,-0.031043,0.027446,0.003597
22201,-3.454833,2.358289,-6.473921,-0.031309,0.027046,0.006528
22216,-3.485958,2.319981,-6.490681,-0.027046,0.023315,0.004263
22231,-3.598485,2.284068,-6.485892,-0.027979,0.008127,0.001865
22246,-3.502717,2.310405,-6.397307,-0.035306,0.002931,0.007594
22261,-3.490746,2.358289,-6.402095,-0.038104,0.021184,0.008793
22276,-3.509900,2.384625,-6.385336,-0.029844,0.010126,0.005596
22291,-3.620033,2.317587,-6.517017,-0.026779,0.012790,0.006662
22306,-3.545813,2.348712,-6.411672,-0.024381,0.012124,0.005063
22321,-3.368642,2.315193,-6.435614,-0.030910,0.016521,0.005196
22336,-3.572149,2.312799,-6.399701,-0.029311,0.015721,0.006928
22351,-3.576937,2.329558,-6.385336,-0.031043,0.019185,0.009326
22366,-3.612850,2.329558,-6.356606,-0.035306,0.013989,0.012790
22381,-3.462016,2.377442,-6.399701,-0.039570,0.034640,0.010392
22396,-3.505111,2.387019,-6.509834,-0.035839,0.022250,0.013323
22411,-3.524265,2.348712,-6.469133,-0.032775,0.011058,0.012790
22426,-3.596091,2.463634,-6.428432,-0.029844,0.007994,0.007594
22441,-3.414132,2.494758,-6.497863,-0.025447,0.000400,0.006395
22456,-3.481169,2.408567,-6.488286,-0.025181,0.007594,0.001998
22471,-3.526659,2.336741,-6.411672,-0.026380,0.015188,0.000533
22486,-3.600879,2.315193,-6.449979,-0.031043,0.032109,0.003198
22501,-3.473987,2.339135,-6.399701,-0.030910,0.019851,0.003730
22516,-3.399766,2.327164,-6.433220,-0.031842,0.031975,0.003597
22531,-3.567360,2.331952,-6.447585,-0.031709,0.014123,0.004130
22546,-3.564966,2.396596,-6.449979,-0.026113,0.011458,0.005729
22561,-3.488352,2.324770,-6.550536,-0.021583,0.007461,0.007461
22576,-3.404555,2.327164,-6.433220,-0.024115,0.007061,0.005995
22591,-3.545813,2.329558,-6.351817,-0.024515,0.013723,0.005729
22606,-3.538630,2.322376,-6.392519,-0.027979,0.022516,0.004663
22621,-3.529053,2.408567,-6.435614,-0.027845,0.032109,0.004130
22636,-3.411737,2.398990,-6.423643,-0.027446,0.024914,0.005063
22651,-3.502717,2.351106,-6.452374,-0.029977,0.019585,0.004397
22666,-3.567360,2.336741,-6.416461,-0.029711,0.012790,0.002132
22681,-3.564966,2.382231,-6.385336,-0.032242,0.019185,0.005729
22696,-3.404555,2.327164,-6.430826,-0.035306,0.007861,0.004263
22711,-3.493140,2.413355,-6.440403,-0.037971,0.028245,0.005196
22726,-3.629610,2.446874,-6.447585,-0.032242,0.015322,0.001466
22741,-3.500323,2.377442,-6.368577,-0.030243,0.013590,0.000799
22756,-3.445256,2.470816,-6.464345,-0.026913,0.008127,-0.005596
22771,-3.466804,2.406173,-6.414066,-0.024381,0.009593,-0.005729
22786,-3.533842,2.343923,-6.421249,-0.017320,0.006129,-0.005329
22801,-3.521871,2.336741,-6.411672,-0.021051,0.007594,-0.003997
22816,-3.464410,2.360683,-6.481104,-0.020518,0.011591,-0.002398
22831,-3.531447,2.272097,-6.495469,-0.020651,0.018652,0.004663
22846,-3.555389,2.351106,-6.442797,-0.018786,0.008260,0.005596
22861,-3.564966,2.312799,-6.411672,-0.026113,0.019052,0.010658
22876,-3.440468,2.348712,-6.488286,-0.026113,0.017320,0.008926
22891,-3.366247,2.367865,-6.411672,-0.029311,0.018386,0.009726
22906,-3.562572,2.291251,-6.526594,-0.022783,0.007194,0.005196
22921,-3.476381,2.317587,-6.382942,-0.023182,-0.017054,0.004930
22936,-3.483563,2.334347,-6.438008,-0.025580,-0.014123,0.003597
22951,-3.440468,2.310405,-6.399701,-0.031576,-0.011724,0.003064
22966,-3.588908,2.413355,-6.382942,-0.034240,0.009326,0.004397
22981,-3.600879,2.449268,-6.375759,-0.031576,0.008394,0.001599
22996,-3.519476,2.444480,-6.473921,-0.034374,0.014256,0.000000
23011,-3.555389,2.379837,-6.390124,-0.027579,0.014922,0.001599
23026,-3.541024,2.398990,-6.363788,-0.026247,0.005862,0.001332
23041,-3.636792,2.377442,-6.428432,-0.026380,0.012657,0.005063
23056,-3.555389,2.351106,-6.428432,-0.020118,0.005329,0.003464
23071,-3.402161,2.322376,-6.457162,-0.022516,0.013723,0.005596
23086,-3.521871,2.236184,-6.435614,-0.026247,0.012790,0.010126
23101,-3.541024,2.236184,-6.495469,-0.032508,0.014655,0.007328
23116,-3.562572,2.281674,-6.483498,-0.033574,0.018919,0.008926
23131,-3.428497,2.322376,-6.502652,-0.033574,0.016254,0.007061
23146,-3.521871,2.334347,-6.469133,-0.034907,0.018253,0.005596
23161,-3.490746,2.367865,-6.442797,-0.029844,0.001466,0.002798
23176,-3.572149,2.358289,-6.416461,-0.023715,0.006395,-0.001066
23191,-3.466804,2.358289,-6.497863,-0.024648,-0.007594,-0.000533
23206,-3.485958,2.379837,-6.380548,-0.027979,0.011724,0.002931
23221,-3.679888,2.308010,-6.433220,-0.029577,0.014522,0.003864
23236,-3.555389,2.418144,-6.426037,-0.026513,0.011858,0.001599
23251,-3.536236,2.401384,-6.438008,-0.028911,0.016387,0.004796
23266,-3.481169,2.327164,-6.394913,-0.031842,0.012124,0.004663
23281,-3.632004,2.293645,-6.390124,-0.034240,0.025181,0.004130
23296,-3.529053,2.286463,-6.416461,-0.027579,0.008926,0.003997
23311,-3.552995,2.372654,-6.514623,-0.026913,0.014389,0.001865
23326,-3.442862,2.284068,-6.473921,-0.029178,0.004796,0.002132
23341,-3.538630,2.324770,-6.466739,-0.025181,0.003730,0.001199
23356,-3.608062,2.317587,-6.327875,-0.025714,-0.005196,0.001865
23371,-3.445256,2.255338,-6.368577,-0.029711,0.006528,0.001732
23386,-3.464410,2.351106,-6.363788,-0.035173,0.020384,0.004397
23401,-3.450045,2.382231,-6.485892,-0.029044,0.002265,0.005196
23416,-3.634398,2.346318,-6.464345,-0.029044,0.007061,0.003198
23431,-3.512294,2.382231,-6.404490,-0.026646,-0.001599,0.001865
23446,-3.483563,2.363077,-6.368577,-0.030910,0.010126,0.005729
23461,-3.531447,2.334347,-6.378153,-0.033175,0.012790,0.004796
23476,-3.639187,2.315193,-6.361394,-0.032508,0.018386,0.003730
23491,-3.521871,2.336741,-6.423643,-0.037838,0.019185,0.004130
23506,-3.423708,2.291251,-6.485892,-0.034507,0.021317,0.003064
23521,-3.514688,2.327164,-6.404490,-0.037038,0.026380,0.002931
23536,-3.529053,2.238579,-6.440403,-0.035573,0.008260,0.005596
23551,-3.526659,2.231396,-6.488286,-0.032775,0.017720,0.007328
23566,-3.476381,2.336741,-6.481104,-0.030377,-0.001466,0.004796
23581,-3.433285,2.382231,-6.418855,-0.028778,-0.002531,0.005063
23596,-3.622427,2.389413,-6.349423,-0.030243,-0.000400,0.001998
23611,-3.567360,2.408567,-6.363788,-0.028378,-0.000933,0.004130
23626,-3.555389,2.315193,-6.294356,-0.034374,0.016387,0.005063
23641,-3.387795,2.396596,-6.402095,-0.032508,0.013456,0.005063
23656,-3.620033,2.377442,-6.430826,-0.029977,0.019319,0.004530
23671,-3.545813,2.339135,-6.404490,-0.029311,0.007461,0.003997
23686,-3.509900,2.418144,-6.452374,-0.030910,0.020784,0.004130
23701,-3.512294,2.324770,-6.454768,-0.027446,0.015988,0.005995
23716,-3.505111,2.226608,-6.502652,-0.030243,0.023582,0.004663
23731,-3.593697,2.291251,-6.493075,-0.032908,0.021051,0.003464
23746,-3.452439,2.312799,-6.375759,-0.030643,0.013723,0.001199
23761,-3.483563,2.341529,-6.500257,-0.029577,0.014655,0.000799
23776,-3.447650,2.260126,-6.406884,-0.028778,0.002531,-0.000133
23791,-3.596091,2.324770,-6.488286,-0.034507,0.022116,0.001599
23806,-3.481169,2.319981,-6.361394,-0.033041,0.000799,0.000666
23821,-3.428497,2.372654,-6.442797,-0.033574,0.017720,-0.000400
23836,-3.629610,2.382231,-6.435614,-0.030377,0.009193,0.000799
23851,-3.569755,2.346318,-6.323087,-0.030910,0.010392,0.001066
23866,-3.584120,2.331952,-6.380548,-0.031176,0.020784,0.001998
23881,-3.545813,2.355894,-6.301539,-0.031176,0.011991,0.005729
23896,-3.557784,2.312799,-6.404490,-0.034240,0.020917,0.003331
23911,-3.608062,2.322376,-6.342240,-0.029044,0.006262,0.000799
23926,-3.505111,2.377442,-6.457162,-0.029711,0.014389,0.001066
23941,-3.521871,2.305616,-6.459556,-0.029977,0.017187,0.003597
23956,-3.469198,2.339135,-6.402095,-0.031709,0.011325,0.001865
23971,-3.667917,2.296039,-6.399701,-0.034107,0.028645,0.001732
23986,-3.497929,2.348712,-6.359000,-0.030910,0.008260,0.004263
24001,-3.445256,2.379837,-6.459556,-0.028778,0.019985,0.003730
24016,-3.490746,2.308010,-6.409278,-0.028911,0.002931,0.004663
24031,-3.519476,2.343923,-6.428432,-0.033841,0.017054,0.006395
24046,-3.639187,2.418144,-6.481104,-0.026513,0.011591,0.004130
24061,-3.418920,2.396596,-6.442797,-0.022250,-0.008793,0.003064
24076,-3.471592,2.382231,-6.500257,-0.024781,0.013057,0.000799
24091,-3.643975,2.298434,-6.399701,-0.022516,-0.002931,0.003597
24106,-3.641581,2.319981,-6.282385,-0.025980,0.005196,0.003997
24121,-3.586514,2.370260,-6.476315,-0.026380,0.015855,0.004130
24136,-3.411737,2.262521,-6.375759,-0.029844,0.013590,0.004130
24151,-3.591302,2.281674,-6.495469,-0.035440,0.027979,0.008793
24166,-3.596091,2.281674,-6.459556,-0.036639,0.030510,0.012391
24181,-3.509900,2.422932,-6.447585,-0.038637,0.026646,0.011325
24196,-3.483563,2.384625,-6.404490,-0.029577,0.026113,0.012257
24211,-3.488352,2.341529,-6.488286,-0.030377,0.011458,0.006395
24226,-3.586514,2.298434,-6.421249,-0.030910,0.023315,0.007594
24241,-3.473987,2.384625,-6.387730,-0.027979,0.027579,0.007594
24256,-3.416526,2.449268,-6.447585,-0.021583,-0.004130,0.001599
24271,-3.483563,2.343923,-6.428432,-0.023582,0.000933,0.001466
24286,-3.696647,2.279280,-6.411672,-0.026113,-0.006528,0.000799
24301,-3.533842,2.406173,-6.335058,-0.028245,-0.003064,0.003464
24316,-3.493140,2.394202,-6.457162,-0.028511,0.020917,-0.000133
24331,-3.500323,2.353500,-6.332664,-0.025714,-0.000400,-0.002132
24346,-3.608062,2.293645,-6.430826,-0.028645,0.019319,-0.004530
24361,-3.586514,2.341529,-6.327875,-0.023182,0.000133,-0.000799
24376,-3.435679,2.329558,-6.438008,-0.031443,0.019452,-0.000933
24391,-3.564966,2.358289,-6.382942,-0.031309,0.009593,-0.000133
24406,-3.574543,2.286463,-6.301539,-0.032908,0.020251,0.004130
24421,-3.670311,2.363077,-6.375759,-0.035040,0.025447,0.008793
24436,-3.344700,2.370260,-6.387730,-0.032375,0.009859,0.008394
24451,-3.560178,2.331952,-6.421249,-0.033308,0.032375,0.008394
24466,-3.555389,2.310405,-6.366182,-0.031176,-0.009593,0.008260
24481,-3.593697,2.334347,-6.404490,-0.035972,0.036639,0.014655
24496,-3.562572,2.341529,-6.399701,-0.037571,0.007594,0.008260
24511,-3.392584,2.470816,-6.461950,-0.035972,0.031043,0.007061
24526,-3.646369,2.396596,-6.548141,-0.028511,0.021717,0.003331
24541,-3.536236,2.377442,-6.473921,-0.023582,0.002798,0.001732
24556,-3.538630,2.375048,-6.347029,-0.028378,0.018519,-0.000400
24571,-3.344700,2.341529,-6.426037,-0.027312,0.008394,-0.003331
24586,-3.586514,2.331952,-6.476315,-0.029178,0.019851,0.000933
24601,-3.557784,2.310405,-6.339846,-0.030776,0.001332,0.004130
24616,-3.505111,2.353500,-6.387730,-0.036639,0.028112,0.006928
24631,-3.541024,2.264915,-6.325481,-0.030910,0.002931,0.010392
24646,-3.466804,2.331952,-6.469133,-0.035173,0.027579,0.011191
24661,-3.701436,2.308010,-6.402095,-0.029044,0.019585,0.012923
24676,-3.488352,2.298434,-6.466739,-0.028511,0.010925,0.011724
24691,-3.497929,2.398990,-6.409278,-0.029178,0.022916,0.006795
24706,-3.519476,2.327164,-6.430826,-0.021983,0.003997,0.002798
24721,-3.586514,2.291251,-6.335058,-0.023049,0.019452,0.001865
24736,-3.612850,2.418144,-6.488286,-0.026113,0.020118,0.002931
24751,-3.435679,2.382231,-6.426037,-0.031043,0.024515,0.001332
24766,-3.445256,2.387019,-6.452374,-0.023049,0.005729,-0.001066
24781,-3.548207,2.300828,-6.478710,-0.031309,0.012923,-0.001066
24796,-3.562572,2.284068,-6.315904,-0.024515,0.001332,-0.003064
24811,-3.430891,2.389413,-6.390124,-0.028645,0.013856,-0.003597
24826,-3.533842,2.329558,-6.404490,-0.027845,0.005196,0.000799
24841,-3.562572,2.260126,-6.301539,-0.025181,-0.004263,0.001199
24856,-3.608062,2.315193,-6.397307,-0.030776,0.023582,0.000933
24871,-3.478775,2.377442,-6.464345,-0.025047,-0.003331,0.001466
24886,-3.440468,2.346318,-6.394913,-0.028778,0.025847,0.003997
24901,-3.569755,2.324770,-6.483498,-0.030910,0.013856,-0.000133
24916,-3.646369,2.331952,-6.476315,-0.031975,0.033441,0.003597
24931,-3.531447,2.358289,-6.438008,-0.033175,0.025580,-0.000133
24946,-3.433285,2.322376,-6.406884,-0.028245,0.009326,0.004663
24961,-3.512294,2.300828,-6.392519,-0.031043,0.003597,0.006795
24976,-3.612850,2.217031,-6.418855,-0.034107,0.006528,0.008127
24991,-3.579331,2.377442,-6.337452,-0.033841,0.013456,0.009992
25006,-3.476381,2.387019,-6.342240,-0.033974,0.017187,0.012923
25021,-3.617639,2.315193,-6.416461,-0.038371,0.035040,0.010392
25036,-3.603273,2.329558,-6.311116,-0.032642,0.010525,0.008660
25051,-3.560178,2.305616,-6.378153,-0.037571,0.032508,0.007328
25066,-3.485958,2.389413,-6.502652,-0.029844,0.006395,0.007861
25081,-3.447650,2.391808,-6.435614,-0.027046,0.012657,0.008127
25096,-3.672705,2.396596,-6.507440,-0.027579,0.007461,0.002132
25111,-3.435679,2.351106,-6.306327,-0.022250,-0.006129,0.000133
25126,-3.550601,2.334347,-6.435614,-0.028645,0.019585,0.003597
25141,-3.452439,2.365471,-6.382942,-0.029311,-0.008127,0.003597
25156,-3.634398,2.224213,-6.409278,-0.031176,0.031443,0.005729
25171,-3.646369,2.281674,-6.428432,-0.030510,0.004796,0.007594
25186,-3.481169,2.331952,-6.524199,-0.042634,0.038770,0.012524
25201,-3.529053,2.391808,-6.495469,-0.039170,0.016787,0.011325
25216,-3.464410,2.334347,-6.469133,-0.036905,0.027845,0.009593
25231,-3.663129,2.406173,-6.531382,-0.031975,0.028378,0.004796
25246,-3.394978,2.396596,-6.375759,-0.019052,-0.002531,-0.001066
25261,-3.531447,2.331952,-6.457162,-0.029444,0.032775,-0.000799
25276,-3.598485,2.336741,-6.430826,-0.025314,-0.001732,-0.003864
25291,-3.514688,2.403779,-6.445191,-0.027312,0.015188,0.000133
25306,-3.593697,2.355894,-6.438008,-0.030110,0.022383,0.000666
25321,-3.414132,2.382231,-6.392519,-0.027712,0.013590,0.002531
25336,-3.514688,2.375048,-6.454768,-0.027312,0.020118,0.000266
25351,-3.624821,2.274492,-6.442797,-0.032242,0.026247,0.005196
25366,-3.536236,2.401384,-6.471527,-0.031576,0.019718,0.001865
25381,-3.361459,2.410961,-6.421249,-0.032242,0.019452,-0.000133
25396,-3.591302,2.310405,-6.411672,-0.028378,0.026779,-0.000266
25411,-3.593697,2.322376,-6.366182,-0.025447,-0.001732,0.002265
25426,-3.505111,2.379837,-6.385336,-0.033175,0.030243,0.002931
25441,-3.598485,2.401384,-6.488286,-0.033841,0.011458,0.002665
25456,-3.375824,2.312799,-6.394913,-0.028511,0.013190,0.003597
25471,-3.629610,2.284068,-6.426037,-0.035040,0.039170,0.004397
25486,-3.524265,2.327164,-6.402095,-0.031443,0.007861,0.004130
25501,-3.368642,2.415750,-6.438008,-0.033175,0.033441,0.003864
25516,-3.536236,2.353500,-6.423643,-0.033708,0.016654,0.006395
25531,-3.519476,2.351106,-6.454768,-0.025580,-0.002398,0.003997
25546,-3.586514,2.308010,-6.392519,-0.030510,0.025580,0.003464
25561,-3.512294,2.473210,-6.392519,-0.024115,0.009060,0.003997
25576,-3.375824,2.279280,-6.517017,-0.025447,0.012391,0.003464
25591,-3.634398,2.312799,-6.363788,-0.028645,0.017986,0.002931
25606,-3.524265,2.372654,-6.375759,-0.029711,0.018786,0.002398
25621,-3.418920,2.449268,-6.445191,-0.025847,0.013989,0.003331
25636,-3.454833,2.336741,-6.548141,-0.025314,0.011991,0.001066
25651,-3.593697,2.296039,-6.426037,-0.027845,-0.017720,0.003198
25666,-3.574543,2.331952,-6.387730,-0.029844,-0.005596,0.002132
25681,-3.519476,2.363077,-6.411672,-0.029711,0.002132,0.007461
25696,-3.462016,2.324770,-6.449979,-0.025314,-0.008260,0.002931
25711,-3.579331,2.336741,-6.416461,-0.027712,0.011591,0.001599
25726,-3.641581,2.286463,-6.375759,-0.025980,0.005329,0.000666
25741,-3.505111,2.382231,-6.394913,-0.026380,0.011191,0.000266
25756,-3.517082,2.336741,-6.404490,-0.026646,0.019319,0.000266
25771,-3.581726,2.375048,-6.473921,-0.025314,0.011991,-0.001066
25786,-3.629610,2.308010,-6.382942,-0.026913,0.016920,0.005596
25801,-3.502717,2.365471,-6.416461,-0.029444,0.019851,0.005063
25816,-3.490746,2.348712,-6.481104,-0.029178,0.010259,0.001732
25831,-3.478775,2.310405,-6.469133,-0.029311,0.007461,0.001332
25846,-3.612850,2.281674,-6.490681,-0.029044,0.011724,0.002132
25861,-3.411737,2.315193,-6.483498,-0.024515,-0.000400,0.002132
25876,-3.497929,2.279280,-6.390124,-0.033308,0.010126,0.003331
25891,-3.564966,2.353500,-6.442797,-0.029577,0.002798,0.001332
25906,-3.483563,2.375048,-6.301539,-0.025580,0.003198,0.000133
25921,-3.464410,2.360683,-6.509834,-0.024381,0.010392,-0.000933
25936,-3.588908,2.322376,-6.411672,-0.019851,0.004263,0.000266
25951,-3.569755,2.272097,-6.359000,-0.022783,0.002132,0.000266
25966,-3.591302,2.410961,-6.375759,-0.025047,0.023315,-0.000533
25981,-3.447650,2.322376,-6.442797,-0.027845,0.005329,0.003864
25996,-3.519476,2.310405,-6.414066,-0.035040,0.022649,0.001732
26011,-3.682282,2.300828,-6.430826,-0.035573,0.031443,0.001732
26026,-3.483563,2.394202,-6.435614,-0.033175,0.010259,0.003464
26041,-3.485958,2.363077,-6.411672,-0.027046,0.018652,0.004263
26056,-3.485958,2.351106,-6.368577,-0.022916,0.006928,0.000799
26071,-3.603273,2.339135,-6.445191,-0.023049,0.001998,0.000666
26086,-3.562572,2.293645,-6.418855,-0.028778,0.007994,0.001732
26101,-3.541024,2.293645,-6.303933,-0.028778,0.004530,0.005862
26116,-3.548207,2.293645,-6.323087,-0.032775,0.006395,0.001199
26131,-3.670311,2.298434,-6.349423,-0.028112,0.014256,0.003997
26146,-3.514688,2.319981,-6.411672,-0.030243,-0.001599,0.003464
26161,-3.421314,2.375048,-6.411672,-0.031709,0.019319,0.004930
26176,-3.543418,2.319981,-6.363788,-0.030510,0.009593,0.006262
26191,-3.564966,2.315193,-6.416461,-0.027579,0.018119,0.007727
26206,-3.615244,2.339135,-6.344635,-0.029977,0.023182,0.006395
26221,-3.473987,2.358289,-6.464345,-0.034240,0.019851,0.007727
26236,-3.543418,2.351106,-6.368577,-0.036639,0.025314,0.005329
26251,-3.605668,2.355894,-6.406884,-0.034773,0.025447,0.006129
26266,-3.627216,2.372654,-6.454768,-0.037971,0.031576,0.000933
26281,-3.495534,2.425326,-6.332664,-0.031576,0.019319,0.000533
26296,-3.493140,2.375048,-6.524199,-0.032242,0.027845,0.000666
26311,-3.536236,2.334347,-6.394913,-0.026779,-0.001998,-0.002398
26326,-3.603273,2.293645,-6.478710,-0.023848,-0.001732,0.000400
26341,-3.466804,2.250550,-6.414066,-0.019985,-0.022116,-0.000133
26356,-3.483563,2.303222,-6.471527,-0.027312,0.003864,0.002398
26371,-3.608062,2.284068,-6.344635,-0.028112,0.009593,0.003064
26386,-3.608062,2.243367,-6.253655,-0.032242,0.022649,0.003597
26401,-3.579331,2.336741,-6.404490,-0.031309,0.026380,0.005063
26416,-3.440468,2.355894,-6.466739,-0.026913,0.008660,0.001199
26431,-3.588908,2.221819,-6.411672,-0.026779,0.016521,0.008926
26446,-3.608062,2.291251,-6.332664,-0.032508,0.013723,0.004263
26461,-3.600879,2.384625,-6.373365,-0.036372,0.031709,0.005995
26476,-3.505111,2.391808,-6.500257,-0.030110,0.023315,0.006395
26491,-3.552995,2.291251,-6.370971,-0.031043,0.021450,0.007461
26506,-3.605668,2.315193,-6.430826,-0.033574,0.012657,0.006262
26521,-3.531447,2.305616,-6.426037,-0.032642,0.010925,0.004530
26536,-3.502717,2.360683,-6.435614,-0.033708,0.016787,0.005329
26551,-3.459621,2.408567,-6.368577,-0.027579,0.007061,0.001199
26566,-3.639187,2.288857,-6.397307,-0.028511,0.014789,0.003997
26581,-3.634398,2.319981,-6.344635,-0.029178,0.008926,0.004130
26596,-3.442862,2.284068,-6.399701,-0.026779,0.007994,0.008127
26611,-3.502717,2.310405,-6.493075,-0.028378,0.010792,0.005462
26626,-3.593697,2.305616,-6.418855,-0.032775,0.008660,0.007328
26641,-3.608062,2.343923,-6.461950,-0.033841,0.021184,0.006129
26656,-3.440468,2.425326,-6.426037,-0.030243,0.002931,0.009193
26671,-3.536236,2.363077,-6.536170,-0.033041,0.020118,0.008394
26686,-3.538630,2.308010,-6.433220,-0.026247,0.004397,0.006129
26701,-3.632004,2.346318,-6.433220,-0.033708,0.024381,0.005729
26716,-3.572149,2.358289,-6.323087,-0.028645,0.009992,0.004796
26731,-3.430891,2.315193,-6.399701,-0.028378,0.016387,0.004130
26746,-3.639187,2.343923,-6.421249,-0.028245,0.017720,0.003331
26761,-3.560178,2.308010,-6.409278,-0.023848,0.003864,0.003730
26776,-3.576937,2.296039,-6.394913,-0.029977,0.023582,0.003198
26791,-3.409343,2.317587,-6.390124,-0.028645,0.011458,0.000933
26806,-3.548207,2.248155,-6.457162,-0.034907,0.024914,0.005462
26821,-3.588908,2.319981,-6.478710,-0.031975,0.009992,0.004530
26836,-3.591302,2.365471,-6.392519,-0.028778,0.020384,0.000933
26851,-3.466804,2.303222,-6.411672,-0.027312,0.005063,0.000133
26866,-3.524265,2.284068,-6.435614,-0.030910,0.020384,0.004796
26881,-3.646369,2.217031,-6.500257,-0.026113,0.010925,0.002398
26896,-3.531447,2.319981,-6.363788,-0.031842,0.018253,0.005462
26911,-3.545813,2.300828,-6.399701,-0.036639,0.025847,0.005729
26926,-3.457227,2.363077,-6.423643,-0.032908,0.022783,0.003198
26941,-3.632004,2.286463,-6.428432,-0.034107,0.037971,0.004397
26956,-3.505111,2.317587,-6.394913,-0.030643,0.015588,0.003597
26971,-3.450045,2.341529,-6.359000,-0.033708,0.031709,0.004663
26986,-3.517082,2.324770,-6.502652,-0.029577,0.019319,0.002398
27001,-3.526659,2.329558,-6.495469,-0.026513,0.009459,0.003997
27016,-3.574543,2.315193,-6.414066,-0.019319,-0.001865,0.000133
27031,-3.442862,2.327164,-6.402095,-0.026380,-0.002665,0.002398
27046,-3.531447,2.343923,-6.423643,-0.030243,0.013856,0.004930
27061,-3.588908,2.274492,-6.351817,-0.029577,0.013590,0.003464
27076,-3.696647,2.319981,-6.356606,-0.029577,0.031309,0.007594
27091,-3.471592,2.252944,-6.438008,-0.030776,0.012790,0.009593
27106,-3.416526,2.305616,-6.435614,-0.035706,0.027979,0.012391
27121,-3.655946,2.305616,-6.426037,-0.035706,0.020118,0.009992
27136,-3.586514,2.322376,-6.361394,-0.031043,0.005729,0.008527
27151,-3.586514,2.413355,-6.461950,-0.033708,0.031975,0.007328
27166,-3.447650,2.387019,-6.390124,-0.031975,0.015322,0.003864
27181,-3.545813,2.324770,-6.447585,-0.030910,0.035706,0.002931
27196,-3.684676,2.308010,-6.440403,-0.024248,0.017986,0.002132
27211,-3.531447,2.260126,-6.385336,-0.028245,0.027446,0.008127
27226,-3.423708,2.336741,-6.466739,-0.031576,0.023715,0.009992
27241,-3.469198,2.384625,-6.430826,-0.033841,0.032642,0.009193
27256,-3.610456,2.286463,-6.416461,-0.032375,0.027179,0.006795
27271,-3.387795,2.355894,-6.464345,-0.029044,0.021983,0.004930
27286,-3.524265,2.343923,-6.471527,-0.031309,0.029577,0.002265
27301,-3.394978,2.343923,-6.469133,-0.023582,-0.002265,0.002531
27316,-3.677494,2.272097,-6.512228,-0.032908,0.038904,0.004530
27331,-3.598485,2.346318,-6.411672,-0.025181,0.003198,0.001998
27346,-3.375824,2.372654,-6.416461,-0.030776,0.024914,0.005729
27361,-3.567360,2.420538,-6.406884,-0.027446,0.018386,0.003597
27376,-3.483563,2.260126,-6.399701,-0.024515,0.010392,0.001332
27391,-3.608062,2.310405,-6.533776,-0.029444,0.036505,0.001466
27406,-3.428497,2.370260,-6.406884,-0.026779,0.006795,0.004530
27421,-3.445256,2.312799,-6.421249,-0.028645,0.023449,0.002798
27436,-3.591302,2.296039,-6.390124,-0.023982,-0.000266,0.002398
27451,-3.531447,2.300828,-6.435614,-0.023315,0.004930,0.002132
27466,-3.493140,2.317587,-6.394913,-0.022116,0.012790,-0.000133
27481,-3.459621,2.300828,-6.488286,-0.028112,0.017453,0.002531
27496,-3.572149,2.327164,-6.447585,-0.033841,0.020518,0.001998
27511,-3.550601,2.346318,-6.459556,-0.028378,0.013323,0.000533
27526,-3.454833,2.315193,-6.428432,-0.025047,0.013190,0.001466
27541,-3.385401,2.367865,-6.461950,-0.024248,0.004130,-0.000400
27556,-3.600879,2.260126,-6.380548,-0.031043,0.016254,0.002265
27571,-3.588908,2.310405,-6.471527,-0.028778,0.003198,0.000133
27586,-3.459621,2.394202,-6.423643,-0.027046,0.003730,-0.001199
27601,-3.488352,2.384625,-6.339846,-0.024381,0.009193,-0.000666
27616,-3.476381,2.293645,-6.433220,-0.025447,0.009593,0.001199
27631,-3.639187,2.264915,-6.426037,-0.028778,0.014922,-0.000666
27646,-3.555389,2.346318,-6.469133,-0.032242,0.014389,0.000666
27661,-3.457227,2.372654,-6.426037,-0.032375,0.012657,0.001199
27676,-3.519476,2.300828,-6.502652,-0.029711,0.009459,0.000533
27691,-3.629610,2.315193,-6.517017,-0.024914,-0.003464,-0.001199
27706,-3.569755,2.300828,-6.342240,-0.024248,-0.009859,-0.002665
27721,-3.466804,2.310405,-6.449979,-0.025714,-0.005596,-0.005063
27736,-3.517082,2.346318,-6.382942,-0.026380,-0.001998,-0.000933
27751,-3.552995,2.317587,-6.404490,-0.022516,0.008127,0.001732
27766,-3.648763,2.315193,-6.457162,-0.022116,0.017453,0.002132
27781,-3.447650,2.310405,-6.445191,-0.026646,0.010126,0.003331
27796,-3.462016,2.255338,-6.423643,-0.031709,0.011325,0.006928
27811,-3.667917,2.288857,-6.476315,-0.032642,0.017187,0.007461
27826,-3.548207,2.274492,-6.397307,-0.031176,0.003864,0.007861
27841,-3.500323,2.341529,-6.447585,-0.029577,0.011724,0.006928
27856,-3.459621,2.329558,-6.411672,-0.027312,0.001332,0.002665
27871,-3.519476,2.351106,-6.421249,-0.028112,-0.000666,0.003464
27886,-3.555389,2.219425,-6.382942,-0.029044,0.005995,0.002132
27901,-3.526659,2.298434,-6.452374,-0.031309,0.004263,0.003864
27916,-3.466804,2.389413,-6.387730,-0.030510,0.000000,0.003198
27931,-3.675100,2.296039,-6.428432,-0.031309,0.021051,0.003064
27946,-3.550601,2.288857,-6.428432,-0.028511,0.001732,0.006395
27961,-3.543418,2.394202,-6.382942,-0.032642,0.018519,0.005596
27976,-3.529053,2.308010,-6.313510,-0.031309,0.010126,0.005596
27991,-3.529053,2.293645,-6.392519,-0.031709,0.020384,0.007194
28006,-3.632004,2.224213,-6.490681,-0.029711,0.019452,0.006795
28021,-3.495534,2.377442,-6.406884,-0.027712,0.009459,0.006528
28036,-3.524265,2.291251,-6.452374,-0.031975,0.019851,0.004263
28051,-3.581726,2.245761,-6.461950,-0.033574,0.007861,0.005729
28066,-3.663129,2.351106,-6.409278,-0.032642,0.011591,0.005729
28081,-3.581726,2.284068,-6.375759,-0.025314,-0.006262,0.000533
28096,-3.497929,2.308010,-6.402095,-0.024248,0.005462,0.001466
28111,-3.507505,2.343923,-6.416461,-0.025580,-0.001998,0.001199
28126,-3.557784,2.240973,-6.394913,-0.030110,0.014123,0.002931
28141,-3.548207,2.365471,-6.390124,-0.030510,0.022783,0.003064
28156,-3.452439,2.331952,-6.370971,-0.030110,0.011858,0.004130
28171,-3.505111,2.298434,-6.452374,-0.034107,0.023982,0.003730
28186,-3.610456,2.310405,-6.404490,-0.029844,0.019585,0.001332
28201,-3.584120,2.257732,-6.447585,-0.028378,0.016121,0.004397
28216,-3.478775,2.327164,-6.370971,-0.029844,0.014256,0.006129
28231,-3.466804,2.279280,-6.517017,-0.029711,0.014389,0.006262
28246,-3.634398,2.284068,-6.433220,-0.033441,0.014123,0.008926
28261,-3.596091,2.264915,-6.414066,-0.033041,0.017986,0.001865
28276,-3.483563,2.353500,-6.449979,-0.038504,0.024115,0.007994
28291,-3.505111,2.276886,-6.404490,-0.035306,0.012923,0.005862
28306,-3.531447,2.238579,-6.461950,-0.039703,0.013590,0.008260
28321,-3.648763,2.296039,-6.457162,-0.037305,0.022783,0.006928
28336,-3.469198,2.384625,-6.397307,-0.025181,-0.003997,0.005063
28351,-3.517082,2.377442,-6.473921,-0.027845,0.014655,0.004930
28366,-3.608062,2.279280,-6.354211,-0.023049,-0.014655,0.000266
28381,-3.641581,2.296039,-6.349423,-0.030377,0.017453,0.004130
28396,-3.682282,2.343923,-6.347029,-0.028911,0.011991,0.003464
28411,-3.354276,2.300828,-6.368577,-0.029044,0.011858,0.005729
28426,-3.651158,2.219425,-6.457162,-0.033708,0.037571,0.007061
28441,-3.588908,2.260126,-6.464345,-0.035573,0.012391,0.006262
28456,-3.600879,2.305616,-6.488286,-0.041701,0.038237,0.009593
28471,-3.462016,2.387019,-6.478710,-0.031576,0.004530,0.007594
28486,-3.502717,2.355894,-6.409278,-0.032375,0.023449,0.007328
28501,-3.636792,2.284068,-6.421249,-0.027712,0.001066,0.007061
28516,-3.481169,2.214637,-6.471527,-0.033574,0.016387,0.009459
28531,-3.600879,2.296039,-6.394913,-0.034507,0.017320,0.008394
28546,-3.402161,2.363077,-6.390124,-0.031309,0.003730,0.006262
28561,-3.694253,2.260126,-6.416461,-0.038770,0.034773,0.008660
28576,-3.555389,2.331952,-6.339846,-0.031309,0.000266,0.005329
