T,AX,AY,AZ,GX,GY,GZ
46,-4.551377,2.008735,-5.961562,-0.021450,0.021051,0.005196
61,-4.656722,1.848324,-5.839458,-0.025714,0.008394,0.001732
76,-4.565742,1.860295,-5.906496,-0.031975,0.016121,-0.001199
91,-4.601655,1.958457,-5.951985,-0.035706,0.016521,-0.001998
106,-4.508282,1.891419,-5.990293,-0.043034,0.011591,-0.000133
121,-4.577713,1.948880,-5.908890,-0.043700,0.018919,0.002132
136,-4.639963,2.123657,-5.968745,-0.045032,0.009326,0.000666
151,-4.479551,2.152387,-5.872977,-0.042101,0.011724,0.003597
166,-4.434062,2.195483,-5.877765,-0.041168,0.006262,0.006262
181,-4.517859,2.243367,-5.918467,-0.042368,0.007328,0.005063
196,-4.608838,2.264915,-5.923255,-0.032508,0.006528,0.004130
211,-4.618415,2.212242,-5.805939,-0.026513,-0.002665,0.002265
226,-4.438850,2.190695,-5.884948,-0.023715,0.009726,0.003730
241,-4.611232,2.090138,-5.935226,-0.018919,0.010658,0.001865
256,-4.673481,2.049437,-5.892130,-0.020651,0.009992,0.003464
271,-4.572925,2.025495,-5.911284,-0.022649,0.011724,0.003331
286,-4.589684,2.070984,-5.937620,-0.029977,0.016121,0.004530
301,-4.556166,2.020706,-5.837064,-0.027046,0.018519,0.003064
316,-4.661510,1.982399,-5.904101,-0.026779,0.017587,0.005862
331,-4.637568,1.953669,-5.930438,-0.029711,0.012124,0.006928
346,-4.424485,1.936909,-5.798757,-0.033708,0.006528,0.009060
361,-4.592079,1.968034,-5.935226,-0.036106,0.031043,0.000666
376,-4.589684,1.989582,-5.832275,-0.034107,0.001998,0.004130
391,-4.606444,1.996764,-5.937620,-0.032109,0.022383,0.003198
406,-4.501099,2.003947,-5.849035,-0.037838,0.014655,0.002531
421,-4.477157,2.118868,-5.942409,-0.034640,0.017853,-0.003331
436,-4.692635,2.149993,-5.858612,-0.041435,0.027712,0.001599
451,-4.525041,2.142811,-5.884948,-0.038504,0.000266,0.004397
466,-4.505888,2.207454,-5.920861,-0.037038,0.023449,0.003064
481,-4.460398,2.130840,-5.920861,-0.035440,0.005596,0.007994
496,-4.577713,2.130840,-5.985504,-0.031309,0.013989,0.007461
511,-4.572925,2.166753,-5.997475,-0.027712,-0.001865,0.004263
526,-4.467580,2.099715,-5.940014,-0.026113,0.005729,0.000533
541,-4.548983,2.128445,-5.829881,-0.024781,0.006528,-0.001199
556,-4.584896,2.039860,-6.050148,-0.026913,0.000000,-0.000533
571,-4.661510,1.987187,-5.944803,-0.030243,0.009859,-0.000666
586,-4.589684,2.059013,-5.973533,-0.029311,-0.003997,-0.005596
601,-4.604050,2.056619,-5.916072,-0.027712,0.007861,-0.002665
616,-4.673481,2.001553,-5.956774,-0.031975,0.013590,-0.000799
631,-4.568137,2.111686,-5.940014,-0.030643,0.010392,0.000933
646,-4.551377,2.169147,-5.858612,-0.030643,0.014522,0.004930
661,-4.446033,2.190695,-5.956774,-0.031842,0.007861,0.000666
676,-4.575319,2.126051,-5.894525,-0.026646,0.012257,0.003064
691,-4.675876,2.011129,-5.963956,-0.022783,0.008926,0.007328
706,-4.594473,2.061408,-6.014235,-0.029444,0.007727,0.005596
721,-4.505888,2.104503,-5.966351,-0.025047,0.009459,0.005329
736,-4.620809,1.972822,-5.858612,-0.026247,0.009859,0.004796
751,-4.675876,2.001553,-5.966351,-0.029577,0.021051,0.004263
766,-4.620809,2.011129,-5.805939,-0.035306,0.017320,0.003464
781,-4.826711,2.097321,-5.674258,-0.057156,-0.015721,0.002132
796,-4.481946,2.171541,-6.129156,-0.035706,0.041701,0.006662
811,-4.707000,1.970428,-6.177040,-0.033708,0.040236,0.013456
826,-4.005499,2.109292,-5.956774,-0.032908,0.008260,0.012257
841,-4.668693,2.240973,-6.222530,-0.039037,0.062619,0.004796
856,-4.778827,2.212242,-5.798757,-0.038904,-0.046364,-0.001732
871,-4.699818,2.066196,-5.786786,-0.033308,0.019452,-0.002265
886,-4.599261,1.987187,-6.131550,-0.024781,0.036239,0.011458
901,-4.220977,2.063802,-6.004658,-0.030377,-0.009992,0.007994
916,-4.647145,2.106897,-5.925649,-0.034507,0.029444,0.001998
931,-4.876989,2.066196,-5.863400,-0.024914,-0.012524,-0.010392
946,-4.680664,1.968034,-5.947197,-0.024781,0.020518,-0.012257
961,-4.520253,2.006341,-5.963956,-0.022916,0.026646,0.001998
976,-4.311957,1.996764,-6.136339,-0.035306,0.022783,0.009859
991,-4.671087,2.173935,-5.916072,-0.040769,0.014789,0.006129
1006,-4.695029,2.200271,-5.920861,-0.034107,0.004130,-0.001199
1021,-4.620809,2.193089,-5.851429,-0.026913,0.026513,-0.001998
1036,-4.438850,2.073379,-5.966351,-0.024248,0.030110,0.002665
1051,-4.580108,2.078167,-6.052542,-0.025580,0.015322,0.006795
1066,-4.601655,2.087744,-5.853823,-0.029577,0.017453,0.003997
1081,-4.680664,2.059013,-5.815516,-0.025847,0.012790,-0.001066
1096,-4.515464,1.994370,-5.880159,-0.019985,0.009593,0.001865
1111,-4.606444,1.953669,-5.983110,-0.022916,0.032109,0.005596
1126,-4.642357,1.936909,-6.042965,-0.028378,0.011591,0.007727
1141,-4.592079,1.948880,-5.999869,-0.040502,0.021583,0.001998
1156,-4.632780,2.037466,-5.887342,-0.043300,0.009992,-0.003331
1171,-4.661510,1.953669,-5.870583,-0.041035,0.026380,-0.005729
1186,-4.709394,1.965640,-5.949591,-0.039436,0.029178,-0.001865
1201,-4.486734,2.042254,-5.925649,-0.046764,0.030243,0.001332
1216,-4.546589,2.061408,-5.899313,-0.044632,0.032775,0.001066
1231,-4.558560,2.044648,-5.942409,-0.047164,0.009593,-0.000933
1246,-4.620809,2.128445,-5.983110,-0.049296,0.033308,-0.001332
1261,-4.453215,2.166753,-5.954380,-0.042234,0.005862,0.005063
1276,-4.400543,2.236184,-6.019023,-0.036239,0.011458,0.002798
1291,-4.568137,2.231396,-5.841852,-0.037172,-0.002531,0.005596
1306,-4.589684,2.274492,-5.908890,-0.034107,-0.008926,0.001732
1321,-4.623203,2.384625,-5.901707,-0.027979,0.002531,0.009859
1336,-4.383783,2.449268,-5.841852,-0.015588,-0.009326,0.017720
1351,-4.438850,2.406173,-5.815516,-0.004130,-0.004930,0.015055
1366,-4.647145,2.296039,-5.992687,0.001732,0.001998,0.014256
1381,-4.623203,2.166753,-5.916072,0.007194,-0.000933,0.006129
1396,-4.551377,1.951274,-5.930438,0.003597,0.009859,0.000266
1411,-4.623203,1.826776,-5.935226,-0.002531,0.018519,-0.005329
1426,-4.738125,1.644817,-5.916072,-0.013989,0.014256,-0.004130
1441,-4.675876,1.719037,-5.896919,-0.026113,0.029711,-0.002265
1456,-4.611232,1.807622,-5.899313,-0.034240,0.016387,0.001732
1471,-4.589684,1.884237,-5.894525,-0.042900,0.026779,0.003597
1486,-4.599261,1.970428,-5.971139,-0.047564,0.023315,0.009726
1501,-4.565742,2.097321,-5.925649,-0.046364,0.017587,0.008660
1516,-4.563348,2.200271,-5.937620,-0.045432,0.027712,0.012257
1531,-4.505888,2.308010,-5.971139,-0.037305,0.020518,0.009459
1546,-4.568137,2.140416,-5.851429,-0.033308,0.012657,0.005329
1561,-4.539406,2.195483,-5.882554,-0.032375,0.025447,0.001732
1576,-4.584896,2.138022,-5.959168,-0.027979,0.012391,0.002132
1591,-4.438850,2.018312,-5.908890,-0.031176,0.013723,-0.001599
1606,-4.651934,2.035071,-5.987898,-0.034107,0.018652,0.003064
1621,-4.613626,1.980005,-6.014235,-0.037172,0.005329,0.003464
1636,-4.520253,2.157176,-6.023811,-0.036106,0.013190,0.007461
1651,-4.474763,2.099715,-5.949591,-0.037305,0.004796,0.007594
1666,-4.678270,2.042254,-5.973533,-0.034107,-0.002798,0.005862
1681,-4.577713,1.999158,-5.858612,-0.036239,0.000400,0.005329
1696,-4.596867,2.066196,-5.935226,-0.034773,0.012124,0.003864
1711,-4.539406,2.037466,-5.839458,-0.035972,-0.002798,0.005995
1726,-4.577713,2.097321,-5.846641,-0.039703,0.017587,0.003064
1741,-4.738125,2.073379,-5.870583,-0.034773,0.008127,0.005462
1756,-4.584896,2.138022,-5.951985,-0.030110,0.012923,0.001865
1771,-4.568137,2.051831,-5.932832,-0.025847,0.023715,0.000666
1786,-4.548983,1.896208,-5.916072,-0.032109,0.009726,0.000133
1801,-4.728548,1.994370,-5.961562,-0.032242,0.028511,0.001732
1816,-4.639963,1.917755,-5.861006,-0.027446,0.004796,-0.003464
1831,-4.510676,1.910573,-5.880159,-0.027579,0.039303,-0.005063
1846,-4.738125,2.023100,-5.999869,-0.035040,0.028778,-0.003464
1861,-4.539406,1.975216,-5.801151,-0.042234,0.008260,0.001066
1876,-4.644751,2.157176,-5.930438,-0.051028,0.048629,0.004530
1891,-4.587290,2.269703,-5.985504,-0.046498,0.011058,0.014789
1906,-4.472369,2.324770,-5.832275,-0.040369,0.015055,0.016254
1921,-4.534618,2.396596,-5.889736,-0.031842,0.031709,0.011991
1936,-4.455609,2.229002,-5.894525,-0.030776,0.012524,0.010792
1951,-4.513070,2.140416,-6.023811,-0.022649,0.007994,0.006395
1966,-4.594473,1.968034,-5.959168,-0.024515,0.000933,0.001332
1981,-4.651934,1.941698,-5.966351,-0.027845,0.011458,-0.002398
1996,-4.587290,1.826776,-5.963956,-0.036639,-0.000799,-0.006662
2011,-4.484340,1.874660,-5.961562,-0.042900,-0.000133,-0.000533
2026,-4.649539,1.996764,-5.894525,-0.048096,0.008793,0.004530
2041,-4.663905,2.159570,-5.887342,-0.049562,0.001998,0.006129
2056,-4.448427,2.296039,-5.887342,-0.045032,0.007594,0.010126
2071,-4.580108,2.310405,-5.975927,-0.032508,0.009459,0.006528
2086,-4.508282,2.212242,-5.928043,-0.023182,0.003198,0.006528
2101,-4.604050,2.243367,-5.899313,-0.019585,0.012657,0.003331
2116,-4.481946,2.188300,-5.892130,-0.017187,-0.001998,0.004930
2131,-4.608838,2.020706,-5.987898,-0.016521,0.013057,-0.000133
2146,-4.690241,1.996764,-5.966351,-0.009593,0.019052,0.000533
2161,-4.560954,1.817199,-5.753267,-0.015322,-0.025181,0.001466
2176,-4.577713,1.965640,-5.889736,-0.029044,0.052360,-0.001732
2191,-4.769250,1.989582,-5.961562,-0.029711,0.006262,0.004930
2206,-4.431667,1.872266,-5.772420,-0.028378,-0.002931,0.006262
2221,-4.754885,1.994370,-5.935226,-0.033574,0.050495,-0.000266
2236,-4.589684,2.008735,-5.987898,-0.029844,-0.004130,0.005862
2251,-4.443638,2.061408,-5.841852,-0.026113,0.026779,0.003864
2266,-4.010288,1.417367,-5.013458,-0.017720,-0.092329,-0.002531
2281,-4.431667,2.200271,-5.707777,-0.064750,0.272325,-0.013856
2296,-5.990293,2.365471,-6.531382,-0.021184,-0.136962,0.019319
2311,-2.590526,1.326388,-4.264073,-0.040103,-0.072078,0.002531
2326,-5.966351,2.434903,-6.603208,-0.053559,0.217300,-0.003064
2341,-3.948039,2.262521,-5.540183,-0.029044,-0.217833,0.020917
2356,-4.268862,2.092532,-5.628768,-0.043567,0.129634,0.003597
2371,-4.939238,2.408567,-6.143521,-0.026646,-0.028378,0.006129
2386,-4.149151,2.049437,-5.726930,-0.027179,-0.019185,0.005995
2401,-4.905719,2.092532,-5.975927,-0.025714,0.055824,0.001466
2416,-4.508282,2.035071,-5.805939,-0.019452,-0.038371,0.004663
2431,-4.498705,1.910573,-5.925649,-0.021983,0.032775,-0.001865
2446,-4.745308,1.924938,-6.021417,-0.026779,0.011724,-0.000933
2461,-4.654328,1.915361,-5.971139,-0.027712,0.001199,-0.004397
2476,-4.618415,1.912967,-5.834670,-0.035306,0.033974,0.000266
2491,-4.503493,2.106897,-5.987898,-0.042900,0.014389,0.000266
2506,-4.422091,2.145205,-5.765238,-0.039303,0.007194,0.005329
2521,-4.795586,2.310405,-6.045359,-0.039969,0.043433,0.003331
2536,-4.613626,2.176329,-5.789180,-0.027712,-0.019052,0.009060
2551,-4.220977,2.245761,-5.916072,-0.036106,0.040769,0.007994
2566,-4.723760,2.281674,-5.947197,-0.033175,0.015455,0.015188
2581,-4.383783,2.303222,-5.683835,-0.029178,-0.030910,0.014389
2596,-4.716577,2.351106,-5.899313,-0.013856,0.038770,0.009459
2611,-4.505888,2.080561,-5.956774,-0.004397,-0.017720,0.006528
2626,-4.620809,1.848324,-5.947197,-0.008394,0.029711,0.001466
2641,-4.853047,1.802834,-5.935226,-0.012790,0.021850,0.000400
2656,-4.714183,1.728614,-5.882554,-0.031443,0.008260,0.002132
2671,-4.625597,1.841141,-5.997475,-0.043966,0.059421,0.003198
2686,-4.606444,1.857901,-5.983110,-0.044100,0.000799,0.005596
2701,-4.501099,1.929726,-5.928043,-0.045432,0.012524,0.001732
2716,-4.702212,2.123657,-5.913678,-0.043300,0.016521,0.005995
2731,-4.450821,2.221819,-5.954380,-0.044766,-0.013057,0.005063
2746,-4.491522,2.319981,-5.942409,-0.035706,0.023449,0.002398
2761,-4.654328,2.255338,-5.851429,-0.030110,0.007061,0.002265
2776,-4.565742,2.169147,-5.916072,-0.026380,0.012524,0.002531
2791,-4.582502,2.188300,-5.935226,-0.026513,0.030377,0.003730
2806,-4.493917,2.138022,-5.904101,-0.024381,0.007194,0.003997
2821,-4.613626,2.109292,-5.990293,-0.027179,0.014655,0.001599
2836,-4.704606,1.958457,-5.925649,-0.025714,0.012391,0.001865
2851,-4.596867,2.068590,-5.844246,-0.027179,0.009193,0.002132
2866,-4.532224,2.037466,-5.961562,-0.028911,0.016787,0.004796
2881,-4.659116,1.896208,-5.913678,-0.028112,0.015455,0.002931
2896,-4.759673,1.915361,-5.944803,-0.035040,0.018652,0.004263
2911,-4.611232,1.927332,-5.940014,-0.038237,0.022649,0.008260
2926,-4.558560,1.951274,-5.971139,-0.041568,0.021184,0.003864
2941,-4.568137,1.980005,-5.872977,-0.047430,0.017054,0.007727
2956,-4.666299,2.063802,-5.944803,-0.048230,0.019319,0.006262
2971,-4.604050,2.147599,-5.906496,-0.050361,0.018786,0.010126
2986,-4.481946,2.209848,-5.925649,-0.048363,0.017320,0.010792
3001,-4.606444,2.190695,-5.870583,-0.046897,0.011858,0.010525
3016,-4.608838,2.286463,-5.894525,-0.041968,0.016787,0.009726
3031,-4.565742,2.245761,-5.944803,-0.039570,0.013323,0.011058
3046,-4.458004,2.226608,-6.014235,-0.035440,0.013590,0.007194
3061,-4.563348,2.231396,-5.968745,-0.028778,0.011191,0.007594
3076,-4.685452,2.073379,-5.904101,-0.024781,0.001066,0.001998
3091,-4.647145,2.035071,-5.925649,-0.022383,0.008793,0.002265
3106,-4.613626,2.075773,-5.846641,-0.023848,0.006262,0.000799
3121,-4.587290,1.946486,-5.995081,-0.029977,0.015455,-0.001199
3136,-4.704606,1.884237,-5.949591,-0.036505,0.015322,0.001199
3151,-4.620809,1.984793,-5.827487,-0.041701,0.026247,0.004930
3166,-4.513070,2.087744,-5.932832,-0.042234,0.023848,0.008127
3181,-4.508282,2.102109,-5.760449,-0.041435,0.023315,0.007861
3196,-4.627992,2.130840,-5.889736,-0.046764,0.032375,0.009193
3211,-4.601655,2.176329,-5.825093,-0.036905,0.025980,0.010392
3226,-4.472369,2.178724,-5.968745,-0.039170,0.026513,0.007594
3241,-4.493917,2.102109,-5.851429,-0.041302,0.020518,0.010792
3256,-4.620809,2.092532,-5.901707,-0.043700,0.028778,0.015322
3271,-4.589684,2.133234,-5.896919,-0.043833,0.027579,0.015988
3286,-4.541800,2.181118,-5.935226,-0.037571,0.021983,0.019585
3301,-4.446033,2.164358,-5.872977,-0.033441,0.019185,0.017587
3316,-4.620809,2.063802,-5.978322,-0.033574,0.019718,0.019452
3331,-4.592079,2.018312,-5.894525,-0.034507,0.011458,0.019052
3346,-4.496311,2.090138,-5.935226,-0.035706,0.019985,0.020118
3361,-4.539406,2.070984,-5.901707,-0.036505,0.008793,0.022116
3376,-4.613626,2.063802,-6.019023,-0.035440,0.020917,0.017720
3391,-4.680664,2.109292,-5.954380,-0.038504,0.007328,0.014655
3406,-4.501099,2.104503,-6.019023,-0.033841,0.011325,0.014655
3421,-4.525041,2.082955,-5.896919,-0.031709,0.007194,0.013057
3436,-4.587290,2.092532,-5.937620,-0.034907,0.002398,0.012257
3451,-4.673481,2.047042,-5.928043,-0.032642,0.008793,0.007328
3466,-4.627992,2.128445,-5.781997,-0.034374,0.007994,0.006395
3481,-4.486734,2.082955,-5.928043,-0.033974,0.011858,0.009459
3496,-4.589684,2.001553,-5.908890,-0.044766,0.017453,0.005196
3511,-4.620809,2.138022,-5.935226,-0.047564,0.020917,0.011458
3526,-4.568137,2.154782,-5.868188,-0.046897,0.023715,0.011325
3541,-4.450821,2.214637,-5.911284,-0.045565,0.023715,0.009060
3556,-4.479551,2.236184,-5.956774,-0.041035,0.024781,0.007727
3571,-4.635174,2.200271,-5.889736,-0.033308,0.018786,0.002265
3586,-4.601655,2.176329,-5.928043,-0.034907,0.020518,0.002398
3601,-4.450821,2.209848,-5.875371,-0.035573,0.014522,0.002665
3616,-4.532224,2.161964,-5.875371,-0.032508,0.012790,0.004397
3631,-4.594473,2.217031,-5.937620,-0.036372,0.013323,0.002398
3646,-4.529830,2.250550,-5.920861,-0.032375,0.007328,0.001066
3661,-4.465186,2.240973,-5.935226,-0.030510,0.009459,0.001466
3676,-4.417302,2.205060,-5.844246,-0.031576,0.011591,0.002132
3691,-4.596867,2.169147,-5.896919,-0.031309,0.009060,0.005329
3706,-4.560954,2.154782,-5.899313,-0.027446,0.009326,0.003864
3721,-4.534618,2.188300,-5.923255,-0.025714,0.008926,0.009326
3736,-4.489128,2.054225,-5.935226,-0.025714,0.005729,0.008527
3751,-4.678270,2.059013,-5.930438,-0.029044,0.005462,0.004263
3766,-4.675876,1.939303,-5.992687,-0.029711,0.007994,0.003331
3781,-4.505888,1.987187,-5.930438,-0.031842,0.014256,-0.001998
3796,-4.513070,2.003947,-5.858612,-0.031576,0.015455,0.000133
3811,-4.611232,1.994370,-5.937620,-0.033974,0.018119,0.000933
3826,-4.613626,2.090138,-5.851429,-0.036639,0.025847,0.002398
3841,-4.479551,2.238579,-5.932832,-0.032908,0.021450,0.003464
3856,-4.446033,2.284068,-5.913678,-0.032908,0.018652,0.005596
3871,-4.534618,2.193089,-5.868188,-0.032775,0.018919,0.005862
3886,-4.673481,2.183512,-5.937620,-0.029044,0.013190,0.005462
3901,-4.601655,2.193089,-5.937620,-0.031309,0.018253,0.006928
3916,-4.438850,2.240973,-5.877765,-0.030243,0.012257,0.005596
3931,-4.493917,2.176329,-5.901707,-0.030910,0.010259,0.004796
3946,-4.683058,2.255338,-5.896919,-0.029311,0.009992,-0.000400
3961,-4.570531,2.209848,-5.968745,-0.022649,0.003198,-0.001466
3976,-4.537012,2.183512,-5.899313,-0.022649,0.013856,-0.001466
3991,-4.582502,2.070984,-6.009446,-0.023449,0.003864,-0.001199
4006,-4.711789,2.090138,-5.904101,-0.026779,0.006395,0.001199
4021,-4.635174,2.082955,-5.920861,-0.033574,0.011058,0.002798
4036,-4.553771,2.149993,-5.880159,-0.036772,0.018119,0.006395
4051,-4.556166,2.099715,-5.872977,-0.035839,0.018386,0.000666
4066,-4.702212,2.142811,-5.894525,-0.037038,0.022783,0.003730
4081,-4.632780,2.183512,-5.834670,-0.037571,0.015588,0.005729
4096,-4.450821,2.190695,-5.908890,-0.038637,0.024381,0.006262
4111,-4.489128,2.185906,-5.901707,-0.036639,0.023049,0.006395
4126,-4.577713,2.193089,-5.884948,-0.033308,0.006395,0.005596
4141,-4.606444,2.185906,-5.844246,-0.026779,0.013057,0.005995
4156,-4.479551,2.197877,-5.913678,-0.026380,0.000133,0.004530
4171,-4.527435,2.152387,-5.940014,-0.027446,0.005462,0.001732
4186,-4.627992,2.173935,-5.947197,-0.025447,-0.003730,0.003331
4201,-4.695029,2.157176,-5.923255,-0.027712,0.000400,0.001998
4216,-4.556166,2.073379,-5.904101,-0.028378,0.007061,0.006262
4231,-4.527435,2.152387,-5.839458,-0.033574,0.006928,0.009326
4246,-4.656722,2.123657,-5.875371,-0.032908,0.016121,0.010525
4261,-4.623203,2.221819,-5.870583,-0.027579,0.012124,0.010259
4276,-4.527435,2.197877,-5.801151,-0.029178,0.008660,0.007994
4291,-4.510676,2.171541,-5.920861,-0.026380,0.011058,0.008793
4306,-4.592079,2.135628,-5.884948,-0.029444,0.007194,0.007328
4321,-4.654328,2.061408,-5.932832,-0.023848,0.011591,0.006795
4336,-4.551377,2.159570,-5.911284,-0.025447,0.014522,0.005995
4351,-4.568137,2.097321,-5.925649,-0.028645,0.012124,0.005729
4366,-4.548983,2.073379,-6.023811,-0.031043,0.016121,0.004796
4381,-4.702212,2.099715,-5.844246,-0.030910,0.018519,0.006795
4396,-4.584896,2.157176,-5.940014,-0.035839,0.018919,0.006528
4411,-4.458004,2.178724,-5.951985,-0.035173,0.020518,0.005462
4426,-4.606444,2.126051,-5.920861,-0.035173,0.019052,0.005462
4441,-4.649539,2.188300,-5.810728,-0.035040,0.019452,0.009193
4456,-4.548983,2.200271,-5.872977,-0.020651,-0.006662,0.009193
4471,-4.527435,2.169147,-6.035782,-0.020651,0.035173,0.001332
4486,-4.824317,1.948880,-5.999869,-0.028378,0.000266,-0.001332
4501,-4.395754,1.881842,-5.736507,-0.047031,0.004530,0.003331
4516,-4.829105,2.202666,-6.028600,-0.052093,0.045032,0.009992
4531,-4.364630,2.377442,-5.868188,-0.041435,-0.020118,0.017853
4546,-4.414908,2.360683,-6.004658,-0.029444,0.041168,0.014655
4561,-4.635174,2.293645,-5.959168,-0.020118,0.000000,0.007061
4576,-4.563348,2.176329,-5.959168,-0.020651,0.007727,0.003464
4591,-4.666299,2.106897,-5.920861,-0.022783,0.006795,0.000799
4606,-4.577713,2.042254,-5.861006,-0.023049,0.002531,0.002931
4621,-4.639963,2.006341,-5.882554,-0.031043,0.016121,0.001332
4636,-4.728548,2.085350,-5.868188,-0.032908,0.010259,0.005329
4651,-4.616021,2.097321,-5.906496,-0.035040,0.014123,0.002931
4666,-4.481946,2.099715,-5.892130,-0.030377,0.022116,0.001865
4681,-4.654328,2.183512,-5.942409,-0.035839,0.023182,0.003064
4696,-4.618415,2.245761,-5.940014,-0.037438,0.011858,0.002931
4711,-4.460398,2.195483,-5.932832,-0.033308,0.014256,0.006928
4726,-4.513070,2.188300,-5.911284,-0.030910,0.014256,0.006262
4741,-4.541800,2.169147,-5.911284,-0.028911,0.013989,0.002665
4756,-4.659116,2.171541,-5.837064,-0.031176,0.007727,0.001066
4771,-4.546589,2.135628,-5.846641,-0.029178,0.014389,-0.002265
4786,-4.556166,2.142811,-5.810728,-0.026913,0.010392,0.001466
4801,-4.582502,2.027889,-5.963956,-0.027979,0.011591,-0.000933
4816,-4.692635,2.015918,-5.947197,-0.031842,0.016387,0.003198
4831,-4.529830,1.996764,-5.846641,-0.033308,0.011458,0.005596
4846,-4.491522,2.109292,-5.956774,-0.032242,0.020251,0.005196
4861,-4.599261,2.068590,-5.822699,-0.026247,0.006129,0.006928
4876,-4.620809,2.082955,-5.884948,-0.025980,0.006662,0.001332
4891,-4.644751,2.118868,-5.808333,-0.035173,0.002265,0.001332
4906,-4.486734,2.111686,-5.899313,-0.032508,0.003597,-0.000933
4921,-4.632780,2.133234,-5.875371,-0.038504,0.005196,0.002798
4936,-4.635174,2.161964,-5.944803,-0.035040,0.004397,0.001865
4951,-4.604050,2.176329,-5.841852,-0.033574,0.008394,0.004130
4966,-4.498705,2.226608,-5.928043,-0.029711,0.008660,0.006662
4981,-4.501099,2.164358,-5.880159,-0.030776,0.002398,0.005462
4996,-4.616021,2.123657,-5.942409,-0.025847,0.011724,0.004930
5011,-4.465186,1.989582,-5.774815,-0.020651,0.004663,-0.003198
5026,-4.762067,2.145205,-5.944803,-0.028112,0.031443,-0.001066
5041,-4.479551,1.941698,-5.738902,-0.030776,-0.017054,0.003198
5056,-4.570531,1.956063,-5.872977,-0.037838,0.038770,0.002265
5071,-4.812346,2.102109,-6.030994,-0.031709,0.016787,0.000266
5086,-4.450821,2.035071,-5.889736,-0.035839,-0.016387,0.000533
5101,-4.520253,1.994370,-5.911284,-0.046897,0.043966,-0.000266
5116,-4.752491,2.159570,-6.030994,-0.040636,0.015188,0.005995
5131,-4.505888,2.185906,-5.901707,-0.041035,-0.003064,0.007461
5146,-4.532224,2.200271,-5.925649,-0.040636,0.033308,0.002531
5161,-4.668693,2.291251,-5.956774,-0.036905,0.011325,0.002398
5176,-4.458004,2.145205,-5.832275,-0.034507,0.004796,0.001332
5191,-4.730942,2.229002,-5.901707,-0.032775,0.028778,0.002265
5206,-4.515464,2.229002,-5.858612,-0.031176,-0.006928,0.002132
5221,-4.560954,2.207454,-5.947197,-0.031309,0.023315,0.002531
5236,-4.587290,2.082955,-5.870583,-0.030243,0.015855,0.005063
5251,-4.687847,2.106897,-5.923255,-0.034107,0.012923,0.003064
5266,-4.551377,2.219425,-5.935226,-0.033708,0.012524,0.004930
5281,-4.537012,2.202666,-5.877765,-0.025314,0.013057,0.002665
5296,-4.558560,2.111686,-5.872977,-0.027712,0.009593,0.004796
5311,-4.649539,2.092532,-5.827487,-0.028911,0.015721,0.003730
5326,-4.630386,2.171541,-5.908890,-0.028645,0.011991,-0.000133
5341,-4.515464,2.181118,-5.846641,-0.028645,0.015322,0.003198
5356,-4.570531,2.188300,-5.961562,-0.026513,0.012391,0.002798
5371,-4.639963,2.121263,-5.767632,-0.031842,0.010792,0.003597
5386,-4.584896,2.161964,-5.880159,-0.032375,0.017320,0.004130
5401,-4.513070,2.157176,-5.918467,-0.035573,0.003597,0.003198
5416,-4.544195,2.212242,-5.880159,-0.033041,0.009193,0.001466
5431,-4.730942,2.128445,-5.908890,-0.022783,0.011858,-0.000266
5446,-4.584896,2.138022,-5.983110,-0.021051,0.009326,-0.000799
5461,-4.568137,2.104503,-5.928043,-0.022116,0.013190,-0.001732
5476,-4.577713,2.114080,-5.853823,-0.027046,0.009992,-0.000400
5491,-4.651934,2.042254,-5.916072,-0.031309,0.012391,-0.000133
5506,-4.671087,2.078167,-5.887342,-0.028245,0.019718,-0.004930
5521,-4.572925,2.085350,-5.875371,-0.029178,0.015988,-0.004397
5536,-4.570531,2.114080,-5.829881,-0.031576,0.023848,-0.003198
5551,-4.565742,2.152387,-5.983110,-0.036505,0.028778,-0.001599
5566,-4.548983,2.267309,-5.875371,-0.030643,0.020784,0.000266
5581,-4.467580,2.240973,-5.913678,-0.022383,0.011058,0.000000
5596,-4.484340,2.240973,-5.954380,-0.023449,0.008926,0.000000
5611,-4.709394,2.097321,-5.949591,-0.022649,-0.001865,0.000400
5626,-4.668693,2.056619,-5.911284,-0.023315,0.000666,-0.001466
5641,-4.630386,2.094926,-5.870583,-0.018786,0.006662,-0.003464
5656,-4.733336,2.003947,-5.899313,-0.020118,0.010126,-0.002265
5671,-4.589684,1.972822,-5.973533,-0.025047,0.017453,0.001732
5686,-4.582502,2.042254,-5.920861,-0.029844,0.014789,-0.001199
5701,-4.644751,2.059013,-5.913678,-0.033441,0.016121,0.000533
5716,-4.683058,2.075773,-5.961562,-0.031309,0.015588,0.001998
5731,-4.651934,2.126051,-5.880159,-0.033574,0.018119,-0.001066
5746,-4.568137,2.133234,-5.863400,-0.030776,0.023715,0.005862
5761,-4.548983,2.219425,-5.841852,-0.023315,0.021450,0.001599
5776,-4.692635,2.123657,-5.904101,-0.030643,0.022383,0.004930
5791,-4.606444,2.090138,-5.839458,-0.027312,0.014922,0.004930
5806,-4.544195,2.121263,-5.908890,-0.038237,0.015188,0.006928
5821,-4.513070,2.140416,-5.959168,-0.033308,0.008260,0.010126
5836,-4.577713,2.159570,-5.810728,-0.035306,0.019452,0.007594
5851,-4.690241,2.147599,-5.935226,-0.032908,0.010792,0.002265
5866,-4.505888,2.202666,-5.832275,-0.030776,0.017587,0.000133
5881,-4.575319,2.190695,-5.918467,-0.024381,0.010126,-0.002265
5896,-4.642357,2.092532,-5.896919,-0.030243,0.012524,-0.000666
5911,-4.644751,2.056619,-5.870583,-0.029977,0.015855,-0.004263
5926,-4.503493,2.102109,-5.791574,-0.030776,0.008660,0.000133
5941,-4.548983,2.111686,-5.822699,-0.029577,0.016121,-0.001732
5956,-4.644751,2.138022,-5.995081,-0.030377,0.007328,-0.002265
5971,-4.671087,2.111686,-5.887342,-0.033841,0.013323,-0.002798
5986,-4.560954,2.202666,-5.928043,-0.030243,0.009326,-0.001466
6001,-4.479551,2.219425,-5.868188,-0.030110,0.009726,-0.004796
6016,-4.625597,2.183512,-5.918467,-0.034907,0.014522,-0.007328
6031,-4.673481,2.233790,-5.987898,-0.028112,-0.000533,-0.011458
6046,-4.620809,2.140416,-5.942409,-0.028645,0.006129,-0.015188
6061,-4.496311,2.149993,-5.770026,-0.025181,0.006795,-0.014655
6076,-4.690241,2.056619,-5.937620,-0.026513,0.010658,-0.012257
6091,-4.692635,2.099715,-5.822699,-0.025047,0.008793,-0.009992
6106,-4.788404,2.097321,-5.853823,-0.027979,0.025714,-0.011058
6121,-4.596867,2.133234,-5.908890,-0.026913,0.026779,-0.006795
6136,-4.560954,2.121263,-5.966351,-0.031576,0.020384,-0.004796
6151,-4.730942,2.099715,-5.908890,-0.038637,0.016787,-0.003198
6166,-4.537012,2.106897,-5.837064,-0.038770,0.018386,-0.003864
6181,-4.498705,2.109292,-5.872977,-0.035440,0.018652,-0.002931
6196,-4.544195,2.011129,-5.865794,-0.037971,0.015322,-0.002132
6211,-4.644751,2.061408,-5.841852,-0.040769,0.005995,0.003597
6226,-4.685452,2.054225,-5.875371,-0.035440,0.011991,0.004397
6241,-4.541800,2.047042,-5.858612,-0.027712,0.006795,0.009326
6256,-4.582502,2.063802,-5.920861,-0.032775,0.017986,0.008394
6271,-4.752491,2.047042,-5.884948,-0.036106,0.013057,0.005995
6286,-4.580108,2.126051,-5.841852,-0.030776,-0.003997,0.006795
6301,-4.608838,2.118868,-5.758055,-0.034107,0.009726,0.007061
6316,-4.517859,2.059013,-5.858612,-0.034640,-0.001599,0.006129
6331,-4.668693,1.991976,-5.937620,-0.037438,0.007594,0.007061
6346,-4.704606,2.109292,-5.772420,-0.034240,0.008793,0.008127
6361,-4.599261,2.171541,-5.813122,-0.037172,0.020118,0.006662
6376,-4.575319,2.226608,-5.846641,-0.028778,0.010525,0.004663
6391,-4.627992,2.114080,-5.865794,-0.030776,0.018253,0.005329
6406,-4.730942,2.164358,-5.865794,-0.023848,0.020518,0.003198
6421,-4.580108,2.075773,-5.937620,-0.031842,0.007061,0.006795
6436,-4.541800,2.126051,-5.920861,-0.026779,0.019052,0.006662
6451,-4.671087,2.073379,-5.925649,-0.027845,0.015455,0.003597
6466,-4.680664,2.070984,-5.858612,-0.030776,0.015055,0.007328
6481,-4.594473,2.061408,-5.911284,-0.029711,0.017453,0.001998
6496,-4.503493,2.135628,-5.880159,-0.030776,0.011325,0.003331
6511,-4.649539,2.140416,-5.930438,-0.030243,0.016387,0.007194
6526,-4.599261,2.087744,-5.949591,-0.030110,0.010259,0.007727
6541,-4.601655,2.080561,-5.973533,-0.030510,0.019718,0.006928
6556,-4.587290,2.085350,-5.834670,-0.036372,0.021450,0.007994
6571,-4.630386,2.118868,-5.884948,-0.039303,0.015455,0.007594
6586,-4.666299,2.157176,-5.906496,-0.030643,0.008260,0.007461
6601,-4.604050,2.152387,-5.882554,-0.027712,0.014522,0.004530
6616,-4.546589,2.147599,-5.896919,-0.025181,0.010792,0.002531
6631,-4.546589,2.145205,-5.808333,-0.029844,0.015721,0.002798
6646,-4.728548,2.092532,-5.904101,-0.023848,0.011458,0.000400
6661,-4.680664,2.092532,-5.935226,-0.030110,0.015322,0.004130
6676,-4.532224,2.075773,-5.899313,-0.030243,0.018386,0.003064
6691,-4.503493,2.106897,-5.856217,-0.030243,0.012524,0.001332
6706,-4.690241,2.068590,-5.997475,-0.025447,0.015188,0.001332
6721,-4.642357,2.087744,-5.865794,-0.024515,0.003198,0.003464
6736,-4.553771,2.104503,-5.906496,-0.027046,0.023982,0.001599
6751,-4.527435,2.068590,-5.928043,-0.026380,0.012923,0.000666
6766,-4.649539,2.008735,-5.892130,-0.034107,0.026380,0.001732
6781,-4.666299,2.154782,-5.911284,-0.025047,0.005596,0.001732
6796,-4.493917,2.140416,-5.894525,-0.021583,-0.003597,0.000266
6811,-4.625597,2.142811,-5.961562,-0.031842,0.019985,0.002531
6826,-4.671087,2.123657,-5.892130,-0.029311,0.003864,0.003464
6841,-4.666299,2.159570,-5.872977,-0.039969,0.016920,0.005063
6856,-4.572925,2.200271,-5.815516,-0.029178,0.013057,0.005462
6871,-4.568137,2.082955,-5.896919,-0.037971,0.015721,0.008394
6886,-4.697423,2.092532,-5.837064,-0.031975,0.015188,0.010658
6901,-4.690241,2.200271,-5.846641,-0.034107,0.033574,0.004263
6916,-4.707000,2.138022,-5.904101,-0.027579,0.023982,-0.000799
6931,-4.517859,1.977611,-5.956774,-0.033175,0.029844,-0.004263
6946,-4.692635,1.908179,-5.954380,-0.038637,0.027845,-0.002531
6961,-4.683058,1.936909,-5.913678,-0.045832,0.019851,0.004796
6976,-4.570531,2.166753,-5.829881,-0.040236,0.020118,0.005862
6991,-4.546589,2.279280,-5.801151,-0.030510,0.011591,0.004930
7006,-4.556166,2.188300,-5.884948,-0.019185,0.008127,0.002665
7021,-4.613626,2.085350,-5.863400,-0.008926,-0.005329,0.000000
7036,-4.656722,1.982399,-5.904101,-0.012657,-0.010658,-0.002665
7051,-4.515464,1.874660,-5.875371,-0.028778,0.004930,-0.000666
7066,-4.723760,1.963245,-5.975927,-0.037838,0.005596,-0.000400
7081,-4.769250,2.051831,-5.916072,-0.040369,-0.001199,0.004663
7096,-4.613626,2.185906,-5.772420,-0.049429,0.015055,0.010259
7111,-4.558560,2.365471,-5.791574,-0.051560,0.022383,0.014655
7126,-4.537012,2.396596,-5.930438,-0.044100,0.015322,0.013723
7141,-4.630386,2.360683,-5.889736,-0.034107,0.018919,0.013323
7156,-4.601655,2.317587,-5.908890,-0.024115,0.013190,0.002798
7171,-4.503493,2.111686,-5.980716,-0.018786,0.019185,0.000266
7186,-4.637568,1.987187,-5.880159,-0.012923,0.024648,-0.001865
7201,-4.742914,1.951274,-5.935226,-0.027446,0.014655,-0.000666
7216,-4.711789,1.946486,-6.016629,-0.034374,0.017853,0.003198
7231,-4.556166,2.123657,-5.892130,-0.032908,0.014789,0.006662
7246,-4.582502,2.185906,-5.863400,-0.026247,0.017720,0.009326
7261,-4.618415,2.214637,-5.837064,-0.023182,0.009859,0.010259
7276,-4.659116,2.178724,-5.875371,-0.025181,0.013723,0.007994
7291,-4.565742,2.094926,-5.894525,-0.025447,0.011325,0.002132
7306,-4.553771,1.968034,-5.801151,-0.026513,0.021184,0.002265
7321,-4.728548,2.047042,-5.863400,-0.030110,0.016920,-0.002132
7336,-4.642357,2.030283,-5.899313,-0.034640,0.021450,-0.003464
7351,-4.577713,2.094926,-5.817910,-0.032375,0.019718,-0.006528
7366,-4.517859,2.140416,-5.918467,-0.030510,0.021450,-0.004263
7381,-4.651934,2.123657,-5.863400,-0.035573,0.021983,-0.002665
7396,-4.659116,2.121263,-5.844246,-0.030643,0.017453,-0.003597
7411,-4.639963,2.102109,-5.853823,-0.030776,0.022250,-0.000933
7426,-4.560954,2.080561,-5.865794,-0.033441,0.019851,-0.000266
7441,-4.611232,2.030283,-5.949591,-0.033974,0.014789,-0.002265
7456,-4.728548,2.008735,-5.920861,-0.033441,0.021717,-0.002265
7471,-4.637568,2.070984,-5.947197,-0.029044,0.018652,0.001332
7486,-4.625597,1.994370,-5.877765,-0.036639,0.018652,0.000666
7501,-4.589684,2.130840,-5.913678,-0.032375,0.023582,0.004130
7516,-4.685452,2.099715,-5.918467,-0.031309,0.016787,0.005995
7531,-4.587290,2.173935,-5.777209,-0.037305,0.017453,0.004263
7546,-4.477157,2.243367,-5.851429,-0.036505,0.015588,0.005329
7561,-4.517859,2.243367,-5.841852,-0.026513,0.014922,0.006395
7576,-4.697423,2.157176,-5.884948,-0.031176,0.013590,0.006662
7591,-4.606444,2.281674,-5.920861,-0.028778,0.011325,0.011991
7606,-4.498705,2.212242,-5.863400,-0.030377,0.010259,0.012391
7621,-4.532224,2.260126,-5.875371,-0.029044,0.007727,0.011591
7636,-4.635174,2.121263,-6.002264,-0.023582,0.001332,0.010525
7651,-4.651934,2.102109,-5.839458,-0.021317,0.007194,0.009859
7666,-4.575319,2.090138,-5.889736,-0.018919,0.019452,0.007328
7681,-4.639963,2.054225,-5.884948,-0.022116,0.014522,0.007061
7696,-4.695029,2.018312,-5.999869,-0.026779,0.020784,0.009459
7711,-4.630386,2.070984,-5.901707,-0.029844,0.013190,0.006662
7726,-4.548983,2.111686,-5.911284,-0.027579,0.016254,0.005329
7741,-4.565742,2.061408,-5.908890,-0.025580,0.016521,0.008527
7756,-4.632780,2.035071,-5.856217,-0.024515,0.006129,0.009992
7771,-4.711789,2.078167,-5.892130,-0.022916,0.003597,0.005196
7786,-4.601655,2.128445,-5.889736,-0.032242,0.001865,0.005462
7801,-4.560954,2.178724,-5.820304,-0.027446,-0.001466,0.005596
7816,-4.620809,2.073379,-5.930438,-0.029577,0.016521,0.005329
7831,-4.781221,2.166753,-5.853823,-0.025980,0.011591,0.003997
7846,-4.560954,2.164358,-5.928043,-0.028378,0.017587,0.004796
7861,-4.484340,2.195483,-5.913678,-0.027712,0.018919,0.007594
7876,-4.580108,2.073379,-5.853823,-0.022383,0.010925,0.004397
7891,-4.675876,2.102109,-5.930438,-0.018786,0.012923,0.001865
7906,-4.596867,2.027889,-5.913678,-0.018519,0.001599,0.000799
7921,-4.580108,2.054225,-5.884948,-0.025714,0.008127,-0.001199
7936,-4.654328,2.023100,-5.951985,-0.022250,-0.000133,-0.001732
7951,-4.702212,2.015918,-5.887342,-0.025047,0.015855,0.000933
7966,-4.639963,2.020706,-5.851429,-0.021850,0.010126,0.001732
7981,-4.525041,2.018312,-5.861006,-0.034507,0.019319,0.001998
7996,-4.596867,1.999158,-5.901707,-0.032508,0.016920,0.001865
8011,-4.707000,1.958457,-5.932832,-0.037704,0.014389,0.001998
8026,-4.678270,2.030283,-5.856217,-0.034507,0.010525,0.000933
8041,-4.551377,2.044648,-5.880159,-0.035839,0.013590,0.001732
8056,-4.599261,1.996764,-5.899313,-0.034240,0.023315,-0.003464
8071,-4.704606,1.956063,-5.892130,-0.035972,0.010392,-0.005196
8086,-4.702212,2.049437,-5.863400,-0.045965,0.031709,0.002798
8101,-4.575319,2.202666,-5.920861,-0.042101,0.021450,0.001732
8116,-4.472369,2.317587,-5.805939,-0.049562,0.028778,0.004796
8131,-4.613626,2.308010,-5.841852,-0.045299,0.021717,0.010792
8146,-4.529830,2.276886,-5.930438,-0.047297,0.010259,0.014389
8161,-4.446033,2.470816,-5.853823,-0.039303,0.005329,0.019585
8176,-4.455609,2.437297,-5.856217,-0.030510,0.012524,0.016387
8191,-4.560954,2.384625,-5.872977,-0.014123,-0.001199,0.009326
8206,-4.673481,2.193089,-5.932832,-0.009992,0.001466,0.007194
8221,-4.651934,2.109292,-5.930438,-0.005729,0.003997,0.007727
8236,-4.594473,1.944092,-5.813122,-0.014256,0.001998,0.005462
8251,-4.702212,1.821988,-6.030994,-0.017187,0.012790,0.005196
8266,-4.790798,1.862689,-6.009446,-0.024914,0.003730,0.006129
8281,-4.673481,1.924938,-5.904101,-0.028778,0.018386,0.004663
8296,-4.572925,1.970428,-5.951985,-0.032775,0.017320,0.007194
8311,-4.716577,1.400608,-6.004658,-0.050361,0.024515,0.001466
8326,-4.632780,2.365471,-5.875371,-0.039170,0.022116,0.005862
8341,-4.702212,2.161964,-5.889736,-0.031576,0.030910,0.010525
8356,-4.458004,2.176329,-5.853823,-0.029444,0.001199,0.004796
8371,-4.613626,2.159570,-5.978322,-0.034773,0.037172,0.000266
8386,-4.723760,2.049437,-5.896919,-0.032109,0.012657,0.000533
8401,-4.534618,2.099715,-5.813122,-0.033574,0.019319,-0.001066
8416,-4.637568,2.073379,-5.935226,-0.033841,0.035306,-0.002265
8431,-4.649539,2.030283,-5.963956,-0.036772,0.005729,0.001998
8446,-4.613626,2.099715,-5.884948,-0.033574,0.024515,0.000799
8461,-4.663905,2.149993,-5.906496,-0.032242,0.008793,0.001732
8476,-4.501099,2.190695,-5.975927,-0.029444,-0.001865,0.000933
8491,-4.627992,2.118868,-5.863400,-0.025447,0.003597,0.000400
8506,-4.659116,2.020706,-6.007052,-0.028911,0.009859,0.002531
8521,-4.673481,2.075773,-5.904101,-0.027979,0.001466,0.004397
8536,-4.527435,2.111686,-5.932832,-0.033708,0.011858,0.004930
8551,-4.529830,2.068590,-5.875371,-0.030510,0.011325,0.003198
8566,-4.680664,2.027889,-5.911284,-0.032109,0.008660,0.004663
8581,-4.673481,2.061408,-5.892130,-0.032109,0.013723,0.001332
8596,-4.517859,2.082955,-5.803545,-0.035839,0.011058,0.005063
8611,-4.659116,2.097321,-5.887342,-0.029977,0.015055,0.003464
8626,-4.683058,2.130840,-5.865794,-0.036905,0.016254,0.006262
8641,-4.630386,2.092532,-5.892130,-0.034507,0.020118,0.005862
8656,-4.592079,2.140416,-5.911284,-0.037704,0.015322,0.005596
8671,-4.580108,2.090138,-6.011840,-0.038904,0.013989,0.003997
8686,-4.661510,2.068590,-5.841852,-0.040236,0.007994,0.005329
8701,-4.654328,2.104503,-5.908890,-0.043300,0.011858,0.004796
8716,-4.606444,2.102109,-5.937620,-0.044100,0.014922,0.001199
8731,-4.510676,2.090138,-5.853823,-0.041835,0.011858,0.000666
8746,-4.639963,2.111686,-5.813122,-0.040902,0.022383,0.000533
8761,-4.661510,2.068590,-5.911284,-0.036505,0.015855,-0.001066
8776,-4.572925,2.185906,-5.851429,-0.034107,0.014789,-0.000799
8791,-4.501099,2.154782,-5.760449,-0.029844,0.014522,-0.003198
8806,-4.659116,2.135628,-5.916072,-0.029444,0.018786,-0.000400
8821,-4.666299,2.078167,-5.853823,-0.030510,0.006928,0.003331
8836,-4.630386,2.094926,-5.880159,-0.033574,0.018786,-0.000266
8851,-4.570531,2.032677,-5.844246,-0.034507,0.006395,0.001466
8866,-4.642357,1.980005,-5.815516,-0.044632,0.009992,0.008660
8881,-4.783615,1.960851,-5.932832,-0.058622,0.016254,0.005995
8896,-4.635174,2.109292,-5.853823,-0.058888,0.013456,0.009726
8911,-4.556166,2.140416,-5.911284,-0.054758,0.024248,0.007061
8926,-4.649539,2.205060,-5.808333,-0.046764,0.012790,0.005462
8941,-4.714183,2.178724,-5.770026,-0.038504,0.025580,0.004130
8956,-4.654328,2.159570,-5.808333,-0.038371,0.019185,0.004397
8971,-4.501099,2.252944,-5.932832,-0.029178,0.024381,0.002265
8986,-4.599261,2.123657,-5.884948,-0.019851,0.021717,-0.002265
9001,-4.673481,2.051831,-5.861006,-0.017320,0.018786,-0.003198
9016,-4.637568,2.063802,-5.853823,-0.016787,0.016254,-0.005596
9031,-4.546589,2.080561,-5.839458,-0.016121,0.020384,-0.005462
9046,-4.678270,2.049437,-5.863400,-0.016387,0.017320,-0.005596
9061,-4.666299,2.070984,-5.880159,-0.024515,0.017720,-0.002132
9076,-4.695029,2.128445,-5.882554,-0.025447,0.019985,-0.000400
9091,-4.491522,2.118868,-5.856217,-0.025580,0.018386,-0.003198
9106,-4.582502,2.164358,-5.846641,-0.022649,0.021583,-0.001199
9121,-4.637568,2.102109,-5.889736,-0.023982,0.014655,-0.000400
9136,-4.635174,2.121263,-5.908890,-0.025847,0.028112,-0.000266
9151,-4.572925,2.152387,-5.901707,-0.032375,0.020251,0.000533
9166,-4.539406,2.126051,-5.968745,-0.029311,0.017720,0.003597
9181,-4.627992,2.183512,-5.889736,-0.027845,0.015721,-0.000400
9196,-4.711789,2.044648,-5.930438,-0.023848,0.013590,-0.001066
9211,-4.541800,2.054225,-5.856217,-0.025181,0.010392,0.001998
9226,-4.525041,2.030283,-5.911284,-0.033175,0.009326,0.003464
9241,-4.608838,2.054225,-5.793968,-0.031709,0.008260,0.004263
9256,-4.740520,2.013524,-5.906496,-0.035706,0.015055,0.007994
9271,-4.599261,2.102109,-5.817910,-0.033175,0.012391,0.006928
9286,-4.515464,2.123657,-5.971139,-0.031443,0.007594,0.006395
9301,-4.625597,2.066196,-5.849035,-0.030776,0.009859,0.010925
9316,-4.695029,2.178724,-5.872977,-0.033175,0.014789,0.011991
9331,-4.596867,2.219425,-5.973533,-0.032375,0.017453,0.009992
9346,-4.493917,2.123657,-5.916072,-0.026913,0.010259,0.009593
9361,-4.577713,2.109292,-5.947197,-0.025314,0.018386,0.009593
9376,-4.551377,2.099715,-5.837064,-0.026513,0.003730,0.006928
9391,-4.551377,2.114080,-5.923255,-0.025714,0.009593,0.001998
9406,-4.680664,2.015918,-5.899313,-0.026646,0.013590,0.004663
9421,-4.654328,2.068590,-5.868188,-0.035706,0.016654,0.003730
9436,-4.541800,2.073379,-5.923255,-0.030910,0.019985,0.003730
9451,-4.577713,2.140416,-5.849035,-0.027979,0.024914,-0.003597
9466,-4.738125,2.003947,-5.865794,-0.024115,0.023582,-0.009726
9481,-4.716577,1.934515,-5.868188,-0.029444,0.024781,-0.009326
9496,-4.620809,1.924938,-5.949591,-0.037438,0.025714,-0.007328
9511,-4.546589,2.106897,-5.837064,-0.042900,0.014256,0.001865
9526,-4.611232,2.133234,-5.839458,-0.043700,0.017720,0.004263
9541,-4.632780,2.245761,-5.796362,-0.035173,0.003864,0.005729
9556,-4.575319,2.308010,-5.882554,-0.032242,0.021717,0.002931
9571,-4.553771,2.236184,-5.817910,-0.023582,0.009193,0.000266
9586,-4.606444,2.123657,-5.901707,-0.022916,0.018253,-0.000400
9601,-4.802769,2.013524,-5.889736,-0.022250,0.016254,-0.003331
9616,-4.580108,1.987187,-5.863400,-0.031043,0.011325,-0.002132
9631,-4.570531,2.047042,-5.935226,-0.034374,0.019585,-0.000799
9646,-4.553771,2.018312,-5.870583,-0.037438,0.013456,0.002798
9661,-4.625597,2.039860,-5.942409,-0.040636,0.018119,0.007861
9676,-4.611232,2.157176,-5.896919,-0.038237,0.015055,0.003464
9691,-4.553771,2.190695,-5.930438,-0.034507,0.024381,0.001332
9706,-4.541800,2.109292,-5.813122,-0.031443,0.018919,-0.001865
9721,-4.649539,2.080561,-5.863400,-0.034640,0.026779,-0.001865
9736,-4.644751,2.035071,-5.908890,-0.032775,0.014389,-0.003597
9751,-4.491522,2.068590,-5.849035,-0.035573,0.019052,-0.002265
9766,-4.594473,2.066196,-5.839458,-0.034773,0.016920,-0.000133
9781,-4.611232,2.092532,-5.868188,-0.034374,0.013723,0.005462
9796,-4.675876,2.190695,-5.810728,-0.033441,0.015721,0.007061
9811,-4.496311,2.226608,-5.868188,-0.034107,0.017054,0.005995
9826,-4.493917,2.248155,-5.846641,-0.027446,0.020518,0.005329
9841,-4.642357,2.209848,-5.940014,-0.025447,0.015455,0.003597
9856,-4.704606,2.061408,-5.932832,-0.025047,0.020651,0.005063
9871,-4.501099,2.116474,-5.908890,-0.027579,0.012257,0.006262
9886,-4.515464,2.025495,-5.959168,-0.031309,0.012124,0.005995
9901,-4.637568,2.042254,-5.930438,-0.028511,0.003997,0.009459
9916,-4.687847,2.054225,-5.963956,-0.022516,0.009326,0.006528
9931,-4.632780,2.008735,-5.901707,-0.033574,0.004663,0.008394
9946,-4.580108,2.173935,-5.985504,-0.033574,0.007328,0.009726
9961,-4.627992,2.049437,-5.949591,-0.033308,0.004796,0.012124
9976,-4.750096,2.087744,-5.803545,-0.033441,0.011724,0.008394
9991,-4.568137,2.245761,-5.882554,-0.028911,0.006129,0.006795
10006,-4.486734,2.207454,-5.911284,-0.019185,0.007994,0.007727
10021,-4.644751,2.054225,-5.887342,-0.019985,0.009326,0.002398
10036,-4.692635,2.099715,-5.810728,-0.025314,0.012790,0.006928
10051,-4.697423,2.025495,-5.899313,-0.023582,0.013323,0.005063
10066,-4.544195,2.080561,-5.904101,-0.027312,0.005862,0.003198
10081,-4.625597,2.030283,-5.973533,-0.030243,0.023848,0.003864
10096,-4.651934,2.051831,-5.844246,-0.032908,0.006662,0.005729
10111,-4.632780,2.099715,-5.925649,-0.032775,0.018253,0.006262
10126,-4.556166,2.149993,-5.872977,-0.031709,0.015455,0.003730
10141,-4.537012,2.109292,-5.916072,-0.029977,0.016254,0.001865
10156,-4.654328,2.116474,-5.959168,-0.025314,0.009459,0.002931
10171,-4.632780,2.114080,-5.930438,-0.023582,0.016521,0.002665
10186,-4.551377,2.097321,-5.868188,-0.026113,0.009859,0.001066
10201,-4.587290,2.051831,-5.870583,-0.031176,0.016254,-0.000400
10216,-4.718971,2.066196,-5.904101,-0.031043,0.017853,-0.000133
10231,-4.635174,2.087744,-5.889736,-0.030377,0.011591,-0.000666
10246,-4.635174,2.047042,-5.935226,-0.036372,0.019585,0.002398
10261,-4.560954,2.128445,-5.906496,-0.037571,0.009726,0.000266
10276,-4.697423,2.138022,-5.868188,-0.034773,0.019052,0.003730
10291,-4.637568,2.183512,-5.928043,-0.029711,0.003864,0.002931
10306,-4.534618,2.200271,-6.014235,-0.026113,0.010792,-0.000400
10321,-4.548983,2.073379,-5.734113,-0.027046,0.009193,0.003864
10336,-4.644751,2.078167,-5.918467,-0.028911,0.013856,0.001599
10351,-4.733336,2.106897,-5.918467,-0.029844,0.014655,0.001466
10366,-4.572925,2.061408,-5.930438,-0.031576,0.014389,0.002398
10381,-4.572925,2.097321,-5.839458,-0.033041,0.011458,0.003597
10396,-4.685452,2.056619,-5.839458,-0.033974,0.017320,0.001066
10411,-4.668693,2.068590,-5.872977,-0.035440,0.009992,0.001732
10426,-4.553771,2.140416,-5.813122,-0.034640,0.014789,0.000400
10441,-4.594473,2.183512,-5.930438,-0.033441,0.008793,-0.001199
10456,-4.635174,2.142811,-5.774815,-0.033308,0.011591,-0.000666
10471,-4.714183,2.133234,-5.942409,-0.024914,0.021717,-0.000933
10486,-4.596867,2.116474,-5.985504,-0.024914,0.001865,-0.001066
10501,-4.551377,2.106897,-5.865794,-0.024381,0.017587,0.003331
10516,-4.683058,2.078167,-5.882554,-0.028511,0.006262,0.002665
10531,-4.649539,2.078167,-5.846641,-0.031043,0.015721,0.001466
10546,-4.685452,2.128445,-5.935226,-0.035972,0.010126,0.004130
10561,-4.520253,2.082955,-5.975927,-0.033841,0.008127,0.003730
10576,-4.620809,2.056619,-5.928043,-0.034107,0.021184,0.001199
10591,-4.668693,2.011129,-5.899313,-0.034240,0.010792,0.003064
10606,-4.635174,2.130840,-5.904101,-0.027712,0.015988,0.003597
10621,-4.503493,1.994370,-5.880159,-0.032109,0.013590,0.003730
10636,-4.594473,2.051831,-5.880159,-0.034640,0.009859,0.005063
10651,-4.627992,2.068590,-5.844246,-0.033574,0.007594,0.001865
10666,-4.673481,2.102109,-5.913678,-0.034107,0.010925,0.000933
10681,-4.618415,2.133234,-5.911284,-0.031309,0.005995,0.001066
10696,-4.620809,2.109292,-5.846641,-0.032109,0.012124,0.002398
10711,-4.709394,2.042254,-5.906496,-0.035306,0.014789,0.004397
10726,-4.647145,2.161964,-5.908890,-0.031443,0.017054,0.005596
10741,-4.575319,2.149993,-5.959168,-0.032242,0.017587,0.003464
10756,-4.513070,2.068590,-5.951985,-0.028778,0.015055,0.002798
10771,-4.697423,2.078167,-5.935226,-0.031176,0.021051,0.001332
10786,-4.659116,2.126051,-5.820304,-0.031975,0.009593,0.002398
10801,-4.532224,2.171541,-5.827487,-0.027046,0.015855,0.000666
10816,-4.596867,2.035071,-5.894525,-0.024115,0.015055,-0.000799
10831,-4.671087,1.991976,-5.884948,-0.028778,0.014922,-0.004397
10846,-4.711789,1.987187,-5.875371,-0.032375,0.020917,0.000266
10861,-4.635174,2.090138,-5.906496,-0.038104,0.017453,0.001466
10876,-4.553771,2.068590,-5.985504,-0.036372,0.022250,0.000666
10891,-4.632780,2.006341,-5.877765,-0.041968,0.027712,0.003198
10906,-4.656722,2.142811,-5.911284,-0.043034,0.020917,0.006129
10921,-4.613626,2.142811,-5.844246,-0.043167,0.019585,0.008394
10936,-4.503493,2.312799,-5.892130,-0.041568,0.016254,0.014256
10951,-4.632780,2.214637,-5.892130,-0.034374,0.008527,0.015188
10966,-4.644751,2.212242,-5.805939,-0.036239,0.013856,0.012257
10981,-4.584896,2.190695,-5.801151,-0.029444,0.009859,0.009060
10996,-4.563348,2.154782,-5.882554,-0.027712,0.009060,0.006662
11011,-4.577713,2.051831,-5.805939,-0.027312,0.017054,0.009326
11026,-4.726154,2.094926,-5.868188,-0.032775,0.016254,0.010259
11041,-4.620809,2.114080,-5.861006,-0.031842,0.011458,0.011191
11056,-4.544195,2.152387,-5.930438,-0.027579,0.014123,0.008660
11071,-4.572925,2.018312,-5.956774,-0.029844,0.008394,0.009859
11086,-4.704606,2.025495,-5.880159,-0.025714,0.007194,0.007194
11101,-4.738125,2.121263,-5.753267,-0.028378,0.010259,0.006795
11116,-4.553771,2.044648,-5.904101,-0.032908,0.017187,0.006129
11131,-4.589684,2.123657,-5.841852,-0.032642,0.014522,0.002931
11146,-4.671087,2.090138,-5.861006,-0.032775,0.018786,0.002531
11161,-4.728548,2.097321,-5.899313,-0.028245,0.011991,0.003597
11176,-4.568137,2.142811,-5.916072,-0.036505,0.013590,0.003864
11191,-4.592079,2.140416,-5.868188,-0.036239,0.021450,0.004930
11206,-4.702212,2.130840,-5.949591,-0.030510,0.013190,0.006262
11221,-4.623203,2.087744,-5.887342,-0.028378,0.018919,-0.000533
11236,-4.599261,2.109292,-5.911284,-0.031309,0.020518,-0.000266
11251,-4.520253,1.999158,-5.865794,-0.032642,0.016787,0.000000
11266,-4.673481,2.054225,-5.803545,-0.037838,0.026913,0.000933
11281,-4.687847,2.085350,-5.889736,-0.035306,0.026113,0.004796
11296,-4.529830,2.123657,-5.932832,-0.034240,0.018919,0.001998
11311,-4.546589,2.159570,-5.901707,-0.034240,0.025181,0.002531
11326,-4.678270,2.152387,-5.894525,-0.028112,0.016254,0.000666
11341,-4.644751,2.085350,-5.870583,-0.027979,0.016654,-0.000266
11356,-4.651934,2.140416,-5.892130,-0.029711,0.008926,0.002665
11371,-4.508282,2.104503,-5.892130,-0.028778,0.010925,0.001599
11386,-4.666299,2.082955,-5.913678,-0.024381,0.008926,0.004263
11401,-4.728548,2.099715,-5.904101,-0.025847,0.011858,0.002398
11416,-4.680664,2.092532,-5.947197,-0.026247,0.015455,0.005729
11431,-4.582502,2.049437,-5.884948,-0.030510,0.013057,0.007727
11446,-4.673481,2.078167,-5.978322,-0.035173,0.021317,0.007461
11461,-4.711789,2.061408,-5.882554,-0.030776,0.008127,0.004663
11476,-4.625597,2.173935,-5.911284,-0.025047,0.012657,0.007461
11491,-4.534618,2.152387,-5.916072,-0.026380,0.009726,0.005596
11506,-4.541800,2.044648,-5.880159,-0.028245,0.012124,0.003730
11521,-4.627992,2.140416,-5.815516,-0.029444,0.018519,0.000933
11536,-4.627992,2.116474,-5.872977,-0.031309,0.013456,-0.000133
11551,-4.522647,2.159570,-5.904101,-0.030510,0.019319,0.000799
11566,-4.668693,2.121263,-5.899313,-0.031576,0.020518,0.002665
11581,-4.678270,2.157176,-5.901707,-0.027312,0.015721,0.002265
11596,-4.611232,2.056619,-5.841852,-0.031975,0.016521,0.004530
11611,-4.608838,2.121263,-5.949591,-0.033041,0.019985,0.005862
11626,-4.627992,2.061408,-5.781997,-0.032908,0.013856,0.005995
11641,-4.623203,2.013524,-5.853823,-0.034107,0.016387,0.008394
11656,-4.661510,2.075773,-5.928043,-0.031176,0.012124,0.009726
11671,-4.525041,2.106897,-5.875371,-0.029844,0.009326,0.005462
11686,-4.568137,2.080561,-5.875371,-0.030910,0.017054,0.009060
11701,-4.611232,2.056619,-5.801151,-0.033441,0.008660,0.009859
11716,-4.718971,2.233790,-5.889736,-0.035040,0.020651,0.008926
11731,-4.596867,2.149993,-5.918467,-0.030510,0.015188,0.008793
11746,-4.613626,2.197877,-5.798757,-0.023315,0.017986,0.000533
11761,-4.680664,2.059013,-5.913678,-0.026513,0.020784,0.005196
11776,-4.728548,2.111686,-5.899313,-0.028778,0.020251,0.005196
11791,-4.572925,2.078167,-5.858612,-0.030910,0.015855,0.004930
11806,-4.580108,2.140416,-5.887342,-0.030243,0.020784,0.002931
11821,-4.654328,2.073379,-5.978322,-0.029977,0.016787,0.005862
11836,-4.661510,2.061408,-5.822699,-0.028911,0.017853,0.003730
11851,-4.699818,2.147599,-5.901707,-0.030510,0.020518,0.005729
11866,-4.572925,2.118868,-5.987898,-0.033841,0.013190,0.005329
11881,-4.687847,2.056619,-5.947197,-0.036505,0.014655,0.005729
11896,-4.687847,2.066196,-5.827487,-0.029311,0.015988,0.005196
11911,-4.666299,2.106897,-5.906496,-0.031842,0.018652,0.001865
11926,-4.517859,2.102109,-5.741296,-0.029311,0.018119,0.002265
11941,-4.668693,2.063802,-5.889736,-0.033308,0.023582,0.005462
11956,-4.656722,2.027889,-5.947197,-0.032908,0.017054,0.004263
11971,-4.647145,2.159570,-5.844246,-0.032375,0.019985,0.007861
11986,-4.503493,2.188300,-5.911284,-0.031043,0.014922,0.009060
12001,-4.553771,2.193089,-5.832275,-0.030243,0.021450,0.006662
12016,-4.616021,2.188300,-5.961562,-0.029711,0.007727,0.008394
12031,-4.642357,2.231396,-5.904101,-0.025714,0.008394,0.007461
12046,-4.510676,2.188300,-5.932832,-0.017320,0.001466,0.004530
12061,-4.582502,2.068590,-5.949591,-0.017453,0.007194,0.002798
12076,-4.718971,1.953669,-5.829881,-0.022250,-0.003997,0.002931
12091,-4.707000,1.941698,-5.858612,-0.028112,0.009992,-0.001732
12106,-4.673481,1.987187,-5.968745,-0.030643,0.006129,-0.001466
12121,-4.553771,2.035071,-5.906496,-0.033841,0.006395,0.002132
12136,-4.702212,2.061408,-5.951985,-0.032908,0.022116,0.003864
12151,-4.616021,2.154782,-5.863400,-0.032242,0.008127,0.008260
12166,-4.505888,2.229002,-5.796362,-0.032642,0.017320,0.003597
12181,-4.537012,2.164358,-5.817910,-0.031842,0.017587,0.003464
12196,-4.709394,2.114080,-5.884948,-0.028112,0.015721,-0.001732
12211,-4.661510,2.066196,-5.825093,-0.031842,0.016387,-0.000799
12226,-4.565742,2.138022,-5.911284,-0.032375,0.019185,0.000666
12241,-4.568137,2.212242,-5.863400,-0.029711,0.014922,-0.001199
12256,-4.560954,2.128445,-5.889736,-0.029044,0.013323,0.002665
12271,-4.680664,2.147599,-5.951985,-0.029044,0.009326,-0.000933
12286,-4.608838,2.169147,-5.851429,-0.026247,0.011724,-0.001599
12301,-4.553771,2.118868,-5.920861,-0.033708,0.013723,-0.000933
12316,-4.584896,2.078167,-5.856217,-0.033974,0.018253,-0.001732
12331,-4.680664,2.039860,-5.925649,-0.035040,0.022783,-0.000933
12346,-4.565742,2.099715,-5.877765,-0.032109,0.016387,-0.001599
12361,-4.548983,2.097321,-5.880159,-0.027312,0.021317,0.001466
12376,-4.627992,2.056619,-5.889736,-0.021051,0.006928,0.000799
12391,-4.635174,1.996764,-5.877765,-0.024248,0.011991,0.003198
12406,-4.651934,2.027889,-6.014235,-0.024914,0.008260,0.004130
12421,-4.575319,2.099715,-5.880159,-0.032375,0.012524,0.003464
12436,-4.685452,2.039860,-5.930438,-0.034507,0.014655,0.003730
12451,-4.647145,2.075773,-5.913678,-0.035173,0.013723,0.004530
12466,-4.673481,2.128445,-5.911284,-0.035972,0.021983,0.004663
12481,-4.565742,2.190695,-5.815516,-0.035972,0.013590,0.007194
12496,-4.642357,2.178724,-5.892130,-0.033175,0.010658,0.006262
12511,-4.718971,2.128445,-5.887342,-0.031309,0.018519,0.005196
12526,-4.666299,2.123657,-5.913678,-0.026913,0.015188,0.000266
12541,-4.522647,2.161964,-5.882554,-0.023582,0.012124,0.004663
12556,-4.577713,2.059013,-5.911284,-0.029977,0.013989,0.001199
12571,-4.649539,2.099715,-5.978322,-0.028378,0.011591,-0.000799
12586,-4.649539,2.094926,-5.861006,-0.030243,0.013989,-0.000533
12601,-4.556166,2.056619,-5.858612,-0.035440,0.012790,-0.000666
12616,-4.599261,2.085350,-5.884948,-0.037704,0.017453,-0.001066
12631,-4.663905,2.116474,-5.853823,-0.044766,0.015055,-0.001332
12646,-4.680664,2.114080,-5.865794,-0.044366,0.020518,-0.006262
12661,-4.594473,2.130840,-5.899313,-0.052227,0.015721,-0.001066
12676,-4.534618,2.106897,-5.815516,-0.047963,0.018786,-0.005329
12691,-4.675876,2.094926,-5.810728,-0.051694,0.027979,-0.000933
12706,-4.726154,2.279280,-5.853823,-0.044766,0.027446,0.003331
12721,-4.654328,2.360683,-5.911284,0.003464,0.013057,-0.023715
12736,-4.572925,2.190695,-5.892130,-0.005063,0.047697,-0.016387
12751,-4.659116,1.865083,-5.877765,0.008527,0.032908,-0.023449
12766,-4.627992,1.651999,-6.074090,-0.005596,0.034240,-0.017187
12781,-4.589684,1.826776,-6.071695,-0.027312,0.012923,-0.001466
12796,-4.446033,2.037466,-5.872977,-0.046631,-0.004930,0.011591
12811,-4.558560,2.310405,-5.963956,-0.043833,-0.000533,0.019185
12826,-4.656722,2.408567,-5.942409,-0.023982,-0.013057,0.014789
12841,-4.541800,2.348712,-5.899313,-0.015055,0.004530,0.008527
12856,-4.611232,2.267309,-5.870583,-0.012124,0.001332,0.010126
12871,-4.572925,2.059013,-5.868188,-0.018119,-0.005329,0.007328
12886,-4.790798,1.879448,-5.911284,-0.017453,0.001066,0.009593
12901,-4.678270,1.917755,-5.846641,-0.025714,-0.007594,0.009459
12916,-4.587290,1.946486,-5.858612,-0.034907,-0.005729,0.015455
12931,-4.560954,1.968034,-5.784391,-0.043966,0.009859,0.013590
12946,-4.774038,2.126051,-5.839458,-0.041701,0.007194,0.012657
12961,-4.577713,2.219425,-5.810728,-0.030243,0.004397,0.007461
12976,-4.707000,2.157176,-5.875371,-0.020384,0.029044,0.000000
12991,-4.630386,1.963245,-5.829881,-0.024648,0.010525,-0.002931
13006,-4.678270,1.860295,-5.853823,-0.033974,0.034107,0.001332
13021,-4.795586,1.953669,-5.894525,-0.043567,0.013723,0.004530
13036,-4.477157,2.102109,-5.906496,-0.037305,0.013456,0.002531
13051,-4.592079,2.147599,-5.858612,-0.036106,0.023315,-0.001066
13066,-4.584896,2.161964,-5.798757,-0.032642,0.003464,0.000400
13081,-4.661510,2.099715,-5.839458,-0.039037,0.030243,-0.000133
13096,-4.534618,2.202666,-5.887342,-0.033708,0.014922,-0.003198
13111,-4.548983,2.209848,-5.951985,-0.032508,0.029844,-0.002931
13126,-4.647145,2.109292,-5.918467,-0.028378,0.024648,-0.003464
13141,-4.556166,2.094926,-5.949591,-0.026380,0.022383,-0.002798
13156,-4.639963,2.078167,-5.961562,-0.023848,0.018519,-0.001199
13171,-4.673481,2.051831,-5.844246,-0.021184,0.011325,0.004130
13186,-4.649539,2.078167,-5.861006,-0.021583,0.011858,0.006662
13201,-4.560954,2.056619,-5.882554,-0.032642,0.020384,0.003198
13216,-4.599261,2.135628,-5.992687,-0.033441,0.019452,0.003864
13231,-4.671087,2.123657,-5.863400,-0.035440,0.017986,0.002931
13246,-4.604050,2.205060,-5.916072,-0.030643,0.010259,0.005063
13261,-4.568137,2.183512,-5.899313,-0.032775,0.018519,0.005862
13276,-4.565742,2.092532,-5.906496,-0.025047,0.005196,0.005462
13291,-4.587290,2.116474,-5.791574,-0.028245,0.010259,0.005596
13306,-4.675876,2.142811,-5.947197,-0.025580,-0.000533,0.009459
13321,-4.541800,2.068590,-5.892130,-0.033974,-0.003597,0.006395
13336,-4.611232,2.116474,-5.861006,-0.034107,-0.003730,0.010792
13351,-4.666299,2.123657,-5.944803,-0.023582,-0.005995,0.007461
13366,-4.687847,2.011129,-5.872977,-0.019052,0.013456,0.002531
13381,-4.675876,2.013524,-5.820304,-0.018919,0.007861,0.002398
13396,-4.606444,1.984793,-5.889736,-0.025580,0.011325,0.002665
13411,-4.714183,1.929726,-5.889736,-0.030243,0.015055,0.002132
13426,-4.695029,2.003947,-5.918467,-0.035573,0.014789,0.005329
13441,-4.644751,2.047042,-5.940014,-0.037704,0.021583,0.003730
13456,-4.551377,2.061408,-5.880159,-0.038770,0.014789,-0.000666
13471,-4.654328,2.047042,-5.861006,-0.041435,0.021983,0.000400
13486,-4.666299,2.059013,-5.911284,-0.037438,0.013456,-0.003864
13501,-4.625597,2.102109,-5.918467,-0.035306,0.015188,-0.001066
13516,-4.529830,2.181118,-5.882554,-0.032642,0.005862,-0.002665
13531,-4.616021,2.090138,-5.911284,-0.035173,0.015455,-0.004130
13546,-4.704606,2.138022,-5.870583,-0.030776,0.013856,-0.000933
13561,-4.644751,2.226608,-5.837064,-0.025447,0.017720,-0.001865
13576,-4.515464,2.176329,-5.868188,-0.020384,0.020384,-0.001599
13591,-4.594473,2.130840,-5.858612,-0.021583,0.021317,0.000000
13606,-4.726154,2.087744,-5.868188,-0.013856,0.023049,-0.000400
13621,-4.644751,2.056619,-5.949591,-0.011724,0.022649,-0.003464
13636,-4.596867,2.092532,-5.894525,-0.015721,0.015721,-0.000266
13651,-4.618415,2.049437,-5.901707,-0.022916,0.013989,0.004930
13666,-4.711789,2.003947,-6.035782,-0.024914,0.018519,0.002398
13681,-4.623203,2.066196,-5.916072,-0.024381,0.004263,0.001599
13696,-4.522647,2.056619,-5.925649,-0.034374,0.011458,0.004663
13711,-4.596867,2.054225,-5.858612,-0.037438,0.008660,0.002398
13726,-4.639963,2.011129,-5.863400,-0.034240,0.007194,0.004263
13741,-4.723760,2.037466,-5.861006,-0.035040,0.005862,0.000266
13756,-4.539406,2.030283,-5.884948,-0.034907,0.007328,0.003064
13771,-4.599261,2.123657,-5.949591,-0.038637,0.013723,0.004263
13786,-4.692635,2.042254,-5.772420,-0.038104,0.007861,0.000266
13801,-4.735731,2.080561,-5.858612,-0.036505,0.009593,0.004796
13816,-4.632780,2.087744,-5.825093,-0.039703,0.009593,0.003464
13831,-4.558560,2.066196,-5.875371,-0.042767,0.008260,0.006928
13846,-4.709394,2.023100,-5.846641,-0.044366,0.012923,0.007594
13861,-4.654328,2.126051,-5.930438,-0.042501,0.012391,0.006528
13876,-4.642357,2.142811,-5.844246,-0.038770,0.012391,0.009459
13891,-4.563348,2.130840,-5.906496,-0.033175,0.015455,0.005063
13906,-4.678270,2.061408,-5.858612,-0.031309,0.017587,0.005329
13921,-4.704606,2.106897,-5.894525,-0.032642,0.017587,0.004397
13936,-4.599261,2.149993,-5.884948,-0.031842,0.013989,0.005462
13951,-4.589684,2.082955,-5.918467,-0.034907,0.019585,0.003464
13966,-4.627992,2.068590,-5.963956,-0.030377,0.013989,0.004930
13981,-4.735731,2.066196,-5.918467,-0.032508,0.018919,0.006262
13996,-4.656722,2.140416,-5.894525,-0.031309,0.023049,0.008260
14011,-4.520253,2.094926,-5.916072,-0.027312,0.017587,0.005596
14026,-4.572925,2.068590,-5.896919,-0.028112,0.017587,0.003064
14041,-4.687847,2.027889,-5.851429,-0.024914,0.017986,0.006795
14056,-4.625597,2.070984,-5.805939,-0.030643,0.015588,0.005995
14071,-4.584896,2.011129,-5.877765,-0.034640,0.021051,0.005995
14086,-4.611232,2.073379,-5.887342,-0.031576,0.018119,0.005196
14101,-4.673481,2.056619,-5.942409,-0.036106,0.013989,0.004397
14116,-4.642357,2.140416,-5.779603,-0.036905,0.023715,0.004796
14131,-4.584896,2.133234,-5.882554,-0.037971,0.015721,0.003464
14146,-4.601655,2.066196,-5.779603,-0.032775,0.020118,0.002665
14161,-4.733336,2.037466,-5.872977,-0.034507,0.026779,0.004263
14176,-4.637568,2.082955,-5.911284,-0.034773,0.011724,0.004796
14191,-4.513070,2.099715,-5.808333,-0.038104,0.018786,0.005329
14206,-4.560954,2.133234,-6.033388,-0.033841,0.014389,0.005063
14221,-4.630386,2.049437,-5.937620,-0.032375,0.001066,0.007727
14236,-4.620809,2.104503,-5.868188,-0.031176,0.002665,0.011325
14251,-4.620809,2.128445,-5.935226,-0.031043,0.000933,0.006528
14266,-4.572925,2.090138,-5.810728,-0.029711,-0.004130,0.010259
14281,-4.697423,2.030283,-5.853823,-0.027446,0.016387,0.005862
14296,-4.774038,2.073379,-5.817910,-0.027579,0.007194,0.004663
14311,-4.659116,2.073379,-5.810728,-0.029311,0.021051,0.003997
14326,-4.647145,2.011129,-5.858612,-0.032242,0.033308,0.004263
14341,-4.704606,2.039860,-5.963956,-0.039037,0.021051,0.001466
14356,-4.661510,2.123657,-5.906496,-0.037172,0.016121,0.003864
14371,-4.642357,2.200271,-5.973533,-0.031975,0.022783,-0.001332
14386,-4.513070,2.185906,-5.810728,-0.029178,0.014655,-0.000266
14401,-4.637568,2.121263,-5.911284,-0.029444,0.020118,-0.001998
14416,-4.661510,2.133234,-5.904101,-0.023582,0.021850,-0.003997
14431,-4.575319,2.111686,-5.925649,-0.023315,0.016654,-0.004663
14446,-4.570531,2.121263,-5.856217,-0.025047,0.027446,-0.001066
14461,-4.584896,2.066196,-5.796362,-0.028645,0.012391,0.001466
14476,-4.735731,2.047042,-5.925649,-0.030643,0.023582,0.000400
14491,-4.570531,2.090138,-5.901707,-0.028778,0.006795,0.001066
14506,-4.556166,2.061408,-5.937620,-0.031709,0.015322,0.000133
14521,-4.697423,2.027889,-5.966351,-0.032508,0.003331,-0.002798
14536,-4.687847,1.980005,-5.889736,-0.032642,0.005462,-0.003198
14551,-4.630386,2.078167,-5.904101,-0.034240,0.014389,-0.002265
14566,-4.558560,2.133234,-5.985504,-0.032908,0.009992,-0.004930
14581,-4.599261,2.097321,-5.999869,-0.031043,0.024515,0.000266
14596,-4.714183,2.082955,-5.841852,-0.027179,0.014655,-0.001066
14611,-4.647145,2.130840,-5.980716,-0.021983,0.012124,-0.001466
14626,-4.584896,2.066196,-5.827487,-0.023848,0.015855,-0.001599
14641,-4.616021,2.037466,-5.997475,-0.022649,0.009859,0.001865
14656,-4.728548,1.956063,-5.817910,-0.028511,0.010126,0.001199
14671,-4.666299,2.015918,-5.899313,-0.032642,0.015322,0.005462
14686,-4.654328,2.085350,-5.959168,-0.037704,0.016254,0.005729
14701,-4.592079,2.135628,-5.863400,-0.037438,0.009859,0.005063
14716,-4.697423,2.054225,-5.918467,-0.035440,0.013856,0.006129
14731,-4.635174,2.135628,-5.908890,-0.029311,0.002798,0.006928
14746,-4.604050,2.111686,-5.899313,-0.032642,0.013723,0.005995
14761,-4.599261,2.128445,-5.942409,-0.027446,0.004663,0.005995
14776,-4.675876,2.013524,-5.865794,-0.028112,0.009193,0.001599
14791,-4.666299,2.097321,-5.887342,-0.026247,0.010925,0.006528
14806,-4.596867,2.138022,-5.856217,-0.023449,0.009859,0.006262
14821,-4.565742,2.133234,-5.966351,-0.029577,0.013989,0.005329
14836,-4.671087,2.130840,-5.870583,-0.030510,0.014922,0.000666
14851,-4.735731,2.025495,-5.913678,-0.027712,0.014522,-0.001599
14866,-4.596867,2.027889,-5.887342,-0.028112,0.020384,0.000400
14881,-4.577713,1.996764,-5.853823,-0.034507,0.020784,0.005329
14896,-4.620809,2.037466,-5.963956,-0.043833,0.016787,0.004263
14911,-4.668693,2.075773,-5.963956,-0.031842,0.009726,0.007061
14926,-4.589684,2.020706,-5.894525,-0.030776,0.010925,0.006928
14941,-4.501099,2.078167,-5.928043,-0.031443,0.000666,0.005729
14956,-4.611232,2.082955,-5.918467,-0.033574,0.005196,0.004930
14971,-4.752491,2.092532,-5.949591,-0.033708,-0.001865,0.003730
14986,-4.620809,2.161964,-5.882554,-0.037038,0.001066,0.002665
15001,-4.592079,2.142811,-5.863400,-0.036372,0.005462,-0.000400
15016,-4.666299,2.123657,-5.844246,-0.027979,0.007861,0.001466
15031,-4.738125,1.953669,-5.853823,-0.027979,0.015055,0.002931
15046,-4.606444,2.078167,-5.832275,-0.026113,0.013057,0.004263
15061,-4.575319,2.066196,-5.851429,-0.024648,0.021051,0.002931
15076,-4.606444,2.025495,-5.868188,-0.023449,0.016121,0.000000
15091,-4.745308,2.018312,-5.937620,-0.032375,0.029178,0.000000
15106,-4.656722,2.059013,-5.872977,-0.029178,0.014389,0.002398
15121,-4.520253,2.063802,-5.906496,-0.028245,0.024914,0.001066
15136,-4.608838,2.044648,-5.882554,-0.035306,0.013323,0.002398
15151,-4.678270,2.161964,-5.820304,-0.037838,0.015855,0.001732
15166,-4.726154,2.231396,-5.805939,-0.033175,0.016387,0.002798
15181,-4.491522,2.193089,-5.858612,-0.028378,0.010925,0.002798
15196,-4.606444,2.178724,-5.861006,-0.027179,0.021450,0.003864
15211,-4.685452,2.157176,-5.901707,-0.022383,0.013856,0.002398
15226,-4.671087,2.123657,-5.844246,-0.017187,0.028911,0.005862
15241,-4.644751,2.090138,-5.791574,-0.012923,0.020917,0.010792
15256,-4.565742,2.047042,-5.925649,-0.019985,0.025980,0.010392
15271,-4.589684,1.994370,-5.918467,-0.021184,0.019452,0.012657
15286,-4.623203,1.991976,-5.942409,-0.021717,0.012124,0.013723
15301,-4.596867,1.965640,-5.987898,-0.038237,0.011724,0.017054
15316,-4.534618,2.145205,-5.863400,-0.046364,0.009326,0.008926
15331,-4.671087,2.154782,-5.801151,-0.033708,-0.001466,0.001732
15346,-4.709394,2.056619,-5.892130,-0.020518,-0.003064,-0.004796
15361,-4.656722,2.078167,-5.837064,-0.029577,0.009593,-0.001599
15376,-4.623203,2.102109,-5.813122,-0.029444,0.007061,0.001732
15391,-4.699818,2.051831,-5.846641,-0.027046,0.014256,0.005196
15406,-4.721365,2.078167,-5.784391,-0.025181,0.009593,0.006262
15421,-4.666299,2.063802,-5.894525,-0.022649,0.012391,0.009060
15436,-4.587290,2.051831,-5.875371,-0.021717,0.015455,0.015055
15451,-4.611232,2.068590,-5.844246,-0.023182,0.017453,0.017587
15466,-4.695029,1.915361,-5.935226,-0.031975,0.017587,0.017986
15481,-4.637568,2.006341,-5.791574,-0.048496,0.025447,0.018386
15496,-4.572925,2.181118,-5.980716,-0.049695,0.020118,0.014655
15511,-4.608838,2.070984,-5.918467,-0.047031,0.021450,0.008127
15526,-4.726154,2.128445,-5.944803,-0.050761,0.032375,0.004130
15541,-4.675876,2.070984,-5.832275,-0.051827,0.032508,0.008394
15556,-4.558560,2.135628,-5.841852,-0.049029,0.039303,0.008260
15571,-4.632780,2.102109,-5.849035,-0.041701,0.041568,0.007194
15586,-4.716577,2.114080,-5.899313,-0.032642,0.023715,0.005063
15601,-4.649539,2.133234,-5.820304,-0.025980,0.031443,0.003597
15616,-4.623203,2.173935,-5.932832,-0.023182,0.030243,0.008260
15631,-4.599261,2.087744,-5.853823,-0.016387,0.019585,0.006262
15646,-4.673481,2.035071,-5.920861,-0.015721,0.030377,0.013190
15661,-4.654328,2.049437,-5.887342,-0.013590,0.018119,0.013323
15676,-4.491522,2.092532,-6.016629,-0.012124,0.011724,0.011991
15691,-4.606444,2.090138,-5.911284,-0.026513,0.004663,0.013190
15706,-4.606444,2.080561,-5.992687,-0.036505,0.004397,0.006795
15721,-4.659116,2.195483,-5.884948,-0.031709,0.001599,0.003064
15736,-4.570531,2.116474,-5.858612,-0.020384,0.002132,-0.004397
15751,-4.486734,2.106897,-5.801151,-0.014123,0.013190,-0.004796
15766,-4.692635,2.082955,-5.815516,-0.017187,0.006528,-0.003198
15781,-4.747702,2.094926,-5.971139,-0.017587,0.009193,-0.002665
15796,-4.611232,2.104503,-5.901707,-0.020917,0.005596,0.002931
15811,-4.553771,2.097321,-5.949591,-0.018253,0.002132,0.011058
15826,-4.647145,2.068590,-5.892130,-0.015188,0.012790,0.010658
15841,-4.718971,1.963245,-5.899313,-0.020784,0.013989,0.008660
15856,-4.661510,1.956063,-5.990293,-0.027579,0.025181,0.002132
15871,-4.630386,1.932121,-5.916072,-0.033841,0.027979,-0.002531
15886,-4.599261,1.920150,-5.966351,-0.047697,0.028378,0.004130
15901,-4.663905,2.003947,-5.918467,-0.053692,0.027312,0.008527
15916,-4.582502,2.279280,-5.935226,-0.048096,0.017986,0.015855
15931,-4.503493,2.308010,-5.774815,-0.037438,0.017986,0.018786
15946,-4.582502,2.260126,-5.825093,-0.031443,0.027979,0.016254
15961,-4.594473,2.164358,-5.940014,-0.019985,0.012657,0.005729
15976,-4.599261,2.059013,-5.889736,-0.017453,0.022783,-0.000133
15991,-4.529830,2.025495,-5.906496,-0.021051,0.000000,-0.000799
16006,-4.525041,1.948880,-5.920861,-0.024248,0.011325,-0.003198
16021,-4.673481,2.044648,-5.911284,-0.018253,-0.004530,-0.005329
16036,-4.601655,2.085350,-5.920861,-0.011058,-0.003597,-0.010392
16051,-4.560954,2.051831,-5.901707,-0.009060,-0.007061,-0.009193
16066,-4.649539,1.932121,-5.894525,-0.020251,0.000799,-0.006662
16081,-4.771644,1.908179,-5.947197,-0.026247,0.011058,-0.004530
16096,-4.613626,1.963245,-5.880159,-0.034240,0.006528,-0.001332
16111,-4.544195,2.070984,-5.815516,-0.039170,0.017853,0.002798
16126,-4.572925,2.082955,-5.868188,-0.041035,0.013057,0.006129
16141,-4.639963,2.075773,-5.827487,-0.043034,0.018919,0.005729
16156,-4.714183,2.111686,-5.889736,-0.041701,0.017187,0.006928
16171,-4.611232,2.219425,-5.827487,-0.035706,0.020251,0.004397
16186,-4.570531,2.092532,-5.911284,-0.035173,0.019185,0.007727
16201,-4.678270,2.109292,-5.815516,-0.037438,0.022516,0.006129
16216,-4.747702,2.042254,-5.896919,-0.041701,0.018253,0.008127
16231,-4.594473,2.145205,-5.827487,-0.037971,0.019585,0.005196
16246,-4.546589,2.130840,-5.877765,-0.030510,0.015588,0.006662
16261,-4.654328,2.001553,-5.899313,-0.031176,0.020651,0.001199
16276,-4.721365,2.056619,-5.923255,-0.034374,0.022383,0.003730
16291,-4.604050,2.042254,-5.892130,-0.037971,0.017853,0.002265
16306,-4.520253,2.123657,-6.033388,-0.029844,0.016920,0.002665
16321,-4.644751,2.020706,-5.911284,-0.022649,0.006129,0.002265
16336,-4.673481,2.047042,-5.913678,-0.022383,0.011058,-0.000133
16351,-4.627992,2.135628,-5.892130,-0.018386,0.004130,-0.001732
16366,-4.520253,2.039860,-5.947197,-0.022783,-0.005862,-0.001466
16381,-4.623203,2.023100,-5.968745,-0.022916,0.005862,-0.005329
16396,-4.671087,1.963245,-5.781997,-0.028112,-0.010126,-0.002398
16411,-4.592079,2.078167,-5.918467,-0.024648,-0.007461,-0.000400
16426,-4.563348,2.073379,-5.899313,-0.030243,-0.007861,-0.002665
16441,-4.608838,2.090138,-5.908890,-0.034773,-0.001732,-0.003464
16456,-4.795586,2.097321,-5.954380,-0.032242,-0.000533,0.000933
16471,-4.685452,2.070984,-5.923255,-0.032508,0.017853,0.003730
16486,-4.661510,2.075773,-5.817910,-0.029577,0.018652,0.003331
16501,-4.570531,2.001553,-5.877765,-0.034507,0.017320,0.002531
16516,-4.683058,2.015918,-5.798757,-0.034773,0.020251,0.004930
16531,-4.637568,2.051831,-5.815516,-0.034507,0.017587,0.006395
16546,-4.596867,2.097321,-5.837064,-0.032775,0.016121,0.006795
16561,-4.584896,2.099715,-5.861006,-0.034773,0.020784,0.009992
16576,-4.750096,2.109292,-5.796362,-0.037971,0.015988,0.010392
16591,-4.680664,2.102109,-5.937620,-0.040369,0.019851,0.009060
16606,-4.596867,2.171541,-5.770026,-0.037838,0.017320,0.011991
16621,-4.510676,2.152387,-5.829881,-0.032775,0.021450,0.003997
16636,-4.745308,2.085350,-5.918467,-0.032908,0.020251,0.003730
16651,-4.685452,2.032677,-5.861006,-0.031043,0.012391,-0.001865
16666,-4.594473,2.051831,-5.853823,-0.028511,0.022649,0.001732
16681,-4.582502,2.104503,-5.889736,-0.026779,0.015988,0.001466
16696,-4.635174,2.063802,-5.846641,-0.023848,0.012124,-0.000133
16711,-4.678270,2.039860,-5.837064,-0.021317,0.012257,0.001332
16726,-4.589684,2.094926,-5.911284,-0.024781,0.005063,0.002132
16741,-4.525041,2.061408,-5.822699,-0.025047,-0.000666,-0.002665
16756,-4.661510,2.051831,-5.923255,-0.029311,0.008793,-0.001732
16771,-4.795586,2.020706,-5.880159,-0.027312,0.004796,-0.001998
16786,-4.642357,2.097321,-5.887342,-0.025047,0.014123,-0.000666
16801,-4.541800,2.056619,-5.911284,-0.022916,0.008793,-0.000266
16816,-4.673481,1.965640,-5.849035,-0.026380,0.010126,0.001732
16831,-4.747702,1.929726,-5.901707,-0.027446,0.014922,0.007994
16846,-4.692635,1.960851,-5.896919,-0.035306,0.007861,0.013057
16861,-4.680664,2.030283,-5.875371,-0.043833,0.024115,0.014922
16876,-4.716577,2.090138,-5.827487,-0.036372,0.011458,0.017453
16891,-4.560954,2.075773,-5.791574,-0.035173,0.019185,0.014655
16906,-4.613626,2.068590,-5.861006,-0.030910,0.021184,0.013190
16921,-4.625597,2.054225,-5.892130,-0.029577,0.015988,0.010792
16936,-4.738125,2.061408,-5.940014,-0.032242,0.018919,0.007061
16951,-4.611232,2.138022,-5.892130,-0.023449,0.007328,0.004796
16966,-4.596867,2.061408,-5.868188,-0.023715,-0.000266,0.005063
16981,-4.707000,2.047042,-5.853823,-0.027979,0.003464,0.001066
16996,-4.786009,1.984793,-5.875371,-0.027179,-0.006795,-0.000666
17011,-4.627992,2.051831,-5.880159,-0.029044,0.001466,-0.005462
17026,-4.651934,2.049437,-5.906496,-0.032908,0.007328,-0.001732
17041,-4.678270,2.123657,-5.817910,-0.031176,0.011858,-0.001066
17056,-4.781221,2.051831,-5.884948,-0.031309,0.027845,0.001332
17071,-4.637568,2.123657,-5.875371,-0.028511,0.019052,0.006129
17086,-4.577713,2.068590,-5.920861,-0.033041,0.035306,0.005462
17101,-4.613626,2.068590,-5.822699,-0.031842,0.023582,0.010925
17116,-4.692635,2.121263,-5.858612,-0.030776,0.026779,0.006129
17131,-4.675876,2.044648,-5.872977,-0.023449,0.014256,0.006928
17146,-4.558560,2.008735,-5.944803,-0.025580,0.004263,0.004263
17161,-4.654328,2.073379,-5.887342,-0.031576,0.014256,0.003864
17176,-4.747702,1.999158,-5.822699,-0.034374,0.007194,0.003464
17191,-4.695029,2.023100,-5.896919,-0.037172,0.017986,0.001998
17206,-4.651934,2.092532,-5.798757,-0.038237,0.022250,0.001732
17221,-4.558560,2.121263,-5.810728,-0.036239,0.018253,0.000400
17236,-4.723760,2.042254,-5.930438,-0.032375,0.027046,0.001998
17251,-4.723760,2.063802,-5.887342,-0.032375,0.021850,0.002931
17266,-4.525041,2.147599,-5.774815,-0.032508,0.018386,0.004263
17281,-4.604050,2.154782,-5.913678,-0.023715,0.021583,0.003864
17296,-4.637568,2.116474,-5.834670,-0.020518,0.005462,0.000933
17311,-4.663905,2.140416,-5.959168,-0.016920,0.012391,0.001066
17326,-4.529830,2.059013,-5.868188,-0.018786,-0.004397,0.001466
17341,-4.572925,2.183512,-5.985504,-0.023848,0.010525,0.001199
17356,-4.690241,2.020706,-5.923255,-0.018119,-0.016387,-0.000933
17371,-4.740520,1.975216,-5.992687,-0.020917,0.002665,-0.005329
17386,-4.759673,1.865083,-5.894525,-0.024515,0.005196,-0.005862
17401,-4.599261,1.841141,-5.750873,-0.039303,-0.002398,-0.001199
17416,-4.697423,2.082955,-5.913678,-0.032508,0.016787,-0.000266
17431,-4.805163,1.965640,-5.872977,-0.035839,0.012790,0.002398
17446,-4.606444,2.169147,-5.868188,-0.036905,0.016254,0.008926
17461,-4.582502,2.126051,-5.844246,-0.034907,0.025447,0.001732
17476,-4.709394,2.068590,-5.889736,-0.034507,0.018786,0.005995
17491,-4.692635,2.097321,-5.861006,-0.032242,0.019452,0.004796
17506,-4.620809,2.116474,-5.784391,-0.030776,0.022916,0.005063
17521,-4.587290,2.049437,-5.803545,-0.035306,0.010658,0.002132
17536,-4.623203,2.061408,-5.892130,-0.042900,0.022250,0.003997
17551,-4.735731,2.020706,-5.913678,-0.037704,0.017054,0.005862
17566,-4.568137,2.042254,-5.887342,-0.037438,0.020251,0.007594
17581,-4.575319,2.161964,-5.870583,-0.037838,0.035839,0.008127
17596,-4.630386,2.087744,-5.858612,-0.038637,0.018786,0.008926
17611,-4.623203,2.178724,-5.872977,-0.039436,0.039570,0.007461
17626,-4.623203,2.159570,-5.808333,-0.027046,0.013323,0.004130
17641,-4.532224,2.200271,-5.892130,-0.025980,0.010525,0.001865
17656,-4.656722,2.037466,-5.901707,-0.020384,0.009859,-0.001732
17671,-4.671087,2.023100,-5.872977,-0.019851,-0.007994,0.000133
17686,-4.735731,2.025495,-5.896919,-0.023049,0.009992,-0.000533
17701,-4.534618,2.118868,-5.863400,-0.013856,-0.014389,-0.009459
17716,-4.522647,2.118868,-6.016629,0.000533,-0.031176,-0.020384
17731,-4.733336,2.200271,-5.841852,-0.000400,-0.037438,-0.025314
17746,-4.714183,2.116474,-5.868188,-0.001066,-0.040902,-0.026779
17761,-4.704606,2.013524,-5.822699,-0.010525,-0.022783,-0.022250
17776,-4.687847,2.059013,-5.803545,-0.015588,-0.022383,-0.015188
17791,-4.786009,1.999158,-5.916072,-0.020917,0.009459,-0.009459
17806,-4.876989,1.980005,-5.813122,-0.023848,0.025847,0.000400
17821,-4.695029,1.989582,-5.801151,-0.039969,0.036639,0.009326
17836,-4.651934,1.996764,-5.925649,-0.046231,0.047564,0.012790
17851,-4.695029,1.975216,-5.906496,-0.045698,0.024515,0.020251
17866,-4.695029,2.030283,-5.925649,-0.047164,0.024515,0.014655
17881,-4.644751,2.001553,-5.975927,-0.052360,0.024914,0.015455
17896,-4.503493,2.140416,-5.916072,-0.048230,0.004663,0.013723
17911,-4.671087,2.068590,-5.935226,-0.037571,0.016254,0.007194
17926,-4.805163,2.109292,-5.781997,-0.027312,0.002931,0.003997
17941,-4.625597,2.087744,-5.882554,-0.024648,0.015322,0.001466
17956,-4.594473,2.047042,-5.849035,-0.024914,0.017054,0.004530
17971,-4.764462,2.025495,-5.904101,-0.029711,0.016121,0.008127
17986,-4.707000,2.037466,-5.801151,-0.033708,0.031842,0.010925
18001,-4.759673,2.221819,-5.894525,-0.031576,0.045432,0.009060
18016,-4.532224,2.073379,-5.758055,-0.027046,0.013856,0.009193
18031,-4.623203,1.987187,-5.947197,-0.031309,0.050495,-0.002265
18046,-4.865018,1.936909,-5.827487,-0.035839,0.027312,-0.003597
18061,-4.493917,1.905784,-5.899313,-0.038904,0.024248,-0.000533
18076,-4.654328,2.082955,-5.899313,-0.040636,0.013989,0.004530
18091,-4.560954,2.068590,-5.758055,-0.043300,0.002265,0.011191
18106,-4.750096,2.185906,-5.858612,-0.030910,0.012257,0.009992
18121,-4.692635,2.171541,-5.858612,-0.025314,0.005995,0.006528
18136,-4.599261,2.094926,-5.949591,-0.021583,0.010392,0.005063
18151,-4.639963,2.070984,-5.918467,-0.023982,0.025314,0.004663
18166,-4.790798,1.970428,-5.928043,-0.023182,0.007461,0.003064
18181,-4.687847,2.037466,-5.968745,-0.023449,0.008527,0.005462
18196,-4.604050,2.094926,-5.841852,-0.026247,0.009726,0.007328
18211,-4.594473,2.070984,-5.851429,-0.039570,0.007994,0.004663
18226,-4.733336,2.054225,-5.839458,-0.041168,0.016521,0.006262
18241,-4.745308,2.145205,-5.956774,-0.033441,0.008127,0.005196
18256,-4.594473,2.133234,-5.784391,-0.033841,0.005596,0.001466
18271,-4.637568,2.023100,-5.839458,-0.033974,0.016787,0.006395
18286,-4.730942,2.037466,-5.872977,-0.037704,0.013723,0.007994
18301,-4.745308,2.025495,-5.837064,-0.031842,0.014123,0.005596
18316,-4.635174,2.042254,-5.937620,-0.032642,0.019185,0.007328
18331,-4.618415,1.929726,-5.971139,-0.033175,0.021983,0.008394
18346,-4.673481,1.991976,-5.815516,-0.044632,0.016920,0.012657
18361,-4.757279,2.128445,-5.808333,-0.037438,0.023182,0.009193
18376,-4.673481,2.080561,-5.825093,-0.036106,0.019052,0.007861
18391,-4.553771,2.133234,-5.827487,-0.036639,0.021184,0.005196
18406,-4.620809,2.190695,-5.925649,-0.035573,0.018519,0.007061
18421,-4.728548,2.149993,-5.844246,-0.029311,0.007594,0.007727
18436,-4.616021,2.114080,-5.956774,-0.028378,0.015721,0.003331
18451,-4.654328,2.092532,-5.880159,-0.020784,0.016787,0.003730
18466,-4.675876,1.965640,-5.872977,-0.026646,0.013456,0.005196
18481,-4.740520,1.994370,-5.793968,-0.029577,0.026113,0.002531
18496,-4.730942,2.051831,-5.894525,-0.030910,0.014389,0.001332
18511,-4.577713,2.078167,-5.868188,-0.028778,0.022783,0.001599
18526,-4.738125,2.102109,-5.937620,-0.031176,0.027579,0.003198
18541,-4.654328,2.092532,-5.856217,-0.026513,0.010658,0.002265
18556,-4.745308,2.025495,-5.892130,-0.024648,0.024781,0.002798
18571,-4.599261,2.047042,-5.880159,-0.030243,0.012524,0.003464
18586,-4.620809,1.987187,-5.877765,-0.033175,0.009859,0.000666
18601,-4.800375,2.030283,-6.009446,-0.028378,0.007994,0.001332
18616,-4.678270,1.951274,-5.849035,-0.029711,-0.004796,0.000533
18631,-4.663905,2.123657,-5.853823,-0.039037,0.002398,0.002265
18646,-4.592079,2.118868,-5.774815,-0.032508,0.005596,0.005862
18661,-4.718971,2.149993,-5.863400,-0.027446,0.005462,0.007994
18676,-4.721365,2.188300,-5.935226,-0.024248,0.018652,0.001732
18691,-4.651934,2.116474,-5.853823,-0.020251,0.011858,0.001599
18706,-4.599261,2.003947,-5.839458,-0.022383,0.012923,0.000533
18721,-4.699818,1.920150,-5.887342,-0.025580,0.013456,-0.002132
18736,-4.680664,2.015918,-5.870583,-0.031576,0.005596,0.002265
18751,-4.577713,2.145205,-5.901707,-0.028378,0.004397,0.005329
18766,-4.620809,2.169147,-5.817910,-0.031842,0.006528,0.007461
18781,-4.697423,2.097321,-5.841852,-0.032242,0.013590,0.005729
18796,-4.733336,2.099715,-5.849035,-0.029844,0.013723,0.007461
18811,-4.616021,2.039860,-5.827487,-0.031176,0.014389,0.006262
18826,-4.647145,2.027889,-5.858612,-0.035040,0.018919,0.006928
18841,-4.644751,2.032677,-5.849035,-0.033574,0.023582,0.009726
18856,-4.747702,1.982399,-5.935226,-0.031043,0.031709,0.006928
18871,-4.616021,2.008735,-5.815516,-0.033041,0.014789,0.005729
18886,-4.570531,2.082955,-5.827487,-0.032109,0.026779,0.005462
18901,-4.735731,2.118868,-5.837064,-0.022383,0.034107,0.001332
18916,-4.714183,2.020706,-5.896919,-0.018919,0.018253,-0.002798
18931,-4.683058,1.905784,-5.944803,-0.023182,0.035440,-0.007994
18946,-4.604050,1.934515,-5.992687,-0.029844,0.012524,-0.005729
18961,-4.596867,1.975216,-5.884948,-0.038904,0.012923,-0.002265
18976,-4.786009,2.059013,-5.856217,-0.040636,0.012391,-0.001066
18991,-4.680664,2.109292,-5.865794,-0.039436,-0.003997,0.003997
19006,-4.544195,2.248155,-5.882554,-0.037038,0.016121,0.001599
19021,-4.649539,2.152387,-5.856217,-0.026247,0.005063,-0.003331
19036,-4.730942,2.042254,-5.892130,-0.026513,0.013456,-0.000400
19051,-4.771644,1.994370,-5.928043,-0.028112,0.017054,0.001865
19066,-4.563348,1.968034,-5.851429,-0.028245,0.011058,0.004663
19081,-4.625597,2.013524,-5.817910,-0.032242,0.018519,0.001599
19096,-4.740520,2.001553,-5.963956,-0.030377,0.003464,0.005063
19111,-4.723760,1.977611,-5.863400,-0.032375,0.014789,0.003864
19126,-4.627992,2.011129,-5.791574,-0.039303,0.020118,0.008260
19141,-4.594473,2.128445,-5.839458,-0.039836,0.010792,0.006662
19156,-4.695029,2.044648,-5.978322,-0.033308,0.011858,0.004530
19171,-4.671087,2.102109,-5.923255,-0.026913,0.007461,0.003597
19186,-4.584896,2.092532,-5.841852,-0.028778,0.004796,0.003597
19201,-4.673481,2.159570,-5.963956,-0.026913,0.007727,0.004530
19216,-4.738125,2.075773,-5.861006,-0.025980,0.003331,0.003198
19231,-4.735731,2.027889,-5.849035,-0.030110,0.019185,0.004397
19246,-4.704606,2.047042,-5.851429,-0.026913,0.005063,0.004796
19261,-4.596867,2.032677,-5.760449,-0.029044,0.009326,0.005063
19276,-4.718971,2.030283,-5.961562,-0.029844,0.018519,0.005329
19291,-4.762067,1.944092,-5.774815,-0.026380,0.002398,-0.003464
19306,-4.702212,1.999158,-5.923255,-0.031576,0.024648,0.000400
19321,-4.709394,1.946486,-5.870583,-0.035306,0.006928,0.004130
19336,-4.620809,1.996764,-5.882554,-0.034640,0.011458,0.004530
19351,-4.817134,2.080561,-5.856217,-0.030643,0.015322,-0.000933
19366,-4.601655,2.061408,-5.872977,-0.029844,0.003464,-0.002265
19381,-4.544195,2.073379,-5.865794,-0.033308,0.021317,0.000533
19396,-4.774038,2.121263,-5.820304,-0.032242,0.019319,-0.000666
19411,-4.680664,2.073379,-5.947197,-0.034240,0.019851,-0.001998
19426,-4.651934,2.066196,-5.839458,-0.033308,0.028378,0.004130
19441,-4.575319,2.147599,-5.791574,-0.033841,0.012923,0.002398
19456,-4.690241,2.070984,-5.844246,-0.034240,0.019851,0.000133
19471,-4.783615,2.027889,-5.894525,-0.033974,0.020917,0.000000
19486,-4.644751,2.082955,-5.825093,-0.033441,0.007061,0.001998
19501,-4.639963,2.078167,-5.935226,-0.031176,0.024515,0.002798
19516,-4.596867,2.090138,-5.777209,-0.032775,0.011458,0.004663
19531,-4.683058,2.056619,-5.796362,-0.032508,0.007594,0.006662
19546,-4.709394,2.116474,-5.880159,-0.029044,0.007861,0.011191
19561,-4.594473,2.142811,-5.858612,-0.027046,0.003064,0.009726
19576,-4.673481,2.037466,-5.856217,-0.022916,0.006129,0.009726
19591,-4.781221,1.991976,-5.884948,-0.032242,0.009459,0.008793
19606,-4.711789,2.047042,-5.827487,-0.031443,0.003597,0.010259
19621,-4.575319,2.128445,-5.779603,-0.026247,0.016254,0.007727
19636,-4.723760,2.025495,-5.844246,-0.022516,0.021983,0.000000
19651,-4.764462,1.891419,-5.904101,-0.022916,0.027712,-0.002265
19666,-4.802769,1.788469,-5.772420,-0.029311,0.025847,-0.001599
19681,-4.637568,1.900996,-5.875371,-0.044233,0.021583,0.007594
19696,-4.620809,1.982399,-5.841852,-0.048496,0.015721,0.013456
19711,-4.699818,2.138022,-5.808333,-0.045299,0.012790,0.013989
19726,-4.723760,2.229002,-5.923255,-0.036239,0.018652,0.012923
19741,-4.601655,2.217031,-5.920861,-0.028245,0.009726,0.012124
19756,-4.572925,2.219425,-5.889736,-0.031176,0.017320,0.005196
19771,-4.695029,2.080561,-5.882554,-0.024781,0.005862,0.000400
19786,-4.769250,2.013524,-5.880159,-0.027446,0.015588,-0.003198
19801,-4.740520,1.965640,-5.966351,-0.023982,0.009992,-0.001599
19816,-4.589684,1.987187,-5.779603,-0.029711,0.008926,0.001599
19831,-4.699818,2.027889,-5.829881,-0.035573,0.025047,0.005729
19846,-4.754885,2.015918,-5.789180,-0.036905,0.015721,0.005729
19861,-4.630386,2.094926,-5.899313,-0.039303,0.019185,0.008527
19876,-4.620809,2.090138,-5.906496,-0.039570,0.017986,0.005729
19891,-4.637568,2.059013,-5.834670,-0.034240,0.012257,0.006129
19906,-4.745308,2.008735,-5.861006,-0.035839,0.020784,0.007594
19921,-4.718971,2.061408,-5.832275,-0.035972,0.013456,0.006662
19936,-4.560954,2.068590,-5.829881,-0.035040,0.020251,0.004930
19951,-4.635174,2.099715,-5.839458,-0.031176,0.021850,0.000266
19966,-4.745308,2.049437,-5.803545,-0.029044,0.012524,0.005063
19981,-4.726154,2.056619,-5.832275,-0.033441,0.026513,0.005995
19996,-4.577713,2.133234,-5.846641,-0.030377,0.021317,0.005862
20011,-4.568137,2.149993,-5.832275,-0.031975,0.015588,0.004796
20026,-4.735731,2.066196,-5.849035,-0.035306,0.030110,0.008127
20041,-4.642357,2.104503,-5.951985,-0.036106,0.003730,0.007594
20056,-4.582502,2.142811,-5.872977,-0.027979,0.008394,0.006928
20071,-4.604050,2.042254,-5.906496,-0.027979,-0.002132,0.008926
20086,-4.740520,2.003947,-5.889736,-0.025447,-0.004663,0.004663
20101,-4.778827,2.075773,-5.810728,-0.023715,0.013057,0.001732
20116,-4.711789,2.037466,-5.803545,-0.022250,0.005729,0.001998
20131,-4.649539,2.087744,-5.825093,-0.024248,0.020518,0.004663
20146,-4.762067,1.956063,-5.942409,-0.027979,0.021184,0.005995
20161,-4.687847,1.977611,-5.894525,-0.033041,0.017720,0.009193
20176,-4.673481,2.135628,-5.863400,-0.032375,0.027179,0.007461
20191,-4.587290,2.039860,-5.844246,-0.027845,0.013456,0.006262
20206,-4.654328,1.999158,-5.908890,-0.034374,0.026380,0.005063
20221,-4.759673,2.090138,-5.844246,-0.035972,0.024781,0.003331
20236,-4.637568,2.027889,-5.920861,-0.030510,0.020651,0.002265
20251,-4.661510,1.980005,-5.894525,-0.031176,0.027845,0.001865
20266,-4.718971,1.908179,-5.887342,-0.037838,0.019319,0.002398
20281,-4.783615,1.956063,-5.861006,-0.043567,0.024914,0.001599
20296,-4.723760,2.023100,-5.887342,-0.040502,0.022116,0.003198
20311,-4.611232,2.085350,-5.810728,-0.040502,0.020251,0.007594
20326,-4.702212,2.049437,-5.820304,-0.041435,0.027712,0.007994
20341,-4.685452,1.991976,-5.849035,-0.041701,0.014922,0.013323
20356,-4.606444,2.197877,-5.923255,-0.041035,0.021850,0.009459
20371,-4.594473,2.133234,-5.872977,-0.033841,0.017320,0.005196
20386,-4.599261,2.092532,-5.849035,-0.035706,0.016920,0.005995
20401,-4.742914,2.061408,-5.863400,-0.037971,0.022516,0.007194
20416,-4.685452,2.066196,-5.837064,-0.039436,0.018253,0.009326
20431,-4.604050,2.123657,-5.784391,-0.040369,0.021051,0.010925
20446,-4.699818,2.118868,-5.963956,-0.034507,0.023315,0.010658
20461,-4.726154,2.075773,-5.942409,-0.029577,0.007727,0.010925
20476,-4.718971,2.102109,-5.796362,-0.027845,0.026646,0.006795
20491,-4.601655,2.121263,-5.753267,-0.025314,0.004663,0.011458
20506,-4.608838,2.070984,-5.930438,-0.029044,0.015588,0.013057
20521,-4.740520,2.047042,-5.947197,-0.040636,0.012124,0.015055
20536,-4.627992,2.207454,-5.935226,-0.036905,0.000933,0.011325
20551,-4.671087,2.099715,-5.877765,-0.037838,0.016254,0.010925
20566,-4.580108,2.051831,-5.875371,-0.045832,0.006928,0.009992
20581,-4.678270,2.037466,-5.822699,-0.044233,0.020651,0.011191
20596,-4.711789,2.090138,-5.765238,-0.037838,0.016387,0.007594
20611,-4.618415,2.049437,-5.837064,-0.034773,0.015055,0.011058
20626,-4.714183,2.082955,-5.856217,-0.029044,0.018519,0.010126
20641,-4.656722,2.097321,-5.906496,-0.022649,0.017187,0.010259
20656,-4.623203,2.063802,-5.858612,-0.022383,0.011991,0.009992
20671,-4.685452,2.020706,-5.956774,-0.028511,0.021450,0.010259
20686,-4.742914,2.082955,-5.865794,-0.041302,0.015855,0.011591
20701,-4.642357,2.133234,-5.906496,-0.038770,0.023315,0.005063
20716,-4.596867,2.128445,-5.837064,-0.039303,0.025580,0.003597
20731,-4.613626,1.982399,-5.793968,-0.040236,0.026380,0.005995
20746,-4.728548,2.094926,-5.940014,-0.037971,0.026913,0.007194
20761,-4.685452,2.087744,-5.796362,-0.039436,0.018919,0.003198
20776,-4.654328,2.087744,-5.913678,-0.034640,0.023982,0.006129
20791,-4.582502,2.090138,-5.884948,-0.032908,0.017587,0.009726
20806,-4.716577,2.063802,-5.925649,-0.031709,0.013856,0.013989
20821,-4.711789,2.106897,-5.851429,-0.029044,0.013989,0.012923
20836,-4.654328,2.142811,-5.825093,-0.028245,0.015055,0.014789
20851,-4.541800,2.142811,-5.987898,-0.029977,0.017187,0.013190
20866,-4.663905,2.217031,-5.918467,-0.028112,0.012257,0.007194
20881,-4.673481,2.178724,-5.868188,-0.010259,0.004130,0.002265
20896,-4.616021,2.118868,-5.863400,-0.013989,0.005862,-0.001066
20911,-4.587290,2.051831,-5.789180,-0.022783,-0.002132,-0.002531
20926,-4.745308,2.001553,-5.959168,-0.028645,0.014123,0.001466
20941,-4.786009,2.059013,-5.849035,-0.024115,0.000666,0.003597
20956,-4.596867,2.018312,-5.760449,-0.023182,0.009326,0.005329
20971,-4.692635,1.968034,-5.841852,-0.031709,0.016387,0.006262
20986,-4.685452,1.977611,-5.839458,-0.035972,0.008260,0.007727
21001,-4.764462,2.023100,-5.832275,-0.043700,0.029844,0.013590
21016,-4.587290,2.200271,-5.928043,-0.042634,0.029711,0.006928
21031,-4.544195,2.300828,-5.844246,-0.028112,0.029977,0.000133
21046,-4.704606,1.970428,-5.880159,-0.024914,0.035706,-0.008127
21061,-4.771644,1.824382,-5.834670,-0.032908,0.023715,-0.008926
21076,-4.675876,1.812411,-5.858612,-0.052893,0.029711,0.003997
21091,-4.560954,2.097321,-5.865794,-0.060487,0.022116,0.014922
21106,-4.556166,2.334347,-5.961562,-0.051560,0.014123,0.016654
21121,-4.651934,2.322376,-5.856217,-0.038637,0.016787,0.017587
21136,-4.577713,2.272097,-5.844246,-0.030643,0.009326,0.014789
21151,-4.577713,2.310405,-5.834670,-0.026646,0.012657,0.006262
21166,-4.651934,2.123657,-5.973533,-0.015188,0.003730,0.004263
21181,-4.740520,2.037466,-5.911284,-0.010658,0.016787,-0.001599
21196,-4.733336,1.951274,-5.880159,-0.017986,0.013190,-0.004263
21211,-4.539406,2.030283,-5.822699,-0.027046,0.006528,-0.000666
21226,-4.637568,2.066196,-5.846641,-0.035440,0.017187,0.003730
21241,-4.673481,2.197877,-5.851429,-0.035573,0.009060,0.008394
21256,-4.671087,2.169147,-5.817910,-0.032775,0.018519,0.008260
21271,-4.616021,2.171541,-5.889736,-0.035573,0.020651,0.005862
21286,-4.572925,2.082955,-5.983110,-0.031975,0.022116,0.005462
21301,-4.735731,2.061408,-5.930438,-0.036905,0.024248,0.006928
21316,-4.730942,2.027889,-5.880159,-0.038770,0.021850,0.004530
21331,-4.599261,1.982399,-5.865794,-0.034640,0.013856,0.002665
21346,-4.606444,2.039860,-5.870583,-0.039969,0.013590,0.008260
21361,-4.651934,2.018312,-5.951985,-0.041968,0.014789,0.007727
21376,-4.678270,2.157176,-5.904101,-0.039703,0.014922,0.005862
21391,-4.673481,2.135628,-5.786786,-0.037038,0.022116,0.005729
21406,-4.558560,2.147599,-5.841852,-0.038371,0.019718,0.005329
21421,-4.651934,2.073379,-5.918467,-0.037438,0.029444,0.004796
21436,-4.728548,2.068590,-5.916072,-0.039969,0.024248,0.005329
21451,-4.635174,2.123657,-5.892130,-0.043567,0.029577,0.006662
21466,-4.601655,2.138022,-5.849035,-0.041968,0.021850,0.007994
21481,-4.613626,2.188300,-5.868188,-0.038637,0.016387,0.006662
21496,-4.661510,2.178724,-5.928043,-0.032242,0.014123,0.008394
21511,-4.594473,2.200271,-5.947197,-0.027446,0.008127,0.008127
21526,-4.546589,2.054225,-5.827487,-0.027312,0.013190,0.009859
21541,-4.620809,2.140416,-5.889736,-0.027579,-0.000933,0.011191
21556,-4.687847,2.032677,-5.865794,-0.033308,0.002265,0.012923
21571,-4.556166,2.272097,-6.009446,-0.049695,0.033175,0.026513
21586,-4.690241,2.202666,-5.837064,-0.037704,0.008527,0.016920
21601,-4.625597,2.068590,-5.954380,-0.042101,-0.000799,0.010259
21616,-4.776433,2.159570,-5.973533,-0.034374,0.013723,0.008127
21631,-4.625597,2.066196,-5.846641,-0.027979,-0.006129,0.010792
21646,-4.649539,2.075773,-5.896919,-0.034773,0.021583,0.011724
21661,-4.711789,2.003947,-5.786786,-0.032508,0.017720,0.012524
21676,-4.707000,2.044648,-5.932832,-0.031576,0.021583,0.009992
21691,-4.802769,2.063802,-5.925649,-0.034240,0.025314,0.011991
21706,-4.608838,2.102109,-5.791574,-0.039436,0.025314,0.012657
21721,-4.546589,2.118868,-5.827487,-0.040369,0.029844,0.013057
21736,-4.683058,2.130840,-5.966351,-0.035839,0.028778,0.009326
21751,-4.704606,2.149993,-5.865794,-0.034107,0.022116,0.003331
21766,-4.616021,2.209848,-5.868188,-0.031576,0.026380,0.006129
21781,-4.539406,2.121263,-5.861006,-0.031975,0.020651,0.002132
21796,-4.673481,2.092532,-5.868188,-0.035040,0.027979,0.001466
21811,-4.718971,2.097321,-5.916072,-0.032242,0.019985,0.002798
21826,-4.596867,2.133234,-5.856217,-0.029044,0.024648,0.003064
21841,-4.613626,2.130840,-5.868188,-0.034907,0.019851,0.001332
21856,-4.613626,2.080561,-5.882554,-0.035839,0.018919,0.006528
21871,-4.699818,2.114080,-5.887342,-0.036239,0.029711,0.008527
21886,-4.592079,2.169147,-5.746084,-0.038237,0.017720,0.012391
21901,-4.525041,2.231396,-5.918467,-0.037172,0.030110,0.009992
21916,-4.637568,2.161964,-5.901707,-0.034773,0.020784,0.011858
21931,-4.637568,2.231396,-5.853823,-0.037838,0.017720,0.012923
21946,-4.599261,2.229002,-5.913678,-0.041568,0.019185,0.014123
21961,-4.508282,2.152387,-5.820304,-0.037838,0.013190,0.013590
21976,-4.613626,2.109292,-5.877765,-0.040636,0.016121,0.012790
21991,-4.718971,2.102109,-5.822699,-0.033441,0.008527,0.012923
22006,-4.620809,2.106897,-5.798757,-0.038904,0.008527,0.015322
22021,-4.563348,2.140416,-5.947197,-0.038371,0.014123,0.012257
22036,-4.635174,2.157176,-5.935226,-0.034240,0.007461,0.011325
22051,-4.695029,2.116474,-5.896919,-0.036505,0.017187,0.009726
22066,-4.666299,2.123657,-5.770026,-0.032375,0.014655,0.012524
22081,-4.551377,2.070984,-5.968745,-0.048896,0.019319,0.011325
22096,-4.654328,2.272097,-5.896919,-0.041835,0.027979,0.010126
22111,-4.673481,2.142811,-5.908890,-0.034240,0.006662,0.010925
22126,-4.635174,2.183512,-5.815516,-0.032109,0.021717,0.009992
22141,-4.558560,2.221819,-5.851429,-0.035040,0.018519,0.005729
22156,-4.572925,2.123657,-5.789180,-0.032908,0.011724,0.005729
22171,-4.680664,2.133234,-5.925649,-0.034507,0.020917,0.010392
22186,-4.685452,2.128445,-5.810728,-0.037571,0.016121,0.009859
22201,-4.577713,2.178724,-5.966351,-0.042501,0.027579,0.011458
22216,-4.534618,2.202666,-5.906496,-0.045165,0.021850,0.012524
22231,-4.630386,2.207454,-5.894525,-0.035839,0.021717,0.010792
22246,-4.620809,2.173935,-5.959168,-0.035440,0.018253,0.009726
22261,-4.589684,2.185906,-5.925649,-0.043567,0.018386,0.006129
22276,-4.525041,2.178724,-5.884948,-0.032775,0.008660,0.004930
22291,-4.673481,2.183512,-5.973533,-0.032642,0.011191,0.007594
22306,-4.697423,2.166753,-5.712565,-0.037571,0.010792,0.010259
22321,-4.596867,2.181118,-5.899313,-0.038237,0.016387,0.011591
22336,-4.604050,2.154782,-5.935226,-0.040769,0.014655,0.014922
22351,-4.592079,2.183512,-5.928043,-0.040769,0.020384,0.016654
22366,-4.651934,2.130840,-5.999869,-0.039436,0.015721,0.018919
22381,-4.560954,2.197877,-5.896919,-0.042368,0.016121,0.019718
22396,-4.474763,2.252944,-5.911284,-0.038237,0.022116,0.019718
22411,-4.580108,2.205060,-5.954380,-0.028511,0.013856,0.017986
22426,-4.608838,2.085350,-5.961562,-0.031043,0.013590,0.013190
22441,-4.565742,2.240973,-5.916072,-0.028511,0.015855,0.018386
22456,-4.556166,2.140416,-5.810728,-0.025580,0.010126,0.014389
22471,-4.651934,2.171541,-5.894525,-0.029444,0.019585,0.017986
22486,-4.680664,2.116474,-5.853823,-0.032109,0.013590,0.026380
22501,-4.503493,2.126051,-5.963956,-0.034374,0.026913,0.027312
22516,-4.594473,2.250550,-5.817910,-0.041035,0.028245,0.032508
22531,-4.496311,2.245761,-5.659893,-0.032242,0.009326,0.028911
22546,-4.718971,2.286463,-5.849035,-0.020784,0.035706,0.027712
22561,-4.611232,2.224213,-5.868188,-0.005462,0.009326,0.020384
22576,-4.553771,2.011129,-5.923255,-0.001599,0.034507,0.011458
22591,-4.675876,1.910573,-5.920861,-0.001332,0.032109,0.009726
22606,-4.647145,1.879448,-5.911284,-0.023049,0.024381,0.017453
22621,-4.714183,2.018312,-5.825093,-0.030643,0.032375,0.025580
22636,-4.491522,2.308010,-5.930438,-0.019718,0.020651,0.027979
22651,-4.450821,2.224213,-5.887342,-0.017054,0.023582,0.027046
22666,-4.680664,2.319981,-5.911284,-0.011058,0.023449,0.026779
22681,-4.556166,2.269703,-5.810728,-0.002132,0.010525,0.017986
22696,-4.436456,2.140416,-5.849035,-0.006795,0.037971,0.016387
22711,-4.623203,2.032677,-5.846641,-0.018652,0.033041,0.016521
22726,-4.587290,2.044648,-5.928043,-0.039436,0.023982,0.021583
22741,-4.637568,2.197877,-5.856217,-0.050628,0.037438,0.034374
22756,-4.496311,2.365471,-5.954380,-0.039170,0.019185,0.025580
22771,-4.431667,2.406173,-5.932832,-0.036772,0.031576,0.021450
22786,-4.501099,2.334347,-5.956774,-0.031576,0.028245,0.020917
22801,-4.570531,2.260126,-5.892130,-0.030110,0.023848,0.017853
22816,-4.558560,2.238579,-5.899313,-0.035306,0.031043,0.014789
22831,-4.491522,2.236184,-5.849035,-0.039436,0.023449,0.015588
22846,-4.637568,2.181118,-5.944803,-0.042900,0.028245,0.013856
22861,-4.635174,2.056619,-5.966351,-0.042767,0.033841,0.011724
22876,-4.534618,2.243367,-5.937620,-0.042501,0.021983,0.013723
22891,-4.414908,2.281674,-5.899313,-0.037305,0.019319,0.008527
22906,-4.608838,2.202666,-5.875371,-0.035173,0.025980,0.007461
22921,-4.601655,2.224213,-5.932832,-0.032508,0.026113,0.002132
22936,-4.558560,2.231396,-5.913678,-0.031443,0.013856,0.003864
22951,-4.453215,2.178724,-5.913678,-0.035040,0.021983,0.003064
22966,-4.537012,2.152387,-5.916072,-0.039303,0.019452,0.002132
22981,-4.611232,2.181118,-5.853823,-0.039969,0.020518,0.003331
22996,-4.560954,2.197877,-5.932832,-0.039436,0.021983,0.007328
23011,-4.460398,2.317587,-5.916072,-0.039303,0.020518,0.005596
23026,-4.558560,2.212242,-5.992687,-0.037172,0.015588,0.005329
23041,-4.654328,2.181118,-6.002264,-0.037438,0.011991,0.003198
23056,-4.587290,2.181118,-5.918467,-0.034773,0.001332,0.002931
23071,-4.556166,2.135628,-5.920861,-0.040769,0.017720,0.006795
23086,-4.510676,2.181118,-5.951985,-0.032642,0.012124,0.007994
23101,-4.666299,2.149993,-5.920861,-0.034240,0.016254,0.007861
23116,-4.630386,2.240973,-5.937620,-0.033308,0.010126,0.007994
23131,-4.429273,2.188300,-5.870583,-0.036106,0.009193,0.007727
23146,-4.477157,2.296039,-5.853823,-0.040502,0.023982,0.008394
23161,-4.625597,2.267309,-5.889736,-0.029178,0.005862,0.004397
23176,-4.544195,2.202666,-5.942409,-0.022649,0.015188,0.004930
23191,-4.546589,2.231396,-5.894525,-0.024648,0.013323,0.003997
23206,-4.412514,2.209848,-5.896919,-0.023049,0.001066,0.002665
23221,-4.599261,2.250550,-5.904101,-0.024648,0.016521,0.003064
23236,-4.596867,2.274492,-5.923255,-0.020917,0.004796,0.002531
23251,-4.532224,2.243367,-5.987898,-0.030776,0.014655,0.003864
23266,-4.503493,2.300828,-5.959168,-0.034374,0.022649,0.003331
23281,-4.532224,2.109292,-5.849035,-0.040103,0.021583,0.002265
23296,-4.627992,2.260126,-5.951985,-0.043966,0.027312,0.004263
23311,-4.515464,2.267309,-5.832275,-0.045032,0.024115,0.002665
23326,-4.486734,2.157176,-5.863400,-0.048896,0.023715,0.004130
23341,-4.548983,2.133234,-5.937620,-0.047564,0.029444,0.003331
23356,-4.596867,2.147599,-5.839458,-0.047697,0.023449,0.007061
23371,-4.501099,2.212242,-5.987898,-0.046364,0.024515,0.007461
23386,-4.458004,2.221819,-5.904101,-0.044766,0.023049,0.010792
23401,-4.513070,2.166753,-5.884948,-0.047297,0.020384,0.015322
23416,-4.570531,2.255338,-5.999869,-0.044766,0.018386,0.012124
23431,-4.505888,2.207454,-5.892130,-0.041568,0.023182,0.005462
23446,-4.412514,2.245761,-6.002264,-0.040502,0.022116,0.001732
23461,-4.553771,2.190695,-5.899313,-0.041968,0.021051,0.004663
23476,-4.611232,2.161964,-5.889736,-0.044499,0.021450,0.006528
23491,-4.548983,2.351106,-5.784391,-0.033974,0.035573,0.005196
23506,-4.537012,2.252944,-5.894525,-0.016787,0.011325,-0.005596
23521,-4.548983,1.948880,-5.904101,-0.014522,0.029711,-0.005729
23536,-4.697423,1.910573,-6.009446,-0.025714,0.016654,0.000400
23551,-4.587290,2.049437,-5.980716,-0.047164,0.020518,0.010658
23566,-4.462792,2.377442,-5.999869,-0.044366,0.020784,0.014522
23581,-4.400543,2.501941,-5.944803,-0.031842,0.010126,0.017320
23596,-4.513070,2.418144,-5.959168,-0.033574,0.019851,0.013057
23611,-4.551377,2.425326,-5.904101,-0.028112,0.007194,0.008660
23626,-4.493917,2.219425,-5.894525,-0.026513,0.006262,0.003597
23641,-4.450821,2.082955,-5.918467,-0.031443,0.017054,0.003464
23656,-4.666299,2.035071,-5.983110,-0.036239,0.020917,0.005063
23671,-4.558560,2.126051,-5.930438,-0.046098,0.011191,0.006795
23686,-4.446033,2.114080,-6.004658,-0.037838,0.027579,-0.000533
23701,-4.424485,2.360683,-5.894525,-0.047164,0.025980,0.005862
23716,-4.548983,2.329558,-5.942409,-0.035573,0.009459,0.008660
23731,-4.517859,2.296039,-5.920861,-0.029977,0.014123,0.003997
23746,-4.508282,2.293645,-5.889736,-0.025181,0.006129,0.002398
23761,-4.419696,2.346318,-5.956774,-0.025314,0.002931,0.006795
23776,-4.462792,2.236184,-5.968745,-0.028511,-0.002265,0.012124
23791,-4.577713,2.310405,-5.940014,-0.034107,-0.000666,0.013856
23806,-4.501099,2.305616,-5.793968,-0.034640,-0.009992,0.014123
23821,-4.498705,2.355894,-5.832275,-0.023049,0.017986,0.006129
23836,-4.553771,2.240973,-6.019023,-0.016254,0.005596,0.002265
23851,-4.568137,2.161964,-5.872977,-0.022649,0.007594,0.001466
23866,-4.572925,2.226608,-5.918467,-0.025181,0.015055,0.001199
23881,-4.460398,2.260126,-5.932832,-0.023049,0.004397,0.007994
23896,-4.546589,2.173935,-5.935226,-0.027712,0.021184,0.004130
23911,-4.671087,2.219425,-6.019023,-0.024914,0.010792,0.006262
23926,-4.510676,2.197877,-5.908890,-0.032508,0.013590,0.004263
23941,-4.477157,2.303222,-5.887342,-0.030776,0.009326,0.003331
23956,-4.498705,2.272097,-5.868188,-0.030776,0.005596,0.001732
23971,-4.606444,2.185906,-5.954380,-0.027312,0.021717,0.003864
23986,-4.582502,2.329558,-5.870583,-0.022383,0.008127,0.000666
24001,-4.496311,2.267309,-5.935226,-0.021983,0.010925,-0.004130
24016,-4.539406,2.161964,-5.932832,-0.029844,0.017054,0.001466
24031,-4.589684,2.217031,-5.980716,-0.033574,0.005329,0.000666
24046,-4.582502,2.229002,-5.916072,-0.032908,0.009060,0.000133
24061,-4.489128,2.298434,-5.856217,-0.024914,0.005462,-0.001865
24076,-4.510676,2.269703,-5.971139,-0.018386,0.007194,-0.003864
24091,-4.582502,2.109292,-5.849035,-0.023715,0.006795,0.000533
24106,-4.577713,2.121263,-5.894525,-0.023715,0.011724,0.006262
24121,-4.520253,2.250550,-5.870583,-0.025580,0.014789,0.007727
24136,-4.520253,2.161964,-5.923255,-0.023848,0.013190,0.009193
24151,-4.556166,2.118868,-5.865794,-0.028112,0.009726,0.008793
24166,-4.592079,2.238579,-5.947197,-0.034907,0.024381,0.007994
24181,-4.419696,2.324770,-5.911284,-0.030643,-0.000533,-0.000533
24196,-4.405331,2.363077,-5.899313,-0.026779,0.018919,-0.001332
24211,-4.644751,2.327164,-5.923255,-0.023049,0.009859,-0.000266
24226,-4.556166,2.190695,-5.884948,-0.025447,0.005329,-0.002265
24241,-4.558560,2.207454,-5.894525,-0.030510,0.019319,0.003997
24256,-4.436456,2.305616,-5.904101,-0.027312,0.002531,0.008793
24271,-4.616021,2.238579,-5.892130,-0.025314,0.015855,-0.000400
24286,-4.620809,2.322376,-5.899313,-0.028645,0.005063,0.005995
24301,-4.587290,2.231396,-5.877765,-0.025580,0.005862,0.007861
24316,-4.525041,2.284068,-5.899313,-0.035306,0.019052,0.006395
24331,-4.517859,2.267309,-5.920861,-0.030643,0.003730,0.005462
24346,-4.541800,2.341529,-5.894525,-0.024914,0.013057,0.001066
24361,-4.544195,2.310405,-5.968745,-0.022783,0.009326,-0.000266
24376,-4.589684,2.082955,-5.865794,-0.023049,0.007328,0.001732
24391,-4.618415,2.243367,-5.870583,-0.020384,0.007461,0.005329
24406,-4.458004,2.233790,-5.832275,-0.024781,0.014256,0.007194
24421,-4.474763,2.276886,-5.918467,-0.016254,0.024248,0.009459
24436,-4.611232,2.221819,-5.904101,-0.011858,0.019452,0.005063
24451,-4.606444,1.996764,-6.019023,-0.017587,0.018786,-0.004530
24466,-4.596867,1.924938,-5.947197,-0.030510,0.017187,-0.007061
24481,-4.608838,1.970428,-5.896919,-0.042900,0.019319,-0.009193
24496,-4.577713,2.049437,-5.904101,-0.043433,-0.000933,-0.005063
24511,-4.627992,2.274492,-5.896919,-0.044100,-0.011991,-0.004930
24526,-4.525041,2.341529,-5.839458,-0.035972,-0.012524,-0.000799
24541,-4.479551,2.446874,-5.942409,-0.021717,-0.002931,-0.001865
24556,-4.551377,2.343923,-5.822699,-0.009459,-0.015721,-0.001066
24571,-4.656722,2.212242,-5.772420,-0.006395,0.009060,-0.003730
24586,-4.599261,2.039860,-5.877765,-0.003864,0.002531,-0.001466
24601,-4.541800,2.068590,-5.992687,-0.012524,0.008260,0.000933
24616,-4.673481,2.020706,-5.935226,-0.020518,0.013989,0.007861
24631,-4.680664,2.015918,-5.880159,-0.047697,0.013856,0.013856
24646,-4.472369,2.363077,-5.975927,-0.053426,0.003997,0.008660
24661,-4.570531,2.375048,-5.779603,-0.041835,0.010658,0.002931
24676,-4.537012,2.269703,-5.899313,-0.034507,0.009459,-0.005596
24691,-4.654328,2.164358,-5.889736,-0.029444,0.023848,-0.002531
24706,-4.604050,2.190695,-5.789180,-0.027712,0.023315,0.005995
24721,-4.517859,2.202666,-5.916072,-0.030510,0.028378,0.005196
24736,-4.486734,2.272097,-5.849035,-0.019319,0.035706,0.009060
24751,-4.570531,2.164358,-5.856217,-0.009726,0.034640,0.007594
24766,-4.568137,2.262521,-5.916072,-0.011325,0.033041,0.010259
24781,-4.474763,2.240973,-5.889736,0.003997,0.007194,0.010658
24796,-4.450821,1.927332,-6.038177,-0.033175,0.015855,0.017320
24811,-4.517859,2.343923,-5.920861,-0.049296,0.009593,0.013057
24826,-4.558560,2.394202,-5.923255,-0.037172,-0.007328,-0.001066
24841,-4.515464,2.391808,-5.853823,-0.023315,0.008127,-0.002931
24856,-4.515464,2.226608,-5.861006,-0.019052,0.007861,-0.000533
24871,-4.627992,2.118868,-5.911284,-0.029977,0.016521,0.003464
24886,-4.683058,2.217031,-5.870583,-0.027046,0.023982,0.004930
24901,-4.493917,2.221819,-5.849035,-0.018786,0.015855,0.003597
24916,-4.493917,2.197877,-6.071695,-0.019585,0.027845,0.003198
24931,-4.599261,2.130840,-5.983110,-0.021317,0.017453,0.007461
24946,-4.575319,2.097321,-5.846641,-0.022516,0.016254,0.007861
24961,-4.501099,2.197877,-5.937620,-0.033574,0.027046,0.011591
24976,-4.426879,2.255338,-5.930438,-0.044899,0.011191,0.005729
24991,-4.484340,2.319981,-5.887342,-0.043300,0.017453,0.000533
25006,-4.642357,2.281674,-5.973533,-0.035573,0.010259,-0.002665
25021,-4.462792,2.291251,-5.820304,-0.028778,0.001066,-0.002398
25036,-4.537012,2.200271,-5.863400,-0.023182,0.014123,0.000266
25051,-4.544195,2.231396,-5.978322,-0.023182,0.000133,0.002132
25066,-4.587290,2.130840,-5.786786,-0.017453,0.015322,0.003597
25081,-4.570531,2.209848,-5.892130,-0.017187,0.010925,0.004397
25096,-4.575319,2.152387,-5.834670,-0.012524,0.008527,0.002531
25111,-4.661510,1.980005,-5.846641,-0.013989,0.023049,0.003730
25126,-4.718971,1.932121,-5.889736,-0.020917,0.020651,0.007061
25141,-4.608838,1.975216,-5.923255,-0.037438,0.033574,0.015055
25156,-4.410120,2.171541,-5.935226,-0.063018,0.031443,0.021583
25171,-4.431667,2.432509,-6.016629,-0.065150,0.034507,0.016787
25186,-4.560954,2.497152,-5.887342,-0.049429,0.013723,0.012923
25201,-4.477157,2.509123,-5.846641,-0.030510,0.016387,0.005329
25216,-4.453215,2.355894,-5.930438,-0.010792,0.008660,-0.000400
25231,-4.443638,2.183512,-6.054936,-0.006795,0.006928,-0.006129
25246,-4.666299,1.989582,-6.054936,-0.002265,0.003864,-0.006795
25261,-4.675876,2.013524,-5.954380,-0.002931,0.000533,-0.005995
25276,-4.577713,2.030283,-5.930438,-0.005862,-0.000933,0.000266
25291,-4.553771,1.965640,-5.920861,-0.009992,0.001599,0.002665
25306,-4.718971,1.987187,-5.942409,-0.012124,0.002931,0.005995
25321,-4.572925,1.963245,-5.904101,-0.027312,0.013590,0.010392
25336,-4.532224,2.135628,-5.923255,-0.043167,0.014123,0.006928
25351,-4.539406,2.217031,-5.904101,-0.041968,-0.000666,0.002265
25366,-4.623203,2.161964,-5.868188,-0.041302,0.016787,-0.006662
25381,-4.647145,2.190695,-5.925649,-0.038504,0.005862,-0.008926
25396,-4.580108,2.142811,-5.839458,-0.035706,0.022116,-0.006928
25411,-4.577713,2.169147,-5.858612,-0.032642,0.022250,-0.005995
25426,-4.608838,2.149993,-5.851429,-0.033175,0.029444,-0.002531
25441,-4.616021,2.135628,-5.911284,-0.033308,0.023715,0.003198
25456,-4.441244,2.269703,-5.896919,-0.029844,0.023315,0.009992
25471,-4.431667,2.315193,-5.882554,-0.021583,0.017453,0.009459
25486,-4.541800,2.224213,-5.872977,-0.021317,0.012257,0.014123
25501,-4.606444,2.217031,-5.932832,-0.032642,0.022783,0.011058
25516,-4.489128,2.360683,-5.872977,-0.038637,0.016787,0.001865
25531,-4.486734,2.284068,-5.973533,-0.029711,0.006395,-0.006528
25546,-4.548983,2.078167,-6.019023,-0.026646,0.007994,-0.013856
25561,-4.723760,2.080561,-5.844246,-0.026513,0.013190,-0.010259
25576,-4.606444,2.073379,-5.798757,-0.035173,0.007727,-0.002931
25591,-4.546589,2.159570,-5.911284,-0.036106,0.019452,0.003864
25606,-4.546589,2.272097,-5.928043,-0.028378,0.007328,0.009459
25621,-4.560954,2.264915,-5.827487,-0.021184,0.019052,0.012124
25636,-4.575319,2.300828,-5.875371,-0.013057,0.010658,0.009326
25651,-4.455609,2.260126,-5.896919,-0.012391,0.012124,0.011325
25666,-4.589684,2.114080,-5.944803,-0.013989,0.016387,0.011325
25681,-4.635174,2.109292,-5.999869,-0.024781,0.016787,0.012657
25696,-4.596867,2.123657,-5.918467,-0.033974,0.012923,0.010925
25711,-4.462792,2.274492,-5.911284,-0.034507,0.020917,0.006129
25726,-4.599261,2.169147,-5.899313,-0.036106,0.031309,0.001599
25741,-4.654328,2.138022,-5.872977,-0.034773,0.022783,-0.001732
25756,-4.596867,2.061408,-5.966351,-0.032508,0.041435,-0.004263
25771,-4.560954,2.001553,-5.987898,-0.040369,0.029577,-0.002798
25786,-4.501099,2.042254,-5.973533,-0.043966,0.039570,-0.003198
25801,-4.699818,2.015918,-5.863400,-0.052360,0.032642,0.003464
25816,-4.498705,2.252944,-5.959168,-0.054358,0.025847,0.009326
25831,-4.450821,2.389413,-5.918467,-0.042101,0.030910,0.007594
25846,-4.474763,2.300828,-5.947197,-0.031842,0.020384,0.006795
25861,-4.520253,2.149993,-5.904101,-0.028645,0.027179,0.001998
25876,-4.601655,2.140416,-5.916072,-0.024781,0.010392,0.002132
25891,-4.534618,2.123657,-5.901707,-0.034640,0.014389,0.004663
25906,-4.453215,2.171541,-5.904101,-0.036106,0.014389,0.003331
25921,-4.560954,2.109292,-5.937620,-0.039436,0.012257,0.004663
25936,-4.616021,2.255338,-5.963956,-0.037305,0.023315,0.008127
25951,-4.493917,2.267309,-5.901707,-0.033708,-0.012391,0.009726
25966,-4.436456,2.219425,-5.923255,-0.036106,0.015322,0.005995
25981,-4.611232,2.193089,-5.997475,-0.026513,-0.009459,0.000799
25996,-4.520253,2.135628,-5.837064,-0.026513,-0.009326,0.001732
26011,-4.651934,2.195483,-5.896919,-0.020917,0.006395,0.000666
26026,-4.489128,2.193089,-5.880159,-0.019452,-0.016920,0.001865
26041,-4.639963,2.185906,-5.774815,-0.019319,0.015721,0.003597
26056,-4.661510,2.128445,-5.870583,-0.011858,0.011458,0.009992
26071,-4.537012,2.212242,-5.880159,-0.010525,0.012923,0.009726
26086,-4.458004,2.149993,-5.908890,-0.009726,0.015322,0.011191
26101,-4.582502,2.073379,-5.901707,-0.011724,0.015188,0.016920
26116,-4.599261,2.049437,-5.971139,-0.023982,0.023049,0.014655
26131,-4.594473,2.123657,-5.954380,-0.042501,0.027579,0.014123
26146,-4.434062,2.070984,-6.071695,-0.021850,0.008660,0.016121
26161,-4.510676,2.209848,-5.758055,-0.037838,0.032775,0.003997
26176,-4.637568,2.123657,-5.880159,-0.036106,0.022250,0.002265
26191,-4.582502,2.066196,-5.841852,-0.042368,0.024381,0.003730
26206,-4.496311,2.233790,-5.849035,-0.043833,0.034640,0.006262
26221,-4.529830,2.262521,-5.992687,-0.036106,0.023315,0.003064
26236,-4.627992,2.123657,-5.901707,-0.042101,0.031176,0.001732
26251,-4.625597,2.178724,-5.815516,-0.034773,0.021717,0.001466
26266,-4.493917,2.197877,-5.872977,-0.045698,0.035573,0.001066
26281,-4.510676,2.164358,-5.894525,-0.033441,0.020784,-0.002798
26296,-4.618415,2.080561,-5.954380,-0.033708,0.024781,-0.002398
26311,-4.565742,2.087744,-6.004658,-0.038371,0.019985,-0.000133
26326,-4.460398,2.173935,-5.930438,-0.037305,0.012124,0.003464
26341,-4.441244,2.173935,-5.817910,-0.040502,0.017720,0.002398
26356,-4.627992,2.161964,-5.961562,-0.039170,0.023182,0.001199
26371,-4.501099,2.188300,-5.908890,-0.030776,0.005729,-0.000933
26386,-4.505888,2.121263,-5.872977,-0.032775,0.015188,0.001865
26401,-4.520253,2.214637,-5.839458,-0.028511,0.005995,0.000799
26416,-4.529830,2.138022,-5.827487,-0.029178,0.013856,0.003864
26431,-4.616021,2.181118,-5.932832,-0.024515,0.013989,0.005063
26446,-4.517859,2.217031,-5.827487,-0.019185,0.005862,0.008793
26461,-4.407725,2.200271,-5.937620,-0.021450,0.015721,0.007328
26476,-4.570531,2.169147,-5.916072,-0.019985,0.009593,0.011058
26491,-4.560954,2.130840,-5.928043,-0.019985,0.006928,0.013590
26506,-4.477157,2.209848,-5.894525,-0.025047,0.003997,0.013456
26521,-4.515464,2.205060,-6.045359,-0.025047,0.006528,0.015721
26536,-4.577713,2.169147,-5.884948,-0.024648,0.011591,0.014123
26551,-4.592079,2.152387,-5.889736,-0.026513,0.012257,0.015455
26566,-4.472369,2.142811,-5.889736,-0.030110,0.009726,0.008793
26581,-4.515464,2.102109,-5.980716,-0.031975,0.018786,0.002132
26596,-4.529830,2.082955,-5.896919,-0.032775,0.010525,-0.003597
26611,-4.659116,2.075773,-5.951985,-0.031043,0.025714,-0.004263
26626,-4.587290,2.183512,-5.911284,-0.026913,0.005462,-0.005196
26641,-4.493917,2.118868,-5.980716,-0.028778,0.021317,-0.007061
26656,-4.560954,2.138022,-5.863400,-0.028245,0.013323,0.000666
26671,-4.587290,2.171541,-5.858612,-0.035040,0.017054,-0.001599
26686,-4.537012,2.221819,-5.949591,-0.035440,0.018786,-0.003331
26701,-4.407725,2.312799,-5.916072,-0.032508,-0.003997,-0.003864
26716,-4.400543,2.284068,-5.817910,-0.028245,0.002398,-0.002798
26731,-4.601655,2.327164,-5.978322,-0.028245,0.014389,-0.003464
26746,-4.565742,2.312799,-5.951985,-0.013723,-0.004930,-0.006928
26761,-4.560954,2.181118,-5.906496,-0.008394,0.012657,-0.015055
26776,-4.592079,2.075773,-5.872977,-0.006662,0.014789,-0.023049
26791,-4.620809,1.874660,-5.887342,-0.016920,0.016254,-0.016521
26806,-4.642357,1.920150,-5.875371,-0.033841,0.033441,-0.005862
26821,-4.544195,2.128445,-5.942409,-0.043433,0.020917,0.001066
26836,-4.414908,2.264915,-5.923255,-0.034907,0.017853,0.002665
26851,-4.570531,2.310405,-5.971139,-0.024248,0.015455,-0.001332
26866,-4.594473,2.339135,-5.877765,-0.009326,0.004530,-0.006928
26881,-4.498705,2.205060,-5.870583,-0.007727,0.001199,-0.011858
26896,-4.534618,2.166753,-5.935226,-0.020251,0.001998,-0.014522
26911,-4.575319,1.982399,-5.911284,-0.026779,0.001199,-0.012124
26926,-4.656722,2.039860,-5.872977,-0.036505,0.018919,-0.008926
26941,-4.520253,2.116474,-5.954380,-0.039303,0.008394,-0.008660
26956,-4.520253,2.171541,-5.911284,-0.034773,0.021583,-0.009859
26971,-4.587290,2.066196,-5.961562,-0.036505,0.016254,-0.008660
26986,-4.616021,2.039860,-5.820304,-0.044100,0.022516,-0.002798
27001,-4.580108,2.221819,-5.992687,-0.045965,0.021450,0.001865
27016,-4.489128,2.233790,-5.940014,-0.040902,0.013057,0.007194
27031,-4.484340,2.233790,-5.889736,-0.032775,0.014922,0.006129
27046,-4.613626,2.212242,-5.868188,-0.031043,0.014123,0.005995
27061,-4.541800,2.195483,-5.844246,-0.025580,0.013323,0.003730
27076,-4.520253,2.092532,-5.959168,-0.029178,0.019319,0.000933
27091,-4.527435,2.061408,-5.892130,-0.033175,0.017720,0.000133
27106,-4.616021,2.047042,-5.856217,-0.037838,0.023449,0.001199
27121,-4.580108,2.181118,-5.987898,-0.040103,0.013456,0.004796
27136,-4.529830,2.087744,-5.825093,-0.041835,0.016121,0.005995
27151,-4.529830,2.099715,-5.928043,-0.037172,0.018652,0.008926
27166,-4.632780,2.082955,-5.858612,-0.036239,0.013190,0.006795
27181,-4.632780,2.147599,-5.935226,-0.033574,0.024515,0.006928
27196,-4.539406,2.185906,-5.894525,-0.028245,0.014922,0.000400
27211,-4.505888,2.142811,-5.911284,-0.029444,0.025980,0.003864
27226,-4.601655,2.106897,-5.985504,-0.029444,0.015188,0.003864
27241,-4.630386,2.176329,-5.887342,-0.026113,0.009193,0.006528
27256,-4.472369,2.209848,-5.882554,-0.022916,0.012524,0.002798
27271,-4.501099,2.171541,-5.923255,-0.023582,0.010259,0.007328
27286,-4.563348,2.171541,-5.858612,-0.027712,0.022516,0.006662
27301,-4.759673,2.111686,-5.858612,-0.027845,0.017587,0.004130
27316,-4.472369,2.080561,-5.916072,-0.030776,0.014789,0.002798
27331,-4.525041,2.109292,-5.980716,-0.036505,0.029178,-0.000933
27346,-4.623203,2.013524,-5.892130,-0.040769,0.013856,0.001332
27361,-4.675876,2.106897,-6.047753,-0.040369,0.027179,0.000933
27376,-4.496311,2.161964,-5.880159,-0.037571,0.015988,-0.002132
27391,-4.412514,2.212242,-5.973533,-0.039703,0.018386,-0.000799
27406,-4.496311,2.272097,-5.896919,-0.037438,0.016654,-0.001199
27421,-4.592079,2.183512,-6.009446,-0.028778,0.003331,-0.003331
27436,-4.481946,2.224213,-5.904101,-0.026380,0.007328,-0.000933
27451,-4.498705,2.159570,-5.928043,-0.021983,0.008394,-0.002665
27466,-4.582502,2.094926,-5.884948,-0.028511,-0.001732,-0.002665
27481,-4.661510,2.157176,-5.928043,-0.033175,0.003730,-0.006795
27496,-4.510676,2.152387,-5.930438,-0.030510,-0.005329,-0.001466
27511,-4.460398,2.221819,-5.918467,-0.029977,0.000799,0.003198
27526,-4.592079,2.200271,-5.940014,-0.024381,0.009726,0.005329
27541,-4.639963,2.121263,-5.973533,-0.024648,-0.004796,0.006528
27556,-4.491522,2.169147,-5.837064,-0.025980,0.014389,0.003597
27571,-4.623203,2.176329,-5.966351,-0.026779,0.006928,0.005596
27586,-4.493917,2.128445,-5.753267,-0.025181,-0.004263,0.003198
27601,-4.592079,2.149993,-5.954380,-0.023049,0.023582,0.001199
27616,-4.644751,2.116474,-6.019023,-0.017187,0.002665,-0.000533
27631,-4.462792,2.049437,-5.793968,-0.022916,0.017986,0.001599
27646,-4.627992,2.037466,-5.961562,-0.038504,0.021850,0.006129
27661,-4.577713,2.111686,-5.935226,-0.042368,0.013190,0.005063
27676,-4.558560,2.161964,-5.810728,-0.041168,0.028245,0.004263
27691,-4.515464,2.097321,-5.951985,-0.032242,0.022916,0.003597
27706,-4.503493,2.037466,-5.916072,-0.036106,0.031975,-0.000533
27721,-4.656722,1.915361,-5.805939,-0.041302,0.029044,-0.006662
27736,-4.750096,2.001553,-5.925649,-0.049962,0.037838,-0.008660
27751,-4.503493,2.051831,-5.872977,-0.050761,0.026913,-0.007994
27766,-4.496311,2.126051,-5.928043,-0.049828,0.034773,0.002398
27781,-4.582502,2.238579,-5.923255,-0.052360,0.023449,0.004796
27796,-4.558560,2.276886,-5.947197,-0.043700,0.025447,0.004397
27811,-4.529830,2.382231,-5.762844,-0.028511,0.018786,0.005462
27826,-4.458004,2.272097,-5.935226,-0.025847,0.024648,0.007061
27841,-4.637568,2.164358,-5.906496,-0.028245,0.019851,0.004530
27856,-4.587290,2.102109,-5.956774,-0.025181,0.031176,0.000000
27871,-4.671087,2.070984,-5.959168,-0.026779,0.023715,-0.002931
27886,-4.462792,1.999158,-5.861006,-0.037305,0.024515,0.003864
27901,-4.616021,2.090138,-5.942409,-0.044632,0.024914,0.005329
27916,-4.599261,2.185906,-5.959168,-0.035440,0.014655,0.006395
27931,-4.522647,2.233790,-5.896919,-0.031842,0.022649,0.005329
27946,-4.474763,2.240973,-5.911284,-0.026513,0.005596,0.008793
27961,-4.560954,2.161964,-5.963956,-0.026513,0.013856,0.010525
27976,-4.601655,2.185906,-5.841852,-0.031043,0.004796,0.010525
27991,-4.575319,2.260126,-5.954380,-0.028511,0.001066,0.011458
28006,-4.462792,2.152387,-5.932832,-0.025980,0.005329,0.011458
28021,-4.534618,2.224213,-5.942409,-0.022250,0.007194,0.007461
28036,-4.627992,2.178724,-5.980716,-0.016787,0.003597,0.007861
28051,-4.594473,2.128445,-5.987898,-0.023449,0.009060,0.004530
28066,-4.522647,2.161964,-5.901707,-0.030377,0.012524,0.008260
28081,-4.661510,2.138022,-5.889736,-0.022649,0.010392,0.002132
28096,-4.606444,2.020706,-5.992687,-0.029178,0.013323,0.004263
28111,-4.446033,2.097321,-5.827487,-0.036106,0.020251,0.002931
28126,-4.575319,2.094926,-5.913678,-0.033841,0.009726,0.002265
28141,-4.572925,2.106897,-5.856217,-0.030377,0.013456,-0.000666
28156,-4.525041,2.087744,-5.959168,-0.031709,0.020118,-0.000400
28171,-4.496311,2.116474,-5.968745,-0.033708,0.009459,0.002265
28186,-4.596867,2.164358,-5.983110,-0.031176,0.007727,-0.001599
28201,-4.639963,2.118868,-5.920861,-0.029044,0.003997,0.001199
28216,-4.508282,2.221819,-5.887342,-0.023848,-0.000533,0.001199
28231,-4.517859,2.260126,-5.899313,-0.027046,0.012391,0.005995
28246,-4.558560,2.272097,-5.868188,-0.030910,0.018786,0.011591
28261,-4.642357,2.248155,-5.813122,-0.019185,0.024781,-0.000266
28276,-4.627992,2.092532,-5.935226,-0.003198,0.033708,-0.016254
28291,-4.556166,1.843535,-5.813122,-0.005063,0.034907,-0.026779
28306,-4.508282,1.692701,-5.963956,-0.026779,0.036505,-0.015988
28321,-4.630386,1.939303,-5.978322,-0.046098,0.019585,0.000933
28336,-4.469975,2.238579,-5.908890,-0.039969,0.001199,0.009859
28351,-4.458004,2.293645,-5.877765,-0.029711,-0.001466,0.009992
28366,-4.481946,2.255338,-5.858612,-0.021184,-0.002931,0.008926
28381,-4.627992,2.154782,-5.930438,-0.023582,0.007727,0.005462
28396,-4.584896,2.142811,-5.925649,-0.025047,0.007861,0.005729
28411,-4.522647,2.090138,-5.966351,-0.031576,0.022783,0.010658
28426,-4.520253,2.025495,-5.844246,-0.038371,0.014789,0.012391
28441,-4.697423,2.097321,-5.849035,-0.041701,0.027446,0.009593
28456,-4.620809,2.224213,-5.999869,-0.032242,0.018652,0.004663
28471,-4.515464,2.142811,-5.853823,-0.028778,0.027046,0.002531
28486,-4.513070,2.082955,-5.966351,-0.032908,0.019985,0.001998
28501,-4.546589,2.087744,-5.832275,-0.042501,0.023182,0.007328
28516,-4.616021,2.205060,-5.884948,-0.038104,0.017720,0.007727
28531,-4.467580,2.229002,-5.935226,-0.034240,0.018919,0.007594
28546,-4.496311,2.214637,-5.932832,-0.026913,0.020251,0.005862
28561,-4.594473,2.104503,-5.913678,-0.029311,0.011458,0.006129
28576,-4.649539,2.111686,-5.978322,-0.030110,0.020384,0.002398
28591,-4.553771,2.176329,-5.870583,-0.025314,0.013590,0.000666
28606,-4.450821,2.059013,-5.887342,-0.030910,0.015455,0.003864
28621,-4.587290,2.082955,-5.899313,-0.040502,0.019718,0.005995
28636,-4.529830,2.181118,-5.987898,-0.036505,0.014123,0.005995
28651,-4.568137,2.217031,-5.923255,-0.036505,0.025181,0.008527
