T,AX,AY,AZ,GX,GY,GZ
46,-4.402937,1.290475,-6.196194,-0.038237,-0.000133,0.003730
61,-4.537012,1.343147,-6.143521,-0.031309,0.006528,0.001066
76,-4.481946,1.249773,-6.212953,-0.025714,0.010925,0.001332
91,-4.374207,1.335965,-6.284780,-0.021051,0.012391,0.002132
106,-4.345476,1.233014,-6.150704,-0.019319,0.013323,0.002531
121,-4.491522,1.240196,-6.220136,-0.021583,0.019185,0.003864
136,-4.469975,1.307234,-6.220136,-0.021717,0.009193,0.009060
151,-4.338294,1.350330,-6.222530,-0.019452,0.017320,0.003064
166,-4.381389,1.290475,-6.121974,-0.019452,0.006129,0.005729
181,-4.443638,1.268927,-6.167463,-0.025714,0.022250,0.005862
196,-4.493917,1.216254,-6.198588,-0.029577,0.011058,0.005729
211,-4.398149,1.359907,-6.258443,-0.030643,0.012391,-0.000266
226,-4.448427,1.252167,-6.200982,-0.032109,0.009992,0.002132
241,-4.479551,1.374272,-6.236896,-0.028112,0.012657,-0.000266
256,-4.544195,1.261744,-6.198588,-0.024248,0.017054,-0.003331
271,-4.319140,1.185130,-6.169858,-0.025447,0.022383,-0.001732
286,-4.343082,1.206678,-6.169858,-0.027179,0.027446,0.006129
301,-4.398149,1.189918,-6.268020,-0.027579,0.022383,0.002132
316,-4.532224,1.223437,-6.251261,-0.027845,0.021184,0.004263
331,-4.376601,1.264138,-6.265626,-0.032642,0.014522,0.005462
346,-4.340688,1.333570,-6.155492,-0.030110,0.021850,0.000400
361,-4.424485,1.194707,-6.186617,-0.028245,0.013723,0.006662
376,-4.496311,1.170765,-6.220136,-0.031842,0.012657,0.006129
391,-4.398149,1.264138,-6.167463,-0.029977,0.012657,0.007461
406,-4.335899,1.288080,-6.165069,-0.034907,0.007328,0.007328
421,-4.362236,1.237802,-6.265626,-0.038770,0.006528,0.008260
436,-4.525041,1.300051,-6.093243,-0.043300,0.014522,0.009459
451,-4.417302,1.345541,-6.232107,-0.037172,0.005196,0.003997
466,-4.381389,1.280898,-6.179434,-0.041302,0.012657,0.007727
481,-4.350265,1.314417,-6.215347,-0.041035,0.006395,0.007461
496,-4.486734,1.316811,-6.244078,-0.041435,0.011458,0.002265
511,-4.493917,1.424550,-6.186617,-0.033308,0.003331,0.001199
526,-4.362236,1.355118,-6.248867,-0.034773,0.013856,-0.005063
541,-4.378995,1.273715,-6.227318,-0.030910,0.014123,-0.003730
556,-4.472369,1.192312,-6.181828,-0.032109,0.014123,-0.005995
571,-4.448427,1.225831,-6.148310,-0.035040,0.009459,-0.000533
586,-4.388572,1.300051,-6.167463,-0.034773,0.010925,0.001332
601,-4.374207,1.230620,-6.186617,-0.037438,0.005862,0.005329
616,-4.467580,1.261744,-6.181828,-0.041701,0.005995,0.004796
631,-4.501099,1.383849,-6.241684,-0.039037,0.009992,0.008394
646,-4.393360,1.333570,-6.107608,-0.038237,0.003064,0.009326
661,-4.254497,1.319205,-6.184223,-0.035706,0.007727,0.007861
676,-4.450821,1.381454,-6.227318,-0.034773,-0.001732,0.005063
691,-4.505888,1.283292,-6.251261,-0.027046,0.000933,0.006928
706,-4.455609,1.230620,-6.251261,-0.026513,0.007328,0.007994
721,-4.402937,1.323994,-6.256049,-0.034907,0.007461,0.011991
736,-4.496311,1.323994,-6.181828,-0.023582,-0.006928,0.011325
751,-4.534618,1.213860,-6.217741,-0.020784,0.011058,0.010259
766,-4.453215,1.235408,-6.155492,-0.024914,0.011724,0.011458
781,-4.347870,1.431733,-6.114791,-0.024248,0.011458,0.009060
796,-4.474763,1.455675,-6.311116,-0.016787,0.008660,0.005329
811,-4.486734,1.314417,-6.193799,-0.000799,0.011325,0.004130
826,-4.398149,1.185130,-6.191405,-0.004397,0.018652,0.006662
841,-4.371812,1.223437,-6.239290,-0.011458,0.009193,0.007194
856,-4.505888,1.271321,-6.193799,-0.015988,0.020251,0.002798
871,-4.541800,1.187524,-6.181828,-0.016787,0.005995,0.002798
886,-4.469975,1.323994,-6.141127,-0.014256,0.022250,0.000400
901,-4.453215,1.261744,-6.184223,-0.007861,0.017187,-0.002665
916,-4.326323,1.472434,-6.533776,0.078606,0.030910,-0.029444
931,-4.647145,1.017536,-6.014235,0.005596,0.055025,-0.013590
946,-4.443638,1.247379,-6.131550,-0.023315,0.012923,0.001466
961,-4.378995,1.273715,-6.119579,-0.025980,0.050361,0.000533
976,-4.328717,1.328782,-6.121974,-0.024115,0.033441,0.003331
991,-4.434062,1.312023,-6.150704,-0.025047,0.037838,0.004530
1006,-4.479551,1.283292,-6.220136,-0.026247,0.034374,0.003464
1021,-4.323928,1.261744,-6.162675,-0.020118,0.026646,0.001732
1036,-4.513070,1.201889,-6.241684,-0.020651,0.028112,-0.001332
1051,-4.410120,1.070208,-6.205770,-0.020518,0.027179,0.000666
1066,-4.491522,1.165976,-6.155492,-0.028511,0.027179,0.001865
1081,-4.345476,1.347936,-6.224924,-0.029844,0.016121,0.007861
1096,-4.362236,1.379060,-6.215347,-0.027712,0.021317,0.003730
1111,-4.350265,1.323994,-6.212953,-0.027312,0.018119,0.005063
1126,-4.402937,1.376666,-6.222530,-0.033708,0.026646,0.005862
1141,-4.412514,1.359907,-6.169858,-0.029178,0.023982,0.002132
1156,-4.304775,1.273715,-6.234501,-0.030243,0.016121,0.002398
1171,-4.460398,1.177947,-6.189011,-0.025714,0.021051,0.000666
1186,-4.474763,1.144428,-6.277597,-0.025314,0.017720,0.005462
1201,-4.414908,1.113304,-6.153098,-0.031309,0.022383,0.004263
1216,-4.376601,1.221043,-6.258443,-0.034640,0.011724,0.011325
1231,-4.438850,1.192312,-6.282385,-0.036372,0.017720,0.009193
1246,-4.443638,1.264138,-6.236896,-0.033441,0.003331,0.011591
1261,-4.371812,1.235408,-6.119579,-0.037571,0.006395,0.008793
1276,-4.345476,1.285686,-6.236896,-0.036239,0.002531,0.010792
1291,-4.352659,1.244985,-6.275203,-0.036639,0.002265,0.011325
1306,-4.467580,1.283292,-6.186617,-0.039170,0.003997,0.013590
1321,-4.489128,1.307234,-6.270414,-0.031842,0.006395,0.011724
1336,-4.371812,1.357512,-6.236896,-0.021051,-0.013723,0.017054
1351,-4.453215,1.221043,-6.241684,-0.028645,0.015322,0.006662
1366,-4.503493,1.280898,-6.236896,-0.030110,0.006262,0.005729
1381,-4.474763,1.266533,-6.148310,-0.033175,0.015455,0.002265
1396,-4.429273,1.264138,-6.150704,-0.033574,0.013057,0.003997
1411,-4.407725,1.314417,-6.177040,-0.031975,0.015455,0.001599
1426,-4.489128,1.177947,-6.227318,-0.029044,0.010658,-0.002798
1441,-4.484340,1.240196,-6.165069,-0.030643,0.014256,0.000933
1456,-4.364630,1.223437,-6.102820,-0.026513,0.006662,-0.001466
1471,-4.347870,1.321599,-6.148310,-0.041701,0.038904,-0.004530
1486,-4.690241,1.194707,-6.449979,-0.016920,-0.030776,-0.000400
1501,-4.101267,1.307234,-5.535394,-0.031842,0.042900,-0.003464
1516,-5.027823,1.407791,-6.940791,-0.020917,0.016521,-0.008527
1531,-3.689465,1.098939,-5.540183,0.007461,-0.026513,0.001998
1546,-5.030218,1.252167,-6.411672,-0.069946,0.116711,0.004796
1561,-4.314352,1.027112,-6.409278,-0.015455,-0.088199,-0.001199
1576,-4.244920,1.367089,-5.916072,-0.030243,0.111248,-0.006662
1591,-4.644751,1.338359,-6.718130,-0.007861,-0.034107,-0.001732
1606,-4.127604,1.244985,-5.875371,-0.010126,0.027046,-0.004930
1621,-4.788404,1.223437,-6.337452,-0.021717,0.038637,-0.003864
1636,-4.151546,1.204283,-6.138733,-0.011458,-0.015855,0.000133
1651,-4.359841,1.252167,-6.279991,-0.020118,0.056890,0.006928
1666,-4.390966,1.283292,-6.260838,-0.025314,-0.019851,0.014256
1681,-4.378995,1.338359,-6.052542,-0.025980,0.022383,0.006662
1696,-4.668693,1.376666,-6.189011,-0.023982,0.018253,0.001199
1711,-4.338294,1.290475,-6.229712,-0.013057,0.005329,0.002531
1726,-4.338294,1.091756,-6.236896,-0.018253,0.030643,0.003997
1741,-4.486734,1.125275,-6.258443,-0.031176,0.000933,0.000133
1756,-4.534618,1.189918,-6.086061,-0.033708,0.015721,-0.001599
1771,-4.503493,1.247379,-6.179434,-0.027579,0.011191,-0.004263
1786,-4.429273,1.149217,-6.179434,-0.030643,0.018919,0.001732
1801,-4.477157,1.130063,-6.088455,-0.031443,0.031443,0.004530
1816,-4.386178,1.170765,-6.270414,-0.035440,0.022783,0.008793
1831,-4.328717,1.228225,-6.191405,-0.032908,0.008394,0.009326
1846,-4.407725,1.213860,-6.121974,-0.032642,0.024781,0.012124
1861,-4.436456,1.110910,-6.136339,-0.039436,0.007861,0.016920
1876,-4.429273,1.244985,-6.234501,-0.045299,0.018519,0.015322
1891,-4.333505,1.295263,-6.256049,-0.043833,0.011991,0.011058
1906,-4.398149,1.316811,-6.205770,-0.043700,0.001466,0.009593
1921,-4.453215,1.218649,-6.129156,-0.046364,0.008527,0.012524
1936,-4.537012,1.213860,-6.189011,-0.050361,0.009593,0.008527
1951,-4.395754,1.410185,-6.208165,-0.046098,0.013456,0.008527
1966,-4.311957,1.295263,-6.227318,-0.041968,0.013456,0.006129
1981,-4.460398,1.271321,-6.131550,-0.041035,0.018786,0.002798
1996,-4.570531,1.235408,-6.208165,-0.040502,0.026247,0.000400
2011,-4.443638,1.288080,-6.177040,-0.034240,0.016121,-0.004397
2026,-4.340688,1.249773,-6.162675,-0.035972,0.031443,-0.004130
2041,-4.357447,1.134852,-6.143521,-0.030776,0.006795,-0.005729
2056,-4.477157,1.218649,-6.215347,-0.037438,0.020917,-0.002265
2071,-4.400543,1.225831,-6.200982,-0.035706,0.001466,0.001466
2086,-4.352659,1.230620,-6.196194,-0.044100,0.009726,0.004930
2101,-4.412514,1.221043,-6.265626,-0.049162,-0.003064,0.006395
2116,-4.498705,1.266533,-6.172252,-0.051960,0.000533,0.004530
2131,-4.434062,1.436521,-6.268020,-0.049296,-0.009193,0.005329
2146,-4.402937,1.391031,-6.112397,-0.039570,0.006262,0.004263
2161,-4.448427,1.345541,-6.157887,-0.037971,0.007061,0.002798
2176,-4.493917,1.242591,-6.124368,-0.026247,0.013456,-0.000266
2191,-4.486734,1.223437,-6.181828,-0.027179,0.020118,-0.004663
2206,-4.357447,1.244985,-6.208165,-0.027979,0.011591,-0.001599
2221,-4.450821,1.173159,-6.174646,-0.022649,0.016920,0.000533
2236,-4.527435,1.228225,-6.256049,-0.024914,0.015188,0.005329
2251,-4.469975,1.288080,-6.232107,-0.020251,0.012923,0.005862
2266,-4.378995,1.276109,-6.059724,-0.020251,0.013190,0.005995
2281,-4.393360,1.338359,-6.306327,-0.026380,0.017720,0.006662
2296,-4.357447,1.321599,-6.136339,-0.020384,0.008527,0.008926
2311,-4.434062,1.266533,-6.162675,-0.021450,0.028245,0.009459
2326,-4.350265,1.316811,-6.126762,-0.023715,0.016121,0.004663
2341,-4.419696,1.297657,-6.222530,-0.021983,0.035839,0.005596
2356,-4.537012,1.199495,-6.347029,-0.014123,0.021717,0.002398
2371,-4.568137,1.223437,-6.224924,-0.013989,0.036372,0.003730
2386,-4.412514,1.132457,-6.184223,-0.010925,0.026380,0.004130
2401,-4.266468,1.185130,-6.222530,-0.018919,0.043167,0.006928
2416,-4.529830,1.137246,-6.272809,-0.027046,0.026380,0.012124
2431,-4.438850,1.216254,-6.136339,-0.032642,0.031975,0.008260
2446,-4.515464,1.307234,-6.217741,-0.033441,0.019185,0.005862
2461,-4.280833,1.309628,-6.153098,-0.030643,0.016920,0.005462
2476,-4.472369,1.290475,-6.145916,-0.037971,0.027046,0.002132
2491,-4.501099,1.221043,-6.263232,-0.030643,0.015188,0.000799
2506,-4.410120,1.321599,-6.191405,-0.038104,0.018919,0.001732
2521,-4.374207,1.376666,-6.260838,-0.027845,0.020384,0.001865
2536,-4.398149,1.244985,-6.181828,-0.030776,0.009726,0.000000
2551,-4.537012,1.161188,-6.177040,-0.041701,0.029711,-0.003997
2566,-4.448427,1.197101,-6.165069,-0.055158,0.017453,-0.001599
2581,-4.297592,1.182736,-6.150704,-0.056490,0.015055,-0.005196
2596,-4.402937,1.132457,-6.234501,-0.057423,0.014123,0.001865
2611,-4.412514,1.130063,-6.184223,-0.068881,0.003064,0.003997
2626,-4.479551,1.333570,-6.196194,-0.059554,0.014123,0.003730
2641,-4.271256,1.194707,-6.138733,-0.048896,-0.024781,0.007861
2656,-4.319140,1.383849,-6.239290,-0.052893,0.030110,0.005596
2671,-4.616021,1.175553,-6.313510,-0.026513,-0.038637,0.007727
2686,-4.199430,1.223437,-5.822699,-0.054891,0.036372,0.009726
2701,-4.778827,1.393425,-6.576872,-0.031709,-0.001865,0.011858
2716,-4.000711,1.266533,-5.889736,-0.031043,-0.001066,0.010126
2731,-4.666299,1.343147,-6.411672,-0.030510,0.043833,0.002665
2746,-4.321534,1.237802,-6.071695,-0.023049,-0.024914,0.005329
2761,-4.417302,1.288080,-6.133945,-0.030643,0.029977,0.001998
2776,-4.388572,1.362301,-6.248867,-0.023182,-0.024248,0.001865
2791,-4.501099,1.297657,-6.210559,-0.021317,0.003198,0.003730
2806,-4.544195,1.244985,-6.224924,-0.020917,-0.004930,0.004663
2821,-4.386178,1.302446,-6.205770,-0.021450,-0.001599,0.004530
2836,-4.376601,1.290475,-6.222530,-0.009859,0.017853,0.003198
2851,-4.422091,1.192312,-6.315904,-0.006662,0.031842,0.000533
2866,-4.477157,1.268927,-6.275203,-0.013456,0.025580,0.002265
2881,-4.517859,1.228225,-6.169858,-0.013590,0.009992,0.000133
2896,-4.453215,1.273715,-6.088455,-0.012124,0.021717,0.000933
2911,-4.419696,1.089362,-6.282385,-0.023049,0.024115,0.005329
2926,-4.309563,1.170765,-6.150704,-0.040369,0.025047,0.009193
2941,-4.606444,1.458069,-6.414066,-0.035440,0.008926,0.007061
2956,-4.371812,1.448492,-6.021417,-0.017587,0.015055,-0.002798
2971,-4.675876,1.319205,-6.426037,-0.006662,0.030110,-0.004796
2986,-4.216189,0.936133,-6.047753,-0.009593,0.006528,0.000000
3001,-4.436456,1.079785,-6.373365,-0.057423,0.053292,0.007194
3016,-4.443638,1.307234,-6.119579,-0.055158,-0.027446,0.012391
3031,-4.472369,1.620875,-5.932832,-0.039037,0.039836,0.000533
3046,-4.575319,1.223437,-6.392519,-0.005862,0.014922,-0.006528
3061,-4.232948,0.912191,-6.136339,-0.012257,0.003597,-0.007861
3076,-4.419696,0.878672,-6.160281,-0.039170,0.026247,-0.007994
3091,-4.264073,0.964863,-5.918467,-0.080605,0.005596,0.013456
3106,-4.939238,1.699883,-6.473921,-0.096193,0.048896,0.015588
3121,-4.017470,1.836353,-5.872977,-0.050628,-0.029977,0.010925
3136,-4.388572,1.513135,-6.567295,-0.028245,0.039303,-0.000266
3151,-3.948039,1.216254,-6.289568,-0.041568,-0.019985,0.007594
3166,-4.563348,1.352724,-6.184223,-0.062485,0.010525,0.007994
3181,-4.606444,1.470040,-6.002264,-0.044899,-0.029711,0.006928
3196,-4.529830,1.326388,-6.117185,-0.026113,-0.012524,0.000666
3211,-4.434062,1.074997,-6.308722,-0.012391,-0.000266,-0.002132
3226,-4.563348,0.768539,-6.299145,-0.022516,-0.003597,-0.003730
3241,-4.599261,0.888249,-6.141127,-0.045165,0.004530,0.000400
3256,-4.620809,1.072602,-6.064513,-0.056757,0.007727,0.003331
3271,-4.429273,1.264138,-6.157887,-0.050495,0.005862,0.005063
3286,-4.412514,1.328782,-6.220136,-0.052626,0.020384,0.011325
3301,-4.323928,1.434127,-6.193799,-0.049962,0.013856,0.014256
3316,-4.331111,1.680730,-6.234501,-0.048496,0.017853,0.012657
3331,-4.383783,1.728614,-6.224924,-0.038637,0.003997,0.009459
3346,-4.367024,1.642422,-6.102820,-0.017320,0.013057,0.004930
3361,-4.481946,1.347936,-6.306327,-0.011591,0.013989,0.000533
3376,-4.429273,1.204283,-6.320693,-0.018519,0.017187,0.004397
3391,-4.481946,1.170765,-6.165069,-0.018652,0.017187,0.002798
3406,-4.589684,1.161188,-6.129156,-0.017587,0.021184,0.002265
3421,-4.611232,0.988805,-6.107608,-0.019319,0.027845,0.001732
3436,-4.390966,0.986411,-6.143521,-0.025047,0.041168,0.007194
3451,-4.417302,1.247379,-6.277597,-0.031576,0.029977,0.006662
3466,-4.314352,1.335965,-6.114791,-0.029711,0.019452,0.008127
3481,-4.560954,1.276109,-6.258443,-0.034374,0.032109,0.007994
3496,-4.438850,1.312023,-6.138733,-0.033974,0.021051,0.009593
3511,-4.292804,1.340753,-6.229712,-0.035440,0.029977,0.010126
3526,-4.369418,1.431733,-6.270414,-0.033175,0.024914,0.007994
3541,-4.412514,1.338359,-6.165069,-0.027845,0.019052,0.006262
3556,-4.493917,1.297657,-6.248867,-0.021583,0.028112,0.004796
3571,-4.381389,1.295263,-6.169858,-0.022516,0.021717,0.007194
3586,-4.424485,1.230620,-6.179434,-0.025980,0.025847,0.003730
3601,-4.503493,1.249773,-6.157887,-0.027446,0.019851,0.006928
3616,-4.513070,1.204283,-6.155492,-0.029444,0.036772,0.008660
3631,-4.402937,1.283292,-6.181828,-0.031576,0.019052,0.013323
3646,-4.304775,1.268927,-6.248867,-0.032109,0.034640,0.008260
3661,-4.510676,1.271321,-6.222530,-0.032642,0.025181,0.007461
3676,-4.570531,1.170765,-6.229712,-0.029711,0.020917,0.007061
3691,-4.398149,1.230620,-6.174646,-0.034374,0.030510,0.001998
3706,-4.352659,1.295263,-6.193799,-0.037172,0.020118,0.006129
3721,-4.350265,1.230620,-6.200982,-0.042234,0.019319,0.004930
3736,-4.553771,1.319205,-6.256049,-0.038904,0.023715,0.003064
3751,-4.398149,1.400608,-6.098032,-0.039303,0.017986,0.003464
3766,-4.314352,1.400608,-6.167463,-0.037305,0.024381,0.001865
3781,-4.297592,1.345541,-6.200982,-0.052493,0.004397,0.009193
3796,-4.434062,1.472434,-6.133945,-0.036639,0.027845,0.003464
3811,-4.331111,1.599327,-6.177040,-0.018786,0.018119,-0.002132
3826,-4.424485,1.379060,-6.220136,-0.000933,0.014522,-0.005196
3841,-4.371812,1.237802,-6.184223,-0.005063,0.022116,-0.007727
3856,-4.407725,1.161188,-6.112397,-0.009459,0.009593,-0.010658
3871,-4.469975,1.168370,-6.162675,-0.014922,0.012391,-0.005862
3886,-4.508282,1.027112,-6.157887,-0.014789,0.019052,-0.000799
3901,-4.508282,1.039083,-6.227318,-0.027712,0.028645,0.000799
3916,-4.434062,1.170765,-6.258443,-0.035573,0.022516,0.004930
3931,-4.386178,1.233014,-6.045359,-0.033841,0.026913,0.004530
3946,-4.441244,1.261744,-6.246472,-0.033175,0.024115,0.004397
3961,-4.398149,1.304840,-6.296751,-0.039703,0.017720,0.006662
3976,-4.333505,1.453280,-6.203376,-0.037438,0.014922,0.008793
3991,-4.232948,1.443704,-6.112397,-0.034107,0.008793,0.009326
4006,-4.419696,1.398214,-6.205770,-0.034640,0.008793,0.006662
4021,-4.501099,1.371878,-6.212953,-0.032908,0.027312,0.005995
4036,-4.357447,1.350330,-6.198588,-0.034107,-0.000533,0.005196
4051,-4.398149,1.247379,-6.177040,-0.031975,0.021317,0.002132
4066,-4.393360,1.165976,-6.184223,-0.039836,-0.006262,0.005596
4081,-4.496311,1.175553,-6.253655,-0.037704,0.023848,0.003997
4096,-4.508282,1.173159,-6.157887,-0.029577,0.005596,0.005196
4111,-4.352659,1.144428,-6.241684,-0.038637,0.016121,0.005995
4126,-4.335899,1.297657,-6.102820,-0.046098,0.011191,0.009459
4141,-4.453215,1.278504,-6.279991,-0.041302,0.012124,0.009992
4156,-4.469975,1.436521,-6.196194,-0.038904,0.010792,0.007061
4171,-4.323928,1.517924,-6.232107,-0.031309,0.011858,0.003064
4186,-4.285621,1.414973,-6.299145,-0.029444,0.005196,0.006395
4201,-4.374207,1.403002,-6.284780,-0.023449,0.009193,0.002798
4216,-4.477157,1.333570,-6.282385,-0.014655,0.003730,0.001466
4231,-4.386178,1.319205,-6.184223,-0.014922,0.006129,-0.001599
4246,-4.436456,1.163582,-6.141127,-0.009060,0.016387,-0.000533
4261,-4.477157,1.094150,-6.210559,-0.010126,0.022916,0.002132
4276,-4.517859,1.103727,-6.210559,-0.014522,0.025314,0.002931
4291,-4.367024,1.163582,-6.200982,-0.019851,0.021717,0.003064
4306,-4.378995,1.249773,-6.217741,-0.022383,0.028911,0.000533
4321,-4.400543,1.206678,-6.289568,-0.026513,0.019452,0.004130
4336,-4.429273,1.292869,-6.172252,-0.034374,0.027979,0.007061
4351,-4.347870,1.426944,-6.200982,-0.029044,0.028911,0.006262
4366,-4.302381,1.441309,-6.210559,-0.033441,0.011058,0.002931
4381,-4.400543,1.460463,-6.169858,-0.025447,0.017720,0.004530
4396,-4.352659,1.319205,-6.143521,-0.024248,0.015855,0.003198
4411,-4.393360,1.185130,-6.222530,-0.028511,0.019718,0.006662
4426,-4.302381,1.307234,-6.186617,-0.031176,0.017320,0.009992
4441,-4.431667,1.290475,-6.184223,-0.028245,0.016920,0.006528
4456,-4.546589,1.237802,-6.155492,-0.029444,0.019985,0.006395
4471,-4.441244,1.268927,-6.050148,-0.027446,0.020384,0.008394
4486,-4.297592,1.235408,-6.191405,-0.035706,0.022383,0.007461
4501,-4.395754,1.295263,-6.248867,-0.043700,0.016654,0.003198
4516,-4.489128,1.352724,-6.215347,-0.036772,0.013856,0.003331
4531,-4.467580,1.302446,-6.224924,-0.038237,0.015188,0.001998
4546,-4.311957,1.297657,-6.220136,-0.037438,0.009060,-0.000533
4561,-4.314352,1.192312,-6.287174,-0.042101,0.010792,0.001998
4576,-4.481946,1.211466,-6.165069,-0.041035,0.013057,0.002132
4591,-4.508282,1.264138,-6.251261,-0.041435,0.016787,0.007061
4606,-4.371812,1.350330,-6.198588,-0.037038,0.016787,0.008127
4621,-4.378995,1.268927,-6.227318,-0.037172,0.022383,0.007727
4636,-4.390966,1.256956,-6.208165,-0.038371,0.016920,0.008926
4651,-4.393360,1.352724,-6.200982,-0.041701,0.017587,0.007861
4666,-4.345476,1.359907,-6.153098,-0.036772,0.018519,0.008394
4681,-4.314352,1.395820,-6.318298,-0.035173,0.012657,0.004796
4696,-4.407725,1.230620,-6.217741,-0.034374,0.008260,0.003331
4711,-4.510676,1.278504,-6.268020,-0.033308,0.014389,0.002665
4726,-4.436456,1.326388,-6.196194,-0.031176,0.004397,0.000799
4741,-4.285621,1.204283,-6.179434,-0.031709,0.010792,0.001599
4756,-4.429273,1.158794,-6.145916,-0.031576,0.007861,-0.000533
4771,-4.450821,1.187524,-6.296751,-0.031709,0.006528,0.003198
4786,-4.412514,1.309628,-6.165069,-0.040902,0.010658,0.004397
4801,-4.343082,1.419762,-6.291962,-0.037038,0.012257,0.005063
4816,-4.316746,1.359907,-6.150704,-0.032775,0.009326,0.003730
4831,-4.458004,1.419762,-6.212953,-0.029844,0.010392,0.000933
4846,-4.472369,1.388637,-6.229712,-0.026380,0.012257,0.000000
4861,-4.266468,1.429338,-6.138733,-0.019585,0.010925,0.000533
4876,-4.448427,1.304840,-6.279991,-0.016121,0.018119,-0.001199
4891,-4.438850,1.237802,-6.208165,-0.010925,0.007194,-0.001998
4906,-4.513070,1.218649,-6.141127,-0.010126,0.006528,-0.003064
4921,-4.438850,1.225831,-6.153098,-0.013323,0.007994,-0.004397
4936,-4.438850,1.187524,-6.155492,-0.013057,0.011858,-0.002531
4951,-4.431667,1.130063,-6.071695,-0.019851,0.025714,0.002665
4966,-4.515464,1.395820,-6.294356,-0.022649,0.025580,0.011991
4981,-4.378995,1.237802,-6.172252,-0.027312,0.032375,0.005995
4996,-4.268862,1.309628,-6.129156,-0.023049,0.010658,0.012124
5011,-4.469975,1.278504,-6.217741,-0.023848,0.038104,0.011191
5026,-4.446033,1.359907,-6.306327,-0.029311,0.017453,0.014256
5041,-4.285621,1.412579,-6.277597,-0.028112,0.023715,0.009459
5056,-4.328717,1.326388,-6.236896,-0.025047,0.014789,0.013723
5071,-4.407725,1.295263,-6.203376,-0.014389,0.022916,0.010792
5086,-4.529830,1.242591,-6.143521,-0.012923,0.022116,0.008527
5101,-4.352659,1.249773,-6.186617,-0.027845,0.018519,0.008660
5116,-4.321534,1.254562,-6.198588,-0.031309,0.017187,0.005063
5131,-4.422091,1.223437,-6.153098,-0.028112,0.006928,0.002265
5146,-4.393360,1.187524,-6.086061,-0.023449,0.019052,0.002265
5161,-4.405331,1.264138,-6.167463,-0.029044,0.003198,0.001066
5176,-4.364630,1.321599,-6.251261,-0.030910,0.015455,0.001466
5191,-4.357447,1.273715,-6.244078,-0.036505,0.010126,0.004930
5206,-4.472369,1.264138,-6.205770,-0.037704,0.013323,0.002931
5221,-4.407725,1.297657,-6.232107,-0.038371,0.009859,0.004397
5236,-4.290410,1.312023,-6.224924,-0.038504,0.016254,0.005329
5251,-4.376601,1.316811,-6.162675,-0.039969,0.009193,0.005329
5266,-4.453215,1.237802,-6.177040,-0.035706,0.010658,0.003864
5281,-4.448427,1.278504,-6.234501,-0.040369,0.001998,0.003464
5296,-4.276044,1.323994,-6.172252,-0.037438,0.007861,0.003331
5311,-4.350265,1.283292,-6.220136,-0.036106,-0.014655,0.000533
5326,-4.436456,1.211466,-6.148310,-0.039303,0.004397,-0.003730
5341,-4.477157,1.216254,-6.186617,-0.040902,-0.005329,-0.000799
5356,-4.424485,1.218649,-6.196194,-0.039836,0.002132,-0.004397
5371,-4.309563,1.201889,-6.210559,-0.045432,-0.019319,-0.001466
5386,-4.501099,1.118092,-6.241684,-0.049296,0.004130,0.001865
5401,-4.541800,1.295263,-6.145916,-0.043300,0.001732,0.001732
5416,-4.371812,1.338359,-6.107608,-0.040636,0.010658,0.004263
5431,-4.326323,1.304840,-6.198588,-0.033974,0.009726,0.002798
5446,-4.520253,1.237802,-6.215347,-0.038371,0.008260,0.004130
5461,-4.450821,1.278504,-6.181828,-0.037838,0.008394,0.001332
5476,-4.388572,1.367089,-6.174646,-0.036639,0.004663,-0.000133
5491,-4.311957,1.364695,-6.253655,-0.031576,0.005462,0.000666
5506,-4.467580,1.283292,-6.088455,-0.027179,0.006528,0.000666
5521,-4.481946,1.268927,-6.184223,-0.023049,0.009459,0.000000
5536,-4.436456,1.383849,-6.263232,-0.019585,0.004397,-0.003198
5551,-4.367024,1.295263,-6.148310,-0.018519,0.005063,0.001199
5566,-4.458004,1.189918,-6.189011,-0.020384,0.013190,0.002132
5581,-4.498705,1.285686,-6.224924,-0.020518,0.010259,0.004263
5596,-4.393360,1.244985,-6.184223,-0.021850,0.014256,0.001466
5611,-4.390966,1.273715,-6.133945,-0.020651,0.025580,0.001466
5626,-4.374207,1.233014,-6.174646,-0.022516,0.024648,0.005462
5641,-4.529830,1.235408,-6.227318,-0.023049,0.025714,0.004530
5656,-4.410120,1.218649,-6.179434,-0.026247,0.021583,0.007594
5671,-4.326323,1.314417,-6.217741,-0.032908,0.019718,0.010259
5686,-4.453215,1.295263,-6.239290,-0.031043,0.023182,0.009193
5701,-4.477157,1.347936,-6.145916,-0.028778,0.023715,0.007328
5716,-4.446033,1.292869,-6.196194,-0.028245,0.022783,0.004263
5731,-4.374207,1.333570,-6.210559,-0.027312,0.024781,0.005063
5746,-4.369418,1.271321,-6.227318,-0.029844,0.021583,0.005462
5761,-4.477157,1.192312,-6.203376,-0.030110,0.030910,0.004530
5776,-4.503493,1.254562,-6.208165,-0.031176,0.023715,0.008527
5791,-4.276044,1.280898,-6.148310,-0.034507,0.018253,0.006662
5806,-4.395754,1.194707,-6.200982,-0.041568,0.019718,0.011591
5821,-4.431667,1.292869,-6.308722,-0.042767,0.012790,0.006262
5836,-4.469975,1.292869,-6.143521,-0.037038,0.014655,0.005196
5851,-4.319140,1.350330,-6.203376,-0.035839,0.016254,0.006795
5866,-4.338294,1.290475,-6.169858,-0.037438,0.013723,0.006395
5881,-4.465186,1.312023,-6.179434,-0.033441,0.014789,0.005329
5896,-4.441244,1.288080,-6.311116,-0.031043,0.011325,0.005196
5911,-4.355053,1.338359,-6.193799,-0.030776,0.012391,0.004263
5926,-4.340688,1.335965,-6.282385,-0.028511,0.013989,0.003331
5941,-4.436456,1.189918,-6.167463,-0.029444,0.012923,0.003730
5956,-4.491522,1.249773,-6.239290,-0.031443,0.015588,0.001599
5971,-4.422091,1.292869,-6.165069,-0.035440,0.016920,0.004263
5986,-4.302381,1.357512,-6.287174,-0.029444,0.013190,0.004263
6001,-4.477157,1.271321,-6.200982,-0.027979,0.012657,0.001865
6016,-4.537012,1.259350,-6.193799,-0.029711,0.006795,0.001332
6031,-4.429273,1.266533,-6.148310,-0.028511,0.010259,0.000933
6046,-4.319140,1.304840,-6.212953,-0.026113,0.010658,0.001732
6061,-4.371812,1.307234,-6.174646,-0.030243,0.012391,0.001199
6076,-4.515464,1.206678,-6.167463,-0.030643,0.013323,0.003064
6091,-4.489128,1.187524,-6.193799,-0.034507,0.009193,0.010259
6106,-4.367024,1.295263,-6.277597,-0.033974,0.009726,0.005862
6121,-4.419696,1.309628,-6.330269,-0.031975,0.010658,0.006928
6136,-4.446033,1.319205,-6.279991,-0.035173,0.013456,0.003730
6151,-4.458004,1.326388,-6.232107,-0.032242,0.011191,0.004930
6166,-4.314352,1.297657,-6.148310,-0.032109,0.009060,0.001998
6181,-4.460398,1.352724,-6.198588,-0.031842,0.011058,0.001732
6196,-4.522647,1.285686,-6.215347,-0.026380,0.015322,0.003331
6211,-4.513070,1.304840,-6.133945,-0.025047,0.023049,0.002665
6226,-4.326323,1.278504,-6.215347,-0.026913,0.019718,0.001599
6241,-4.316746,1.302446,-6.186617,-0.026646,0.020651,0.003064
6256,-4.424485,1.180341,-6.167463,-0.030510,0.008394,0.005329
6271,-4.424485,1.206678,-6.220136,-0.037038,0.011858,0.007727
6286,-4.357447,1.297657,-6.270414,-0.041835,0.001332,0.007328
6301,-4.390966,1.276109,-6.217741,-0.039570,0.002665,0.008926
6316,-4.434062,1.268927,-6.291962,-0.038904,0.006528,0.004397
6331,-4.529830,1.352724,-6.239290,-0.032109,0.011724,0.004397
6346,-4.386178,1.371878,-6.186617,-0.027312,0.014922,0.001732
6361,-4.376601,1.345541,-6.212953,-0.032775,0.014123,-0.000266
6376,-4.448427,1.240196,-6.181828,-0.026646,0.025447,0.003198
6391,-4.529830,1.194707,-6.203376,-0.032508,0.026646,0.001466
6406,-4.357447,1.297657,-6.325481,-0.028511,0.014522,0.001998
6421,-4.309563,1.268927,-6.126762,-0.032109,0.012391,0.003864
6436,-4.426879,1.304840,-6.200982,-0.035040,0.011191,0.003730
6451,-4.465186,1.216254,-6.198588,-0.030910,0.008660,0.002798
6466,-4.460398,1.319205,-6.212953,-0.039436,0.009859,0.004663
6481,-4.280833,1.295263,-6.200982,-0.034907,0.011858,0.000133
6496,-4.398149,1.350330,-6.110003,-0.031709,0.010658,0.001466
6511,-4.486734,1.266533,-6.234501,-0.035573,0.008527,0.000533
6526,-4.484340,1.290475,-6.229712,-0.030377,0.018519,0.000799
6541,-4.357447,1.309628,-6.193799,-0.032775,0.011858,0.004263
6556,-4.335899,1.316811,-6.186617,-0.029711,0.017986,0.003997
6571,-4.465186,1.249773,-6.198588,-0.033175,0.014655,0.006262
6586,-4.458004,1.285686,-6.217741,-0.034640,0.010658,0.003597
6601,-4.369418,1.273715,-6.189011,-0.031975,0.015055,0.005329
6616,-4.378995,1.259350,-6.138733,-0.029844,0.012124,0.002798
6631,-4.489128,1.268927,-6.141127,-0.033175,0.014389,0.006395
6646,-4.486734,1.216254,-6.136339,-0.030910,0.010792,0.004663
6661,-4.359841,1.261744,-6.198588,-0.036905,0.016121,0.005995
6676,-4.343082,1.304840,-6.198588,-0.030910,0.011191,0.005862
6691,-4.462792,1.213860,-6.169858,-0.030243,0.011325,0.006395
6706,-4.424485,1.319205,-6.189011,-0.031443,0.006262,0.002265
6721,-4.422091,1.374272,-6.138733,-0.028778,0.007861,0.004930
6736,-4.374207,1.321599,-6.165069,-0.030910,0.013856,0.004263
6751,-4.450821,1.312023,-6.196194,-0.029977,0.016121,0.003597
6766,-4.505888,1.288080,-6.212953,-0.029711,0.013590,0.004263
6781,-4.455609,1.273715,-6.181828,-0.030110,0.016254,0.003730
6796,-4.352659,1.335965,-6.198588,-0.030243,0.017054,0.001732
6811,-4.460398,1.276109,-6.212953,-0.029444,0.016121,0.005729
6826,-4.446033,1.233014,-6.143521,-0.030776,0.019851,0.003331
6841,-4.455609,1.326388,-6.279991,-0.029711,0.021317,0.003464
6856,-4.314352,1.333570,-6.148310,-0.026646,0.016787,0.000533
6871,-4.383783,1.235408,-6.205770,-0.029444,0.013057,0.003864
6886,-4.484340,1.271321,-6.200982,-0.034907,0.016387,0.007328
6901,-4.414908,1.319205,-6.172252,-0.036106,0.011991,0.006129
6916,-4.369418,1.333570,-6.200982,-0.035040,0.009726,0.004796
6931,-4.393360,1.309628,-6.234501,-0.033175,0.017054,0.003997
6946,-4.534618,1.321599,-6.303933,-0.030110,0.008660,0.003464
6961,-4.436456,1.278504,-6.112397,-0.027312,0.013723,0.001865
6976,-4.436456,1.302446,-6.208165,-0.028911,0.011991,0.001732
6991,-4.369418,1.244985,-6.095637,-0.029977,0.011191,0.002265
7006,-4.493917,1.266533,-6.153098,-0.028778,0.011325,0.002531
7021,-4.474763,1.285686,-6.191405,-0.028378,0.010658,0.005196
7036,-4.429273,1.302446,-6.141127,-0.027712,0.016521,0.004930
7051,-4.345476,1.319205,-6.217741,-0.024914,0.017320,0.002931
7066,-4.491522,1.288080,-6.148310,-0.025847,0.017054,0.006129
7081,-4.446033,1.297657,-6.133945,-0.032109,0.015588,0.005329
7096,-4.369418,1.314417,-6.179434,-0.030510,0.010925,0.004130
7111,-4.323928,1.343147,-6.136339,-0.025580,0.011591,0.005862
7126,-4.419696,1.304840,-6.133945,-0.028645,0.008793,0.006528
7141,-4.434062,1.316811,-6.131550,-0.026513,0.014256,0.005462
7156,-4.352659,1.307234,-6.227318,-0.025980,0.013590,0.006662
7171,-4.321534,1.345541,-6.253655,-0.029844,0.014922,0.007061
7186,-4.414908,1.295263,-6.270414,-0.025580,0.017320,0.006395
7201,-4.522647,1.254562,-6.251261,-0.028645,0.012257,0.004530
7216,-4.410120,1.343147,-6.234501,-0.028245,0.006795,0.004930
7231,-4.352659,1.314417,-6.200982,-0.028911,0.007061,0.002265
7246,-4.434062,1.216254,-6.143521,-0.032242,0.002531,0.000266
7261,-4.484340,1.194707,-6.167463,-0.036905,-0.008260,0.000266
7276,-4.388572,1.256956,-6.222530,-0.034773,0.008394,-0.001066
7291,-4.438850,1.304840,-6.227318,-0.039436,0.002265,-0.001466
7306,-4.350265,1.300051,-6.263232,-0.035839,0.011591,-0.001732
7321,-4.455609,1.300051,-6.256049,-0.032775,0.013856,-0.003730
7336,-4.374207,1.350330,-6.205770,-0.031309,0.010792,-0.002398
7351,-4.371812,1.383849,-6.212953,-0.029311,0.014522,0.000400
7366,-4.407725,1.340753,-6.215347,-0.030243,0.008394,-0.000533
7381,-4.458004,1.268927,-6.157887,-0.024648,0.013323,-0.002265
7396,-4.458004,1.290475,-6.169858,-0.030243,-0.004663,0.000133
7411,-4.347870,1.369483,-6.124368,-0.032642,0.001865,-0.001332
7426,-4.343082,1.280898,-6.229712,-0.032775,-0.001332,-0.001066
7441,-4.568137,1.276109,-6.212953,-0.025447,0.001199,0.001199
7456,-4.508282,1.307234,-6.162675,-0.026779,-0.000400,-0.003597
7471,-4.474763,1.252167,-6.184223,-0.026113,0.011458,-0.004796
7486,-4.369418,1.235408,-6.253655,-0.027179,0.004796,-0.001466
7501,-4.458004,1.192312,-6.272809,-0.033708,0.010925,-0.000933
7516,-4.570531,1.242591,-6.181828,-0.031709,0.013057,0.000933
7531,-4.453215,1.261744,-6.117185,-0.025847,0.013456,0.001998
7546,-4.407725,1.309628,-6.196194,-0.025714,0.018652,0.001199
7561,-4.529830,1.278504,-6.198588,-0.020518,0.015855,0.002531
7576,-4.498705,1.350330,-6.222530,-0.015055,0.012923,0.000400
7591,-4.441244,1.273715,-6.258443,-0.015988,0.020118,0.004263
7606,-4.467580,1.259350,-6.279991,-0.012124,0.017587,0.003464
7621,-4.434062,1.211466,-6.172252,-0.019452,0.012790,0.007194
7636,-4.412514,1.276109,-6.263232,-0.025580,0.014922,0.009459
7651,-4.273650,1.268927,-6.155492,-0.051294,0.026113,0.018519
7666,-4.570531,1.132457,-5.985504,-0.021983,-0.020118,0.014256
7681,-4.522647,1.235408,-6.181828,-0.033308,0.013989,0.006795
7696,-4.455609,1.295263,-6.172252,-0.028245,0.005329,0.004130
7711,-4.414908,1.326388,-6.124368,-0.025580,0.013190,0.000133
7726,-4.388572,0.960075,-6.258443,-0.062752,-0.016121,0.005063
7741,-4.496311,1.350330,-6.203376,-0.034507,0.065949,0.000666
7756,-4.458004,1.276109,-6.169858,-0.046231,0.007461,0.003464
7771,-4.295198,1.244985,-6.119579,-0.055424,0.031842,0.001466
7786,-4.563348,1.235408,-6.215347,-0.049029,0.014655,0.006795
7801,-4.410120,1.151611,-6.124368,-0.054758,0.013057,0.010792
7816,-4.402937,1.268927,-6.162675,-0.051427,0.011591,0.009326
7831,-4.355053,1.398214,-6.203376,-0.040103,-0.001332,0.009193
7846,-4.505888,1.340753,-6.105214,-0.030910,0.007461,0.003464
7861,-4.568137,1.312023,-6.112397,-0.027579,0.008527,0.003864
7876,-4.462792,1.256956,-6.155492,-0.029178,0.016254,0.001599
7891,-4.335899,1.304840,-6.244078,-0.030110,0.009593,0.002665
7906,-4.472369,1.307234,-6.119579,-0.028911,0.015455,0.003464
7921,-4.508282,1.221043,-6.105214,-0.026380,0.015721,0.002531
7936,-4.431667,1.288080,-6.189011,-0.029577,0.009326,0.003730
7951,-4.340688,1.340753,-6.320693,-0.026646,0.016121,0.001732
7966,-4.424485,1.290475,-6.241684,-0.021583,0.010259,0.001998
7981,-4.513070,1.197101,-6.100426,-0.023715,0.019319,0.001332
7996,-4.541800,1.362301,-6.162675,-0.018253,0.019985,0.000400
8011,-4.450821,1.441309,-6.200982,0.002132,0.023049,-0.000799
8026,-4.355053,1.197101,-6.179434,-0.001599,0.023715,-0.000666
8041,-4.489128,1.187524,-6.131550,-0.015855,0.021983,0.005196
8056,-4.503493,1.225831,-6.093243,-0.028511,0.019052,0.005329
8071,-4.386178,1.323994,-6.138733,-0.025181,0.018786,0.002798
8086,-4.364630,1.283292,-6.323087,-0.023848,0.013057,0.005462
8101,-4.496311,1.244985,-6.275203,-0.018652,0.020651,0.004930
8116,-4.508282,1.180341,-6.009446,-0.027845,-0.002798,0.006795
8131,-4.357447,1.230620,-6.153098,-0.032109,0.022916,0.003597
8146,-4.424485,1.244985,-6.162675,-0.034773,0.023449,0.004796
8161,-4.472369,1.242591,-6.143521,-0.031176,0.016787,0.007061
8176,-4.517859,1.235408,-6.181828,-0.030910,0.025181,0.008793
8191,-4.359841,1.237802,-6.232107,-0.031975,0.013456,0.006129
8206,-4.369418,1.304840,-6.165069,-0.029444,0.019319,0.006528
8221,-4.414908,1.252167,-6.241684,-0.031309,0.013989,0.006928
8236,-4.503493,1.206678,-6.160281,-0.034374,0.013856,0.007727
8251,-4.398149,1.273715,-6.236896,-0.037971,0.017986,0.005862
8266,-4.376601,1.295263,-6.229712,-0.034107,0.010658,0.001998
8281,-4.443638,1.230620,-6.203376,-0.035839,0.018786,0.005729
8296,-4.520253,1.192312,-6.179434,-0.040103,0.017587,0.004530
8311,-4.436456,1.216254,-6.141127,-0.043433,0.015588,0.003464
8326,-4.335899,1.280898,-6.189011,-0.041302,0.011591,0.001865
8341,-4.374207,1.213860,-6.203376,-0.042767,0.011058,0.002398
8356,-4.510676,1.228225,-6.174646,-0.043300,0.004930,0.005596
8371,-4.469975,1.276109,-6.222530,-0.045165,0.006795,0.003331
8386,-4.343082,1.326388,-6.165069,-0.045965,0.004663,0.003730
8401,-4.489128,1.345541,-6.181828,-0.035306,0.013057,0.000666
8416,-4.544195,1.319205,-6.145916,-0.034107,0.001599,0.000266
8431,-4.529830,1.273715,-6.155492,-0.030243,0.021184,-0.000533
8446,-4.319140,1.252167,-6.186617,-0.031309,0.009593,-0.000400
8461,-4.335899,1.242591,-6.330269,-0.033308,0.014789,0.002665
8476,-4.510676,1.268927,-6.222530,-0.037571,0.013190,0.007594
8491,-4.486734,1.300051,-6.284780,-0.034374,0.010792,0.000666
8506,-4.367024,1.326388,-6.165069,-0.036639,0.012257,0.003064
8521,-4.398149,1.309628,-6.169858,-0.034374,0.005196,0.000400
8536,-4.472369,1.211466,-6.179434,-0.036372,0.015055,0.003864
8551,-4.477157,1.252167,-6.189011,-0.037172,0.008260,0.001732
8566,-4.398149,1.285686,-6.181828,-0.030510,0.007328,0.002531
8581,-4.417302,1.345541,-6.181828,-0.028378,0.013723,0.003064
8596,-4.491522,1.355118,-6.191405,-0.019718,0.006795,0.001332
8611,-4.541800,1.237802,-6.236896,-0.017853,0.025047,0.001998
8626,-4.422091,1.307234,-6.198588,-0.007994,0.013057,0.000533
8641,-4.362236,1.177947,-6.220136,-0.022516,0.019185,0.002665
8656,-4.441244,1.206678,-6.100426,-0.022649,0.017054,0.008127
8671,-4.560954,1.197101,-6.102820,-0.029577,0.021850,0.007328
8686,-4.453215,1.338359,-6.121974,-0.025714,0.019319,0.007861
8701,-4.395754,1.288080,-6.110003,-0.025447,0.023582,0.005995
8716,-4.405331,1.302446,-6.110003,-0.023449,0.023848,0.003198
8731,-4.484340,1.288080,-6.244078,-0.018652,0.012923,0.003331
8746,-4.467580,1.168370,-6.208165,-0.022250,0.034907,0.006262
8761,-4.338294,1.335965,-6.191405,-0.025714,0.012923,0.009593
8776,-4.405331,1.256956,-6.208165,-0.032508,0.028378,0.007594
8791,-4.556166,1.271321,-6.232107,-0.037838,0.020384,0.009326
8806,-4.460398,1.307234,-6.232107,-0.036772,0.027312,0.005063
8821,-4.340688,1.321599,-6.189011,-0.046231,0.019985,0.002798
8836,-4.331111,1.254562,-6.217741,-0.046098,0.006928,0.001732
8851,-4.458004,1.182736,-6.145916,-0.044499,0.014389,0.002132
8866,-4.472369,1.249773,-6.272809,-0.047564,-0.002265,0.006928
8881,-4.343082,1.307234,-6.268020,-0.047031,0.000133,0.002265
8896,-4.410120,1.333570,-6.160281,-0.045032,0.005329,0.003331
8911,-4.431667,1.292869,-6.210559,-0.038237,0.003464,0.001066
8926,-4.537012,1.273715,-6.138733,-0.035040,0.004397,0.000266
8941,-4.374207,1.235408,-6.145916,-0.036106,0.003331,0.001599
8956,-4.469975,1.278504,-6.169858,-0.039170,0.015988,0.002531
8971,-4.498705,1.302446,-6.189011,-0.040769,0.011991,0.002265
8986,-4.448427,1.266533,-6.200982,-0.040236,0.010259,0.005196
9001,-4.402937,1.333570,-6.200982,-0.038237,0.011458,0.003464
9016,-4.352659,1.319205,-6.299145,-0.032775,-0.002398,0.000400
9031,-4.376601,1.240196,-6.270414,-0.026913,-0.001599,0.000666
9046,-4.570531,1.288080,-6.241684,-0.027046,-0.008127,-0.001466
9061,-4.450821,1.304840,-6.174646,-0.017720,-0.012923,-0.002931
9076,-4.481946,1.436521,-6.141127,-0.016521,0.006528,-0.003064
9091,-4.529830,1.340753,-6.196194,-0.003464,0.008127,-0.003864
9106,-4.529830,1.221043,-6.119579,-0.003997,0.023315,-0.000799
9121,-4.498705,1.199495,-6.078878,-0.013323,0.025980,-0.000933
9136,-4.371812,1.225831,-6.153098,-0.017187,0.025314,0.003864
9151,-4.467580,1.266533,-6.174646,-0.018119,0.032375,0.005729
9166,-4.558560,1.194707,-6.217741,-0.017054,0.028645,0.006662
9181,-4.395754,1.297657,-6.131550,-0.026380,0.016654,0.008793
9196,-4.450821,1.328782,-6.236896,-0.025847,0.026913,0.005729
9211,-4.386178,1.249773,-6.076484,-0.027579,0.005596,0.010525
9226,-4.469975,1.295263,-6.208165,-0.025847,0.029844,0.006129
9241,-4.479551,1.252167,-6.232107,-0.026913,0.018652,0.008527
9256,-4.347870,1.266533,-6.169858,-0.029577,0.029577,0.008660
9271,-4.455609,1.283292,-6.248867,-0.031709,0.027979,0.009193
9286,-4.505888,1.221043,-6.124368,-0.031975,0.034107,0.010792
9301,-4.429273,1.218649,-6.162675,-0.051960,0.059554,0.016654
9316,-4.359841,1.177947,-6.160281,-0.036772,0.001732,0.006662
9331,-4.295198,1.395820,-6.193799,-0.039703,0.020118,-0.000133
9346,-4.479551,1.218649,-6.162675,-0.038104,-0.002798,-0.001865
9361,-4.395754,1.194707,-6.265626,-0.039303,-0.009992,-0.001066
9376,-4.419696,1.230620,-6.208165,-0.048763,-0.012391,-0.005462
9391,-4.357447,1.302446,-6.138733,-0.050228,-0.027312,-0.005329
9406,-4.508282,1.302446,-6.244078,-0.045432,-0.016254,-0.005196
9421,-4.503493,1.266533,-6.167463,-0.053692,-0.021583,0.001466
9436,-4.489128,1.304840,-6.186617,-0.056357,-0.000799,0.000799
9451,-4.422091,1.328782,-6.200982,-0.041168,0.023049,-0.003331
9466,-4.738125,1.867477,-6.042965,-0.063685,-0.027179,0.016121
9481,-4.383783,1.283292,-6.325481,-0.036372,0.003198,0.005063
9496,-4.599261,1.321599,-6.189011,-0.034240,0.037838,0.004530
9511,-4.319140,1.374272,-6.119579,-0.035573,-0.009459,0.005729
9526,-4.424485,1.237802,-6.244078,-0.034374,0.013989,0.000000
9541,-4.548983,1.261744,-6.181828,-0.029311,0.000133,0.003730
9556,-4.419696,1.273715,-6.186617,-0.025580,0.001732,0.002531
9571,-4.510676,1.436521,-6.088455,-0.017720,0.010792,0.002132
9586,-4.424485,1.400608,-6.131550,-0.015721,-0.008394,0.002798
9601,-4.537012,1.290475,-6.153098,-0.003997,0.016787,-0.000933
9616,-4.486734,1.261744,-6.181828,0.001199,0.005196,0.001199
9631,-4.422091,1.297657,-6.205770,0.000933,0.024781,0.003064
9646,-4.450821,1.259350,-6.042965,-0.003064,0.011325,0.003597
9661,-4.548983,1.271321,-6.210559,-0.011458,0.019585,0.003997
9676,-4.527435,1.187524,-6.042965,-0.016121,0.031443,0.008394
9691,-4.347870,1.254562,-6.186617,-0.022516,0.026380,0.010525
9706,-4.352659,1.264138,-6.186617,-0.021051,0.027712,0.013323
9721,-4.558560,1.192312,-6.198588,-0.031975,0.049828,0.021583
9736,-4.556166,1.280898,-6.165069,-0.028245,0.035173,0.030243
9751,-4.331111,1.338359,-6.088455,-0.033708,0.050361,0.026380
9766,-4.400543,1.312023,-6.169858,-0.024781,0.037172,0.011991
9781,-4.431667,1.206678,-6.153098,-0.031576,0.002531,0.006129
9796,-4.462792,1.355118,-6.112397,-0.023982,0.027845,0.000000
9811,-4.369418,1.221043,-6.167463,-0.018519,-0.008394,-0.003198
9826,-4.362236,1.216254,-6.191405,-0.028245,0.019185,-0.002132
9841,-4.477157,1.180341,-6.121974,-0.034107,0.000266,0.000933
9856,-4.417302,1.259350,-6.165069,-0.047031,0.013723,-0.000266
9871,-4.419696,1.247379,-6.200982,-0.048096,0.012124,0.005862
9886,-4.276044,1.252167,-6.090849,-0.049429,0.009726,0.002398
9901,-4.508282,1.252167,-6.215347,-0.057156,0.006262,0.004397
9916,-4.477157,1.285686,-6.165069,-0.053959,0.013456,0.001599
9931,-4.491522,1.240196,-6.110003,-0.057822,0.009326,0.003464
9946,-4.333505,1.347936,-6.248867,-0.052360,0.004930,0.003464
9961,-4.532224,1.347936,-6.200982,-0.048496,0.010126,0.000266
9976,-4.467580,1.343147,-6.172252,-0.035040,0.001732,0.001865
9991,-4.529830,1.331176,-6.165069,-0.034773,0.010126,0.003331
10006,-4.333505,1.302446,-6.205770,-0.033041,0.006795,0.006795
10021,-4.477157,1.261744,-6.172252,-0.031709,0.010392,0.003597
10036,-4.520253,1.264138,-6.086061,-0.031176,0.011058,0.003064
10051,-4.527435,1.376666,-6.268020,-0.033308,0.014256,0.003464
10066,-4.414908,1.300051,-6.150704,-0.027845,0.000666,0.002531
10081,-4.453215,1.309628,-6.196194,-0.025980,0.016387,-0.000666
10096,-4.589684,1.381454,-6.148310,-0.013989,0.011058,0.001599
10111,-4.503493,1.300051,-6.212953,-0.014389,0.021317,0.000933
10126,-4.438850,1.343147,-6.174646,-0.011991,0.026779,0.002665
10141,-4.446033,1.347936,-6.229712,-0.007061,0.029977,0.001199
10156,-4.522647,1.235408,-6.129156,-0.007194,0.031443,0.001332
10171,-4.498705,1.204283,-6.177040,-0.014922,0.035040,0.003997
10186,-4.429273,1.273715,-6.110003,-0.020651,0.039303,0.010259
10201,-4.431667,1.252167,-6.268020,-0.021583,0.044899,0.007061
10216,-4.455609,1.280898,-6.126762,-0.021450,0.029711,0.005196
10231,-4.458004,1.252167,-6.351817,-0.025580,0.023182,0.005196
10246,-4.378995,1.295263,-6.200982,-0.024515,0.025847,0.005329
10261,-4.393360,1.316811,-6.275203,-0.026113,0.023715,0.007861
10276,-4.460398,1.283292,-6.236896,-0.033041,0.031309,0.007861
10291,-4.503493,1.280898,-6.117185,-0.030243,0.027579,0.006528
10306,-4.405331,1.254562,-6.155492,-0.034107,0.025047,0.007061
10321,-4.376601,1.364695,-6.217741,-0.037704,0.025714,0.008660
10336,-4.405331,1.278504,-6.112397,-0.035306,0.025047,0.009992
10351,-4.481946,1.264138,-6.162675,-0.039037,0.029577,0.003864
10366,-4.460398,1.244985,-6.169858,-0.048896,0.032908,-0.000533
10381,-4.357447,1.362301,-6.186617,-0.044366,0.008793,-0.005462
10396,-4.374207,1.158794,-6.069301,-0.052760,0.024381,-0.003198
10411,-4.477157,1.206678,-6.150704,-0.066616,-0.000533,0.003331
10426,-4.455609,1.225831,-6.253655,-0.055424,0.014789,0.003198
10441,-4.426879,1.340753,-6.181828,-0.058355,-0.010792,0.005995
10456,-4.398149,1.362301,-6.050148,-0.045565,-0.004930,0.003730
10471,-4.496311,1.295263,-6.227318,-0.042501,-0.011458,0.003331
10486,-4.505888,1.288080,-6.102820,-0.037305,0.003864,0.000666
10501,-4.453215,1.268927,-6.217741,-0.037305,0.010126,0.000133
10516,-4.378995,1.252167,-6.181828,-0.048230,0.016787,0.001332
10531,-4.546589,1.261744,-6.208165,-0.049695,0.008793,0.001332
10546,-4.510676,1.309628,-6.244078,-0.042634,0.013456,0.001332
10561,-4.400543,1.331176,-6.129156,-0.042368,-0.004796,0.003064
10576,-4.350265,1.283292,-6.177040,-0.038637,0.009859,0.003198
10591,-4.493917,1.268927,-6.162675,-0.039303,0.003730,0.000533
10606,-4.496311,1.319205,-6.229712,-0.032642,0.006395,0.001865
10621,-4.465186,1.381454,-6.066907,-0.033708,0.008926,0.000000
10636,-4.386178,1.319205,-6.217741,-0.031576,0.008926,-0.001199
10651,-4.460398,1.216254,-6.263232,-0.029311,0.010259,0.001599
10666,-4.436456,1.328782,-6.129156,-0.031709,0.001466,0.003997
10681,-4.467580,1.465251,-6.215347,-0.024648,0.013856,0.006129
10696,-4.446033,1.398214,-6.191405,-0.011591,0.011591,0.005196
10711,-4.424485,1.259350,-6.222530,-0.002132,0.014922,0.001332
10726,-4.534618,1.359907,-6.212953,0.001599,0.024381,0.000799
10741,-4.417302,1.268927,-6.083666,-0.000666,0.017587,0.003864
10756,-4.371812,1.268927,-6.222530,-0.005729,0.026913,0.004663
10771,-4.489128,1.285686,-6.246472,-0.004130,0.028378,0.002798
10786,-4.553771,1.211466,-6.203376,-0.016654,0.037038,0.005462
10801,-4.450821,1.304840,-6.198588,-0.018386,0.028511,0.008660
10816,-4.331111,1.233014,-6.145916,-0.022116,0.031709,0.010259
10831,-4.424485,1.261744,-6.263232,-0.023182,0.023315,0.007061
10846,-4.467580,1.240196,-6.157887,-0.020784,0.023315,0.006129
10861,-4.407725,1.256956,-6.145916,-0.024381,0.020518,0.005995
10876,-4.321534,1.319205,-6.136339,-0.025980,0.023049,0.006262
10891,-4.393360,1.343147,-6.174646,-0.029178,0.023182,0.005596
10906,-4.474763,1.271321,-6.179434,-0.028911,0.022250,0.001998
10921,-4.477157,1.273715,-6.272809,-0.031576,0.016121,0.003997
10936,-4.347870,1.211466,-6.150704,-0.035573,0.026380,0.002531
10951,-4.419696,1.283292,-6.181828,-0.039303,0.022383,0.003864
10966,-4.493917,1.285686,-6.229712,-0.044100,0.031176,0.001466
10981,-4.481946,1.192312,-6.306327,-0.045165,0.018652,0.001332
10996,-4.333505,1.216254,-6.260838,-0.050894,0.014389,0.004663
11011,-4.367024,1.242591,-6.098032,-0.056357,0.002665,0.005462
11026,-4.503493,1.319205,-6.222530,-0.059421,0.014389,0.006262
11041,-4.443638,1.364695,-6.196194,-0.054625,0.012124,0.001732
11056,-4.343082,1.383849,-6.172252,-0.048629,0.009193,0.001732
11071,-4.371812,1.369483,-6.227318,-0.042234,0.008793,0.000000
11086,-4.448427,1.326388,-6.220136,-0.040902,0.003331,-0.001599
11101,-4.527435,1.197101,-6.160281,-0.052893,0.008527,-0.001066
11116,-4.412514,1.276109,-6.217741,-0.052360,-0.001066,0.003064
11131,-4.319140,1.276109,-6.093243,-0.044499,0.001199,0.003597
11146,-4.493917,1.316811,-6.205770,-0.040902,0.002531,0.002798
11161,-4.548983,1.285686,-6.177040,-0.038237,-0.001199,0.003597
11176,-4.498705,1.316811,-6.150704,-0.034107,0.015588,0.003064
11191,-4.462792,1.309628,-6.217741,-0.027845,0.009726,0.001332
11206,-4.405331,1.288080,-6.074090,-0.027712,0.004530,0.004130
11221,-4.575319,1.285686,-6.205770,-0.031443,0.012790,0.003864
11236,-4.465186,1.347936,-6.088455,-0.022383,-0.003198,0.003198
11251,-4.400543,1.537077,-6.191405,-0.012790,0.015055,-0.002665
11266,-4.513070,1.323994,-6.114791,0.003464,0.019319,-0.003331
11281,-4.441244,1.185130,-6.114791,-0.004930,0.010126,0.000400
11296,-4.503493,1.295263,-6.129156,-0.013590,0.031309,0.002665
11311,-4.343082,1.335965,-6.184223,-0.014922,0.016521,0.005596
11326,-4.419696,1.271321,-6.191405,-0.020384,0.027179,0.003864
11341,-4.515464,1.223437,-6.150704,-0.024515,0.029977,0.007461
11356,-4.474763,1.206678,-6.019023,-0.025714,0.027179,0.009992
11371,-4.410120,1.357512,-6.251261,-0.025847,0.039703,0.008926
11386,-4.548983,1.122881,-6.200982,-0.025714,0.027046,0.012124
11401,-4.398149,1.302446,-6.162675,-0.029977,0.022383,0.011458
11416,-4.441244,1.300051,-6.165069,-0.024648,0.025847,0.008527
11431,-4.376601,1.254562,-6.256049,-0.026380,0.012923,0.008260
11446,-4.496311,1.338359,-6.193799,-0.029178,0.023049,0.007061
11461,-4.455609,1.228225,-6.107608,-0.029977,0.023049,0.009459
11476,-4.299986,1.307234,-6.203376,-0.029844,0.027046,0.009193
11491,-4.340688,1.283292,-6.191405,-0.028645,0.018519,0.007994
11506,-4.460398,1.340753,-6.208165,-0.027712,0.006662,0.000133
11521,-4.441244,1.321599,-6.093243,-0.024515,0.011191,0.000533
11536,-4.412514,1.235408,-6.203376,-0.029044,0.014522,0.004130
11551,-4.393360,1.280898,-6.210559,-0.033574,0.012257,0.006395
11566,-4.489128,1.261744,-6.208165,-0.032775,0.014655,0.007194
11581,-4.453215,1.292869,-6.239290,-0.033708,0.019718,0.004663
11596,-4.319140,1.321599,-6.229712,-0.031576,0.010658,0.006528
11611,-4.357447,1.266533,-6.220136,-0.035573,0.014256,0.006262
11626,-4.503493,1.256956,-6.203376,-0.038770,0.015855,0.007328
11641,-4.539406,1.331176,-6.294356,-0.031043,0.016521,0.003997
11656,-4.398149,1.362301,-6.263232,-0.031709,0.010925,0.001865
11671,-4.362236,1.304840,-6.239290,-0.029977,0.017320,-0.000266
11686,-4.501099,1.216254,-6.131550,-0.032508,0.009326,0.001332
11701,-4.493917,1.228225,-6.210559,-0.036372,0.011724,0.000933
11716,-4.407725,1.319205,-6.208165,-0.031309,0.012124,0.003331
11731,-4.450821,1.237802,-6.179434,-0.032109,0.016121,0.002665
11746,-4.426879,1.264138,-6.179434,-0.035440,0.014522,0.001998
11761,-4.460398,1.278504,-6.112397,-0.040502,0.010792,0.003730
11776,-4.472369,1.221043,-6.184223,-0.043833,0.013456,0.001599
11791,-4.393360,1.338359,-6.064513,-0.043167,0.004663,0.004530
11806,-4.489128,1.288080,-6.270414,-0.048363,0.002931,0.001599
11821,-4.448427,1.283292,-6.191405,-0.049029,0.003730,0.003064
11836,-4.443638,1.367089,-6.131550,-0.049296,-0.004397,0.003464
11851,-4.359841,1.414973,-6.256049,-0.044766,0.013057,-0.000933
11866,-4.438850,1.345541,-6.179434,-0.034240,0.005729,0.000533
11881,-4.448427,1.312023,-6.189011,-0.032642,0.013590,-0.002665
11896,-4.479551,1.312023,-6.311116,-0.031176,0.011058,0.001466
11911,-4.331111,1.331176,-6.179434,-0.032109,0.002531,0.000933
11926,-4.390966,1.271321,-6.239290,-0.033175,0.005862,-0.003464
11941,-4.446033,1.213860,-6.121974,-0.031176,0.004530,0.000000
11956,-4.539406,1.273715,-6.098032,-0.030510,0.004663,0.000266
11971,-4.429273,1.218649,-6.200982,-0.031709,0.004263,-0.001466
11986,-4.390966,1.225831,-6.155492,-0.039037,0.008793,0.003198
12001,-4.544195,1.230620,-6.167463,-0.042501,0.011325,0.001599
12016,-4.505888,1.278504,-6.212953,-0.049962,0.015455,0.001332
12031,-4.405331,1.417367,-6.198588,-0.040636,0.003997,0.004796
12046,-4.350265,1.405396,-6.162675,-0.036106,0.015855,-0.000266
12061,-4.441244,1.364695,-6.133945,-0.034773,0.004930,0.003730
12076,-4.453215,1.381454,-6.150704,-0.035306,0.020251,0.002798
12091,-4.450821,1.465251,-6.172252,-0.028112,0.015188,0.005329
12106,-4.290410,1.414973,-6.088455,-0.024648,0.011191,0.005729
12121,-4.465186,1.333570,-6.141127,-0.022649,0.018919,0.007328
12136,-4.448427,1.369483,-6.160281,-0.016521,0.019851,0.006395
12151,-4.381389,1.393425,-6.174646,-0.019319,0.018386,0.006129
12166,-4.280833,1.367089,-6.086061,-0.020251,0.017320,0.006528
12181,-4.474763,1.350330,-6.148310,-0.027579,0.028778,0.014655
12196,-4.395754,1.587356,-6.229712,-0.035306,0.017720,0.021583
12211,-4.278439,1.599327,-6.270414,-0.017587,0.005995,0.017720
12226,-4.541800,2.183512,-6.327875,0.015588,0.002531,-0.059288
12241,-5.209783,-0.701501,-6.856994,-0.010658,0.058355,-0.056490
12256,-4.474763,1.177947,-5.999869,-0.111648,0.101389,0.007594
12271,-5.011064,2.142811,-6.746861,-0.108850,0.081538,0.039570
12286,-3.751714,1.225831,-6.567295,-0.021051,-0.007994,0.010658
12301,-4.541800,1.355118,-6.282385,-0.061020,0.060487,0.005862
12316,-4.534618,2.023100,-6.119579,-0.003997,-0.011858,-0.002398
12331,-4.671087,0.687136,-5.980716,0.017453,-0.003198,-0.018919
12346,-4.350265,0.869095,-6.244078,-0.020651,0.054758,-0.008127
12361,-4.551377,1.101333,-6.081272,-0.027046,-0.001732,0.000400
12376,-4.443638,0.948104,-6.105214,-0.019718,0.012790,-0.004397
12391,-4.659116,1.019930,-6.203376,-0.039836,0.020384,-0.010126
12406,-4.479551,1.163582,-6.184223,-0.036772,0.017320,-0.012391
12421,-4.405331,1.007959,-6.040571,-0.038104,0.020384,-0.015988
12436,-4.477157,1.467646,-6.244078,-0.079806,0.062485,-0.012923
12451,-4.438850,1.647211,-6.167463,-0.054625,-0.007594,-0.003730
12466,-4.290410,1.635240,-6.009446,-0.048230,0.036239,-0.010658
12481,-4.271256,1.441309,-6.301539,-0.057156,-0.026779,0.003597
12496,-4.283227,2.169147,-6.339846,-0.070346,0.000000,0.009459
12511,-4.113238,2.164358,-5.944803,-0.007994,-0.028378,0.009326
12526,-4.678270,1.982399,-7.034164,-0.003464,0.068881,0.001732
12541,-3.758897,1.419762,-5.947197,0.034107,-0.108051,0.000666
12556,-4.577713,1.381454,-6.378153,0.001199,0.103121,-0.008527
12571,-4.841076,0.986411,-6.478710,0.019851,-0.057156,-0.008260
12586,-4.505888,0.945710,-5.861006,0.005462,0.013989,-0.009459
12601,-4.850653,0.821211,-6.406884,-0.010658,0.016920,-0.003331
12616,-4.407725,0.656011,-6.153098,-0.027979,-0.011058,0.000400
12631,-4.661510,0.921768,-6.279991,-0.048096,0.038904,-0.002665
12646,-4.517859,1.110910,-6.179434,-0.051694,-0.005462,0.000133
12661,-4.393360,1.357512,-6.050148,-0.049562,0.029044,-0.000799
12676,-4.472369,1.386243,-6.179434,-0.042900,0.029577,0.003997
12691,-4.311957,1.482011,-6.217741,-0.037305,0.015988,0.005196
12706,-4.328717,1.671153,-6.387730,-0.035040,0.034374,0.004530
12721,-4.235343,1.697489,-6.179434,-0.019718,-0.005995,0.005729
12736,-4.347870,1.733402,-6.129156,-0.008260,0.025314,-0.000666
12751,-4.436456,1.455675,-6.268020,0.000799,0.018386,-0.000266
12766,-4.359841,1.323994,-6.241684,-0.000133,0.004130,0.001865
12781,-4.338294,1.252167,-6.258443,-0.004130,0.011724,0.004930
12796,-4.390966,1.194707,-6.258443,-0.016787,0.015855,0.002665
12811,-4.584896,1.120486,-6.110003,-0.013456,0.011724,0.007727
12826,-4.517859,1.084573,-6.150704,-0.014522,0.020251,0.005729
12841,-4.477157,1.149217,-6.279991,-0.016787,0.021051,0.007061
12856,-4.400543,1.065420,-6.124368,-0.021983,0.029178,0.005862
12871,-4.541800,1.170765,-6.258443,-0.032908,0.028778,0.007861
12886,-4.510676,1.192312,-6.126762,-0.030776,0.020784,0.003198
12901,-4.443638,1.288080,-6.186617,-0.030643,0.025047,0.005329
12916,-4.268862,1.319205,-6.196194,-0.042900,0.018786,0.005862
12931,-4.486734,1.338359,-6.191405,-0.041435,0.028911,0.006662
12946,-4.438850,1.381454,-6.155492,-0.041568,0.010925,0.007328
12961,-4.271256,1.486799,-6.129156,-0.040769,0.031709,0.003464
12976,-4.369418,1.587356,-6.227318,-0.028645,0.007328,0.007328
12991,-4.276044,1.371878,-6.121974,-0.023449,0.015322,0.004663
13006,-4.553771,1.364695,-6.184223,-0.028645,0.014522,0.010259
13021,-4.460398,1.345541,-6.241684,-0.026646,0.007727,0.007994
13036,-4.304775,1.316811,-6.102820,-0.035839,0.018519,0.009326
13051,-4.544195,1.252167,-6.320693,-0.017453,0.021317,0.009459
13066,-4.443638,1.060631,-6.136339,-0.017054,0.011591,0.001066
13081,-4.520253,0.962469,-6.119579,-0.032375,0.022516,0.000799
13096,-4.510676,1.053449,-6.124368,-0.034907,0.012257,0.002531
13111,-4.539406,1.015141,-6.198588,-0.030510,0.024781,-0.000666
13126,-4.505888,1.010353,-6.186617,-0.041835,0.019452,-0.001466
13141,-4.434062,1.216254,-6.193799,-0.050761,0.025714,0.000400
13156,-4.405331,1.407791,-6.279991,-0.061153,0.018519,0.001199
13171,-4.261679,1.441309,-6.155492,-0.054891,0.016787,0.000799
13186,-4.438850,1.448492,-6.210559,-0.057689,0.018386,0.007194
13201,-4.316746,1.596933,-6.217741,-0.048896,0.007594,0.011724
13216,-4.237737,1.661576,-6.289568,-0.045165,0.008127,0.014789
13231,-4.343082,1.611298,-6.114791,-0.026646,-0.006262,0.006129
13246,-4.486734,1.465251,-6.138733,-0.010925,0.004930,0.000266
13261,-4.580108,1.165976,-6.200982,-0.011858,0.002665,0.000933
13276,-4.460398,1.053449,-6.203376,-0.018652,0.007328,-0.001466
13291,-4.489128,0.924162,-6.074090,-0.028378,0.013989,-0.000799
13306,-4.556166,0.890643,-6.234501,-0.033175,0.016521,0.002398
13321,-4.572925,0.984017,-6.165069,-0.041035,0.015322,0.005196
13336,-4.371812,1.237802,-6.212953,-0.051028,0.023049,0.005063
13351,-4.388572,1.285686,-6.121974,-0.051960,0.013190,0.006395
13366,-4.510676,1.489193,-6.165069,-0.057156,0.022116,0.009060
13381,-4.467580,1.513135,-6.090849,-0.048363,0.016787,0.008660
13396,-4.266468,1.623269,-6.133945,-0.043567,0.016787,0.010525
13411,-4.309563,1.640028,-6.181828,-0.038637,0.012257,0.007727
13426,-4.319140,1.496376,-6.174646,-0.027712,0.001732,0.007328
13441,-4.529830,1.448492,-6.179434,-0.019718,0.007994,0.001865
13456,-4.414908,1.278504,-6.078878,-0.018652,-0.003464,-0.003331
13471,-4.465186,1.252167,-6.150704,-0.019319,0.013989,0.001998
13486,-4.546589,1.108515,-6.102820,-0.024115,0.006662,0.000266
13501,-4.627992,1.034295,-6.253655,-0.030243,0.011458,0.003597
13516,-4.498705,1.144428,-6.256049,-0.030110,0.014256,0.002798
13531,-4.410120,1.221043,-6.217741,-0.032775,0.020518,0.002398
13546,-4.398149,1.240196,-6.268020,-0.028511,0.018119,0.000799
13561,-4.438850,1.338359,-6.129156,-0.023582,0.016654,0.001732
13576,-4.434062,1.343147,-6.270414,-0.016654,0.018253,0.004263
13591,-4.323928,1.400608,-6.196194,-0.018386,0.019452,0.002531
13606,-4.393360,1.319205,-6.124368,-0.018786,0.017720,0.005329
13621,-4.455609,1.376666,-6.177040,-0.018786,0.017453,0.008793
13636,-4.381389,1.453280,-6.141127,-0.024248,0.020118,0.005596
13651,-4.410120,1.393425,-6.119579,-0.018519,0.017187,0.004397
13666,-4.340688,1.388637,-6.239290,-0.017986,0.005329,0.002265
13681,-4.469975,1.252167,-6.205770,-0.015055,0.014789,0.004796
13696,-4.493917,1.242591,-6.217741,-0.015988,0.007727,0.005995
13711,-4.405331,1.264138,-6.169858,-0.019052,0.013856,0.004663
13726,-4.383783,1.541866,-6.414066,0.039836,0.018386,-0.009859
13741,-4.577713,1.000776,-6.196194,-0.013456,0.026247,0.000266
13756,-4.515464,1.225831,-6.239290,-0.032908,0.003864,0.003331
13771,-4.429273,1.237802,-6.200982,-0.033974,0.026646,0.002931
13786,-4.340688,1.194707,-6.150704,-0.035839,0.011325,0.004130
13801,-4.496311,1.187524,-6.196194,-0.044766,0.030910,0.009326
13816,-4.422091,1.204283,-6.143521,-0.052493,0.024648,0.013989
13831,-4.491522,1.436521,-6.313510,-0.052893,0.039836,0.011058
13846,-4.364630,1.537077,-6.093243,-0.055291,0.017320,0.010525
13861,-4.381389,1.563414,-6.236896,-0.051294,0.030510,0.001865
13876,-4.426879,1.441309,-6.220136,-0.047297,0.011991,0.001998
13891,-4.345476,1.431733,-6.275203,-0.048363,0.006928,-0.001998
13906,-4.264073,1.333570,-6.186617,-0.042101,0.000000,-0.001332
13921,-4.390966,1.218649,-6.289568,-0.052493,0.010259,-0.002798
13936,-4.582502,1.151611,-6.263232,-0.041701,-0.006395,-0.004130
13951,-4.438850,1.039083,-6.059724,-0.044233,-0.004796,-0.004663
13966,-4.594473,1.118092,-6.177040,-0.056623,0.008260,-0.003064
13981,-4.469975,1.094150,-6.035782,-0.057822,0.003464,-0.001865
13996,-4.570531,1.170765,-6.275203,-0.064884,0.024515,-0.002665
14011,-4.355053,1.268927,-6.208165,-0.069680,-0.003864,0.004530
14026,-4.204218,1.493982,-6.177040,-0.071012,0.002931,-0.002265
14041,-4.383783,1.482011,-6.131550,-0.074077,-0.025047,0.005596
14056,-4.455609,1.625663,-6.042965,-0.056357,-0.005862,-0.000266
14071,-4.534618,1.608904,-6.177040,-0.036772,-0.012657,-0.000400
14086,-4.323928,1.517924,-6.232107,-0.023982,-0.005862,0.002265
14101,-4.345476,1.470040,-6.277597,-0.015988,0.011058,-0.000933
14116,-4.481946,1.290475,-6.098032,-0.010392,-0.011325,-0.000666
14131,-4.522647,1.312023,-6.203376,0.000666,0.000133,-0.002398
14146,-4.469975,1.295263,-6.167463,0.003730,-0.011191,-0.008527
14161,-4.556166,1.192312,-6.184223,0.010792,0.003331,-0.007994
14176,-4.599261,1.019930,-6.081272,0.004796,0.000000,-0.003064
14191,-4.563348,1.079785,-6.095637,-0.021450,0.017320,0.003064
14206,-4.378995,1.180341,-6.141127,-0.035706,0.023315,0.007061
14221,-4.381389,1.271321,-6.107608,-0.043300,0.029044,0.009060
14236,-4.496311,1.367089,-6.208165,-0.045565,0.020518,0.011591
14251,-4.460398,1.431733,-6.150704,-0.041035,0.030110,0.012257
14266,-4.458004,1.510741,-6.138733,-0.041302,0.026779,0.012657
14281,-4.244920,1.501164,-6.129156,-0.031309,0.037838,0.015455
14296,-4.386178,1.486799,-6.263232,-0.029444,0.036106,0.015588
14311,-4.489128,1.443704,-6.217741,-0.026779,0.029577,0.018119
14326,-4.424485,1.438915,-6.179434,-0.022783,0.040502,0.018253
14341,-4.450821,1.367089,-6.093243,-0.022783,0.039969,0.019452
14356,-4.429273,1.144428,-6.184223,-0.008394,0.034640,0.009459
14371,-4.584896,1.074997,-6.191405,-0.023848,0.013456,0.005063
14386,-4.484340,1.168370,-6.148310,-0.033574,0.026113,0.004263
14401,-4.328717,1.142034,-6.107608,-0.033708,0.009726,0.002132
14416,-4.431667,1.386243,-6.251261,-0.040236,0.017587,0.002398
14431,-4.513070,1.319205,-6.138733,-0.037971,-0.000133,-0.001332
14446,-4.489128,1.391031,-6.244078,-0.036372,0.015455,0.000933
14461,-4.331111,1.441309,-6.136339,-0.042101,0.016387,0.000133
14476,-4.302381,1.431733,-6.138733,-0.050495,0.015988,-0.003864
14491,-4.501099,1.398214,-6.251261,-0.045698,-0.009859,-0.005462
14506,-4.450821,1.343147,-6.095637,-0.049695,0.009726,-0.005596
14521,-4.414908,1.407791,-6.126762,-0.047164,0.007194,-0.004796
14536,-4.388572,1.331176,-6.126762,-0.043833,0.000933,-0.001066
14551,-4.556166,1.280898,-6.244078,-0.037971,-0.002132,-0.005462
14566,-4.462792,1.237802,-6.193799,-0.037305,-0.004796,-0.002132
14581,-4.529830,1.223437,-6.284780,-0.044632,-0.001332,0.000266
14596,-4.443638,1.192312,-6.133945,-0.042634,-0.002531,0.000000
14611,-4.570531,1.204283,-6.217741,-0.043034,-0.004130,0.001199
14626,-4.575319,1.230620,-6.141127,-0.052893,-0.006395,-0.001066
14641,-4.458004,1.357512,-6.126762,-0.050228,-0.001998,-0.002531
14656,-4.424485,1.359907,-6.145916,-0.045165,0.009326,-0.002265
14671,-4.376601,1.369483,-6.126762,-0.040103,-0.005596,0.003864
14686,-4.539406,1.376666,-6.162675,-0.038504,0.009193,-0.000933
14701,-4.458004,1.572991,-6.162675,-0.022916,-0.014522,0.004530
14716,-4.335899,1.517924,-6.129156,-0.011058,0.007194,0.001332
14731,-4.491522,1.424550,-6.169858,-0.000400,-0.000799,0.004796
14746,-4.532224,1.407791,-6.088455,0.003464,0.020251,0.006395
14761,-4.477157,1.295263,-6.289568,0.015055,0.017720,0.002798
14776,-4.458004,1.321599,-6.145916,0.017054,0.018386,0.004397
14791,-4.539406,1.120486,-6.143521,0.004530,0.033708,0.003597
14806,-4.570531,1.103727,-6.165069,-0.009060,0.034640,0.007194
14821,-4.556166,1.120486,-6.133945,-0.023848,0.040769,0.010126
14836,-4.402937,1.177947,-6.016629,-0.025847,0.043966,0.008394
14851,-4.479551,1.223437,-6.153098,-0.038237,0.019319,0.013057
14866,-4.489128,1.314417,-6.165069,-0.040769,0.029444,0.012391
14881,-4.458004,1.323994,-6.131550,-0.043034,0.027446,0.012524
14896,-4.307169,1.477222,-6.155492,-0.050228,0.032375,0.014389
14911,-4.378995,1.496376,-6.102820,-0.042634,0.029844,0.013190
14926,-4.469975,1.479617,-6.181828,-0.044766,0.037172,0.011591
14941,-4.393360,1.436521,-6.234501,-0.041968,0.030243,0.005196
14956,-4.295198,1.400608,-6.090849,-0.051560,0.024115,0.002931
14971,-4.371812,1.302446,-6.208165,-0.041701,0.019052,0.001865
14986,-4.575319,1.146823,-6.208165,-0.048096,0.004930,0.002798
15001,-4.508282,1.266533,-6.153098,-0.047297,0.015988,0.003198
15016,-4.426879,1.201889,-6.160281,-0.048230,-0.001865,0.005196
15031,-4.443638,1.237802,-6.133945,-0.049562,0.008394,0.003997
15046,-4.608838,1.221043,-6.167463,-0.060354,0.004796,0.001998
15061,-4.491522,1.355118,-6.193799,-0.061286,0.012391,0.001732
15076,-4.412514,1.431733,-6.272809,-0.060221,0.006662,0.003597
15091,-4.364630,1.455675,-6.157887,-0.056224,-0.000933,-0.000133
15106,-4.479551,1.522712,-6.148310,-0.044632,0.006928,-0.000666
15121,-4.481946,1.561020,-6.275203,-0.030643,-0.002798,0.003730
15136,-4.347870,1.529895,-6.217741,-0.023315,0.000799,0.002665
15151,-4.369418,1.522712,-6.160281,-0.014123,-0.000933,0.002132
15166,-4.431667,1.431733,-6.124368,-0.002798,0.006662,-0.000400
15181,-4.565742,1.369483,-6.203376,0.005596,0.011591,-0.004663
15196,-4.414908,1.249773,-6.076484,0.005462,0.006528,-0.000933
15211,-4.551377,1.235408,-6.198588,-0.001332,0.032242,0.000799
15226,-4.513070,1.163582,-6.114791,-0.000799,0.013989,0.000000
15241,-4.426879,1.297657,-6.157887,0.006528,0.036639,-0.002665
15256,-4.414908,1.201889,-6.248867,0.005729,0.020784,-0.000933
15271,-4.529830,1.146823,-6.090849,-0.011058,0.032508,0.007727
15286,-4.503493,1.125275,-6.186617,-0.036372,0.025847,0.011858
15301,-4.410120,1.314417,-6.071695,-0.046498,0.035972,0.018386
15316,-4.405331,1.410185,-6.200982,-0.045698,0.039836,0.017853
15331,-4.455609,1.443704,-6.179434,-0.036639,0.025447,0.016654
15346,-4.503493,1.484405,-6.217741,-0.026513,0.045832,0.010126
15361,-4.323928,1.350330,-6.131550,-0.028245,0.027446,0.007328
15376,-4.273650,1.441309,-6.282385,-0.026513,0.034773,0.006928
15391,-4.424485,1.292869,-6.133945,-0.026113,0.008793,0.002798
15406,-4.467580,1.335965,-6.145916,-0.025047,0.015188,0.003198
15421,-4.498705,1.340753,-6.215347,-0.026779,0.012790,0.002132
15436,-4.367024,1.187524,-6.150704,-0.032242,0.013190,0.003331
15451,-4.410120,1.292869,-6.260838,-0.038770,0.015455,0.001066
15466,-4.551377,1.180341,-6.169858,-0.038104,0.007994,0.002665
15481,-4.481946,1.204283,-6.205770,-0.048496,0.017320,0.007328
15496,-4.398149,1.391031,-6.181828,-0.049162,0.017853,0.003997
15511,-4.390966,1.374272,-6.203376,-0.048363,0.008394,0.006928
15526,-4.541800,1.338359,-6.138733,-0.045698,0.017320,0.003730
15541,-4.388572,1.359907,-6.100426,-0.046631,0.010126,0.009326
15556,-4.335899,1.398214,-6.222530,-0.050761,0.017720,0.008793
15571,-4.311957,1.510741,-6.234501,-0.051827,0.011858,0.007594
15586,-4.477157,1.455675,-6.210559,-0.038237,0.014389,0.005729
15601,-4.434062,1.407791,-6.124368,-0.028378,0.005063,0.002132
15616,-4.400543,1.357512,-6.172252,-0.031443,0.015455,0.003997
15631,-4.367024,1.278504,-6.191405,-0.029311,0.009859,0.002132
15646,-4.546589,1.180341,-6.256049,-0.028645,0.018786,0.001998
15661,-4.558560,1.256956,-6.150704,-0.031309,0.012391,0.000933
15676,-4.419696,1.379060,-6.193799,-0.036772,0.016121,0.001199
15691,-4.441244,1.285686,-6.141127,-0.036106,0.010925,0.001732
15706,-4.508282,1.225831,-6.186617,-0.039703,0.020118,0.001199
15721,-4.496311,1.288080,-6.217741,-0.039703,0.014256,0.001332
15736,-4.398149,1.379060,-6.121974,-0.041835,0.012124,0.003597
15751,-4.388572,1.414973,-6.268020,-0.037838,0.015988,0.001998
15766,-4.343082,1.362301,-6.234501,-0.038104,0.015588,0.003464
15781,-4.496311,1.441309,-6.143521,-0.030510,0.008527,0.001732
15796,-4.422091,1.369483,-6.102820,-0.031043,0.009193,0.005196
15811,-4.335899,1.388637,-6.212953,-0.029311,0.011991,0.001732
15826,-4.469975,1.398214,-6.196194,-0.025047,0.005596,0.001998
15841,-4.529830,1.233014,-6.136339,-0.023182,0.012524,0.003464
15856,-4.450821,1.244985,-6.081272,-0.029444,0.013723,0.003864
15871,-4.426879,1.264138,-6.165069,-0.032642,0.014522,0.003997
15886,-4.486734,1.266533,-6.181828,-0.029044,0.013057,0.002265
15901,-4.525041,1.242591,-6.200982,-0.030510,0.013057,-0.000799
15916,-4.479551,1.283292,-6.145916,-0.031443,0.013989,0.001066
15931,-4.383783,1.436521,-6.121974,-0.033841,0.016521,0.001865
15946,-4.419696,1.379060,-6.126762,-0.030510,0.010126,0.003198
15961,-4.486734,1.314417,-6.145916,-0.034640,0.014655,0.007594
15976,-4.434062,1.434127,-6.169858,-0.036372,0.005462,0.007461
15991,-4.388572,1.412579,-6.165069,-0.033708,0.008926,0.004663
16006,-4.412514,1.482011,-6.143521,-0.030110,0.005729,0.007194
16021,-4.486734,1.410185,-6.129156,-0.022250,0.015855,0.004530
16036,-4.469975,1.302446,-6.066907,-0.023715,0.018652,0.001199
16051,-4.414908,1.383849,-6.241684,-0.022649,0.019585,0.001599
16066,-4.438850,1.228225,-6.174646,-0.023049,0.012124,0.003864
16081,-4.572925,1.252167,-6.169858,-0.029577,0.025181,0.003331
16096,-4.486734,1.328782,-6.119579,-0.029844,0.007994,0.003064
16111,-4.450821,1.386243,-6.246472,-0.028245,0.022516,0.002531
16126,-4.393360,1.307234,-6.224924,-0.034240,0.013456,0.001066
16141,-4.431667,1.285686,-6.258443,-0.032109,0.015055,0.003064
16156,-4.498705,1.331176,-6.150704,-0.031176,0.015588,0.001199
16171,-4.345476,1.388637,-6.119579,-0.029711,0.006928,0.000533
16186,-4.328717,1.412579,-6.112397,-0.034773,0.016387,0.002931
16201,-4.446033,1.391031,-6.133945,-0.030776,0.017187,0.003997
16216,-4.450821,1.412579,-6.131550,-0.027446,0.010259,0.001199
16231,-4.448427,1.347936,-6.296751,-0.030643,0.019585,0.002665
16246,-4.362236,1.379060,-6.246472,-0.027179,0.008793,0.003464
16261,-4.436456,1.352724,-6.136339,-0.026513,0.021450,0.001998
16276,-4.568137,1.295263,-6.105214,-0.026913,0.008660,0.002265
16291,-4.517859,1.302446,-6.193799,-0.029311,0.016787,0.000533
16306,-4.450821,1.249773,-6.191405,-0.029711,0.013057,0.001599
16321,-4.398149,1.247379,-6.232107,-0.031043,0.011724,0.001599
16336,-4.539406,1.252167,-6.268020,-0.031309,0.016654,0.000666
16351,-4.424485,1.374272,-6.189011,-0.033708,0.011591,0.001998
16366,-4.371812,1.379060,-6.086061,-0.034507,0.017187,0.003997
16381,-4.383783,1.350330,-6.138733,-0.033574,0.008793,0.005729
16396,-4.496311,1.340753,-6.181828,-0.035306,0.019452,0.002398
16411,-4.453215,1.422156,-6.210559,-0.030776,0.003997,0.004663
16426,-4.335899,1.436521,-6.112397,-0.027179,0.015988,0.004263
16441,-4.381389,1.290475,-6.114791,-0.028378,0.007194,0.006262
16456,-4.446033,1.393425,-6.167463,-0.028645,0.009859,0.001732
16471,-4.508282,1.300051,-6.232107,-0.029178,0.009193,0.004663
16486,-4.381389,1.343147,-6.205770,-0.029178,0.007994,0.003198
16501,-4.436456,1.359907,-6.222530,-0.030776,0.017054,0.004263
16516,-4.491522,1.304840,-6.030994,-0.030776,0.006129,0.002265
16531,-4.537012,1.302446,-6.210559,-0.027579,0.019985,-0.001732
16546,-4.405331,1.295263,-6.131550,-0.031176,0.009992,0.001865
16561,-4.338294,1.328782,-6.133945,-0.034907,0.019851,0.003464
16576,-4.474763,1.297657,-6.217741,-0.034907,0.011724,0.005995
16591,-4.469975,1.319205,-6.129156,-0.035040,0.017720,0.006129
16606,-4.410120,1.470040,-6.196194,-0.031842,0.017320,0.003198
16621,-4.276044,1.414973,-6.145916,-0.031709,0.015188,0.002265
16636,-4.460398,1.419762,-6.200982,-0.031443,0.014389,0.005196
16651,-4.469975,1.316811,-6.191405,-0.027179,0.006795,0.003730
16666,-4.443638,1.386243,-6.186617,-0.032908,0.010925,0.004263
16681,-4.388572,1.393425,-6.138733,-0.031842,0.000400,0.000133
16696,-4.448427,1.285686,-6.205770,-0.032775,0.005196,-0.001066
16711,-4.599261,1.316811,-6.038177,-0.029044,0.009060,-0.001865
16726,-4.522647,1.285686,-6.129156,-0.028378,0.009326,0.000133
16741,-4.362236,1.273715,-6.088455,-0.031443,0.012923,0.000933
16756,-4.520253,1.321599,-6.215347,-0.032908,0.015988,0.002931
16771,-4.553771,1.235408,-6.167463,-0.033841,0.014655,0.003864
16786,-4.472369,1.323994,-6.138733,-0.037704,0.014256,0.004930
16801,-4.405331,1.403002,-6.124368,-0.034773,0.008926,0.004530
16816,-4.376601,1.465251,-6.181828,-0.033175,0.016387,0.002931
16831,-4.525041,1.405396,-6.279991,-0.030243,0.016121,0.002132
16846,-4.465186,1.364695,-6.148310,-0.031709,0.014522,0.001865
16861,-4.371812,1.393425,-6.098032,-0.031176,0.017720,0.002931
16876,-4.345476,1.379060,-6.117185,-0.032242,0.009060,0.003730
16891,-4.577713,1.278504,-6.160281,-0.027579,0.014389,0.000799
16906,-4.532224,1.297657,-6.239290,-0.027979,0.006795,0.002798
16921,-4.460398,1.300051,-6.172252,-0.026913,0.017720,0.003864
16936,-4.429273,1.266533,-6.248867,-0.028511,0.011325,0.005862
16951,-4.563348,1.216254,-6.141127,-0.030510,0.016654,0.005596
16966,-4.515464,1.276109,-6.078878,-0.031975,0.013456,0.008394
16981,-4.417302,1.283292,-6.181828,-0.033441,0.020518,0.006528
16996,-4.398149,1.424550,-6.083666,-0.033041,0.018519,0.005329
17011,-4.467580,1.367089,-6.184223,-0.034773,0.023848,0.006262
17026,-4.529830,1.355118,-6.145916,-0.031576,0.016654,0.006129
17041,-4.424485,1.458069,-6.177040,-0.033041,0.019851,0.006928
17056,-4.388572,1.412579,-6.191405,-0.030643,0.019585,0.002665
17071,-4.436456,1.403002,-6.066907,-0.031576,0.016121,0.004530
17086,-4.580108,1.347936,-6.234501,-0.028645,0.016654,0.002798
17101,-4.364630,1.345541,-6.059724,-0.025580,0.012124,0.000533
17116,-4.477157,1.345541,-6.263232,-0.026913,0.017320,0.003597
17131,-4.462792,1.273715,-6.136339,-0.028112,0.012790,0.003864
17146,-4.558560,1.290475,-6.198588,-0.029444,0.021583,0.002132
17161,-4.472369,1.280898,-6.098032,-0.027179,0.012923,0.003198
17176,-4.283227,1.312023,-6.169858,-0.028911,0.020251,0.004796
17191,-4.448427,1.288080,-6.200982,-0.033574,0.024381,0.003597
17206,-4.493917,1.314417,-6.160281,-0.030510,0.017853,0.004397
17221,-4.505888,1.371878,-6.248867,-0.029311,0.025314,0.005596
17236,-4.321534,1.374272,-6.153098,-0.027979,0.016787,0.002531
17251,-4.355053,1.355118,-6.198588,-0.030643,0.020784,0.003464
17266,-4.520253,1.252167,-6.208165,-0.033175,0.009593,0.003730
17281,-4.541800,1.343147,-6.054936,-0.030776,0.018519,0.005862
17296,-4.390966,1.347936,-6.174646,-0.030377,0.014123,0.002931
17311,-4.381389,1.295263,-6.167463,-0.027312,0.019718,0.001732
17326,-4.501099,1.252167,-6.260838,-0.025447,0.020251,0.003730
17341,-4.515464,1.259350,-6.162675,-0.026913,0.017453,0.002531
17356,-4.505888,1.333570,-6.136339,-0.028245,0.015055,0.004930
17371,-4.340688,1.300051,-6.121974,-0.031176,0.005862,0.008527
17386,-4.501099,1.319205,-6.191405,-0.036639,0.013057,0.005196
17401,-4.517859,1.295263,-6.143521,-0.031176,0.005063,0.004530
17416,-4.484340,1.333570,-6.177040,-0.032109,0.017986,0.002931
17431,-4.338294,1.343147,-6.258443,-0.025447,0.013856,0.000400
17446,-4.508282,1.302446,-6.239290,-0.030510,0.020917,0.004663
17461,-4.546589,1.328782,-6.169858,-0.028511,0.011325,0.002132
17476,-4.410120,1.355118,-6.143521,-0.034507,0.016254,0.005596
17491,-4.371812,1.417367,-6.196194,-0.032508,0.015588,0.004530
17506,-4.371812,1.335965,-6.222530,-0.029711,0.011191,0.007061
17521,-4.565742,1.350330,-6.244078,-0.028911,0.021317,0.003331
17536,-4.422091,1.328782,-6.160281,-0.028112,0.004663,0.002931
17551,-4.395754,1.302446,-6.205770,-0.033308,0.024781,0.003464
17566,-4.390966,1.268927,-6.210559,-0.028112,0.003064,0.007328
17581,-4.455609,1.350330,-6.189011,-0.033574,0.025047,0.002132
17596,-4.474763,1.355118,-6.222530,-0.032642,0.005995,0.005462
17611,-4.386178,1.297657,-6.124368,-0.029178,0.023049,0.002531
17626,-4.465186,1.312023,-6.258443,-0.030643,0.011591,0.004530
17641,-4.467580,1.359907,-6.138733,-0.029577,0.022116,0.003464
17656,-4.551377,1.388637,-6.193799,-0.033841,0.016920,0.003464
17671,-4.304775,1.419762,-6.162675,-0.033574,0.011058,0.005462
17686,-4.436456,1.388637,-6.227318,-0.031443,0.024648,0.001865
17701,-4.390966,1.297657,-6.112397,-0.032775,0.010392,0.005196
17716,-4.450821,1.381454,-6.222530,-0.032109,0.019452,0.002798
17731,-4.383783,1.347936,-6.189011,-0.027446,0.006129,0.003997
17746,-4.331111,1.369483,-6.196194,-0.030243,0.017187,0.000400
17761,-4.493917,1.321599,-6.203376,-0.032908,0.008527,0.004263
17776,-4.527435,1.290475,-6.234501,-0.030910,0.007461,0.003064
17791,-4.441244,1.283292,-6.220136,-0.030377,0.019052,0.003597
17806,-4.352659,1.343147,-6.136339,-0.033441,0.011325,0.003730
17821,-4.534618,1.319205,-6.227318,-0.031576,0.014123,0.003730
17836,-4.563348,1.357512,-6.157887,-0.031443,0.015855,0.005462
17851,-4.438850,1.292869,-6.208165,-0.030243,0.013456,-0.000133
17866,-4.343082,1.383849,-6.196194,-0.029977,0.011325,0.002398
17881,-4.515464,1.331176,-6.184223,-0.030510,0.020917,0.002265
17896,-4.496311,1.285686,-6.093243,-0.029311,0.011458,0.003198
17911,-4.441244,1.359907,-6.174646,-0.029178,0.025980,0.003198
17926,-4.333505,1.436521,-6.167463,-0.029178,0.007061,0.005063
17941,-4.378995,1.323994,-6.129156,-0.032642,0.019985,0.004530
17956,-4.529830,1.376666,-6.133945,-0.030110,0.012391,0.004930
17971,-4.376601,1.331176,-6.040571,-0.028245,0.012790,0.005862
17986,-4.479551,1.352724,-6.296751,-0.031043,0.020518,0.002931
18001,-4.443638,1.355118,-6.224924,-0.029444,0.007194,0.004796
18016,-4.498705,1.283292,-6.153098,-0.028778,0.019718,0.003064
18031,-4.436456,1.350330,-6.196194,-0.033574,0.013190,0.001865
18046,-4.333505,1.374272,-6.172252,-0.029311,0.014655,0.001599
18061,-4.400543,1.307234,-6.155492,-0.031176,0.008260,0.004263
18076,-4.486734,1.338359,-6.227318,-0.033308,0.012391,0.002398
18091,-4.498705,1.386243,-6.234501,-0.031176,0.002531,0.006662
18106,-4.371812,1.355118,-6.129156,-0.031709,0.010658,0.002931
18121,-4.434062,1.400608,-6.186617,-0.030776,0.019452,0.002798
18136,-4.398149,1.424550,-6.210559,-0.022649,0.011591,0.003464
18151,-4.546589,1.333570,-6.169858,-0.022783,0.017853,0.002531
18166,-4.390966,1.362301,-6.260838,-0.028245,0.013590,0.005995
18181,-4.412514,1.362301,-6.208165,-0.031443,0.022516,0.004263
18196,-4.520253,1.376666,-6.232107,-0.027845,0.010658,0.005862
18211,-4.493917,1.247379,-6.105214,-0.028778,0.014522,0.002931
18226,-4.465186,1.297657,-6.138733,-0.027179,0.012790,0.003730
18241,-4.400543,1.280898,-6.224924,-0.028378,0.013590,0.004263
18256,-4.467580,1.218649,-6.157887,-0.031443,0.014922,-0.001599
18271,-4.474763,1.247379,-6.191405,-0.034773,0.020518,0.001732
18286,-4.371812,1.300051,-6.074090,-0.038104,0.019851,0.001865
18301,-4.393360,1.393425,-6.174646,-0.036372,0.020251,0.004397
18316,-4.477157,1.326388,-6.222530,-0.033974,0.015055,0.003864
18331,-4.458004,1.352724,-6.215347,-0.034240,0.020917,0.001332
18346,-4.381389,1.364695,-6.270414,-0.035440,0.018519,0.001998
18361,-4.321534,1.386243,-6.268020,-0.032242,0.020118,0.002398
18376,-4.364630,1.422156,-6.177040,-0.031176,0.011325,0.003597
18391,-4.465186,1.393425,-6.184223,-0.029844,0.015055,0.002531
18406,-4.448427,1.381454,-6.208165,-0.030110,0.019718,0.003730
18421,-4.345476,1.355118,-6.074090,-0.029577,0.006795,0.002132
18436,-4.405331,1.290475,-6.148310,-0.030910,0.019851,0.002798
18451,-4.513070,1.312023,-6.186617,-0.032109,0.007194,0.000666
18466,-4.527435,1.266533,-6.169858,-0.027179,0.017453,-0.000400
18481,-4.359841,1.309628,-6.169858,-0.029044,0.007994,0.002132
18496,-4.407725,1.264138,-6.129156,-0.029178,0.026247,0.001466
18511,-4.537012,1.254562,-6.191405,-0.027712,0.012124,0.003331
18526,-4.469975,1.292869,-6.198588,-0.032642,0.025047,0.002798
18541,-4.400543,1.347936,-6.256049,-0.031709,0.018519,0.003597
18556,-4.280833,1.338359,-6.167463,-0.034107,0.022649,0.004796
18571,-4.501099,1.343147,-6.165069,-0.033441,0.022516,0.006928
18586,-4.460398,1.391031,-6.160281,-0.032375,0.008394,0.007861
18601,-4.431667,1.381454,-6.222530,-0.035173,0.024515,0.005462
18616,-4.335899,1.376666,-6.131550,-0.035839,0.005063,0.007328
18631,-4.493917,1.292869,-6.193799,-0.034374,0.029577,0.005729
18646,-4.553771,1.309628,-6.138733,-0.035440,0.015855,0.003597
18661,-4.393360,1.338359,-6.179434,-0.033308,0.024648,0.001865
18676,-4.446033,1.302446,-6.167463,-0.037438,0.012524,0.004130
18691,-4.469975,1.388637,-6.174646,-0.035440,0.038104,0.000000
18706,-4.532224,1.297657,-6.066907,-0.032775,0.020384,0.000533
18721,-4.359841,1.268927,-6.205770,-0.030643,0.018119,0.005596
18736,-4.367024,1.261744,-6.086061,-0.033708,0.023315,0.003198
18751,-4.347870,1.276109,-6.265626,-0.031443,0.004530,0.006662
18766,-4.539406,1.283292,-6.268020,-0.030776,0.015721,0.007461
18781,-4.386178,1.462857,-6.196194,-0.025714,-0.006662,0.006795
18796,-4.400543,1.501164,-6.174646,-0.026380,0.013323,0.002798
18811,-4.424485,1.355118,-6.172252,-0.019851,-0.003597,0.001332
18826,-4.496311,1.359907,-6.181828,-0.018786,0.011458,0.001332
18841,-4.496311,1.345541,-6.186617,-0.015855,0.017453,0.001865
18856,-4.383783,1.376666,-6.186617,-0.013723,0.017187,0.000000
18871,-4.426879,1.295263,-6.136339,-0.020784,0.021184,0.002798
18886,-4.539406,1.228225,-6.086061,-0.023315,0.018386,0.000799
18901,-4.477157,1.273715,-6.208165,-0.024381,0.017453,0.004263
18916,-4.388572,1.369483,-6.234501,-0.028378,0.021583,0.003064
18931,-4.371812,1.288080,-6.210559,-0.035706,0.015721,0.005196
18946,-4.560954,1.345541,-6.289568,-0.035306,0.021051,0.005729
18961,-4.551377,1.323994,-6.157887,-0.034240,0.010392,0.003597
18976,-4.453215,1.405396,-6.222530,-0.037305,0.021051,0.003997
18991,-4.386178,1.410185,-6.145916,-0.035972,0.016787,0.006528
19006,-4.453215,1.398214,-6.217741,-0.043300,0.024381,0.002931
19021,-4.345476,1.410185,-6.150704,-0.043300,0.018652,0.003331
19036,-4.422091,1.412579,-6.244078,-0.042368,0.019452,0.001066
19051,-4.486734,1.225831,-6.157887,-0.043433,0.014522,-0.001732
19066,-4.395754,1.288080,-6.165069,-0.049029,0.009326,0.001466
19081,-4.426879,1.362301,-6.210559,-0.049562,0.011458,0.005063
19096,-4.417302,1.410185,-6.160281,-0.045165,0.006528,0.001732
19111,-4.503493,1.369483,-6.148310,-0.038371,-0.001599,0.001865
19126,-4.486734,1.295263,-6.246472,-0.043034,0.007328,0.005063
19141,-4.390966,1.156399,-6.181828,-0.065949,-0.001199,0.004930
19156,-4.299986,1.357512,-6.227318,-0.056357,0.003597,0.007061
19171,-4.577713,1.383849,-6.136339,-0.042234,0.007594,0.004930
19186,-4.501099,1.352724,-6.143521,-0.035306,0.000666,0.001732
19201,-4.359841,1.493982,-6.236896,-0.033441,0.007594,0.002265
19216,-4.407725,1.508347,-6.186617,-0.023315,0.007727,0.002398
19231,-4.505888,1.426944,-6.167463,-0.013456,0.008926,-0.000799
19246,-4.436456,1.343147,-6.138733,-0.018652,-0.002798,0.001732
19261,-4.446033,1.271321,-6.145916,-0.026513,0.003730,0.000400
19276,-4.383783,1.374272,-6.148310,-0.025314,0.001732,0.001066
19291,-4.491522,1.333570,-6.208165,-0.023715,0.013856,0.004530
19306,-4.525041,1.367089,-6.141127,-0.019718,0.014256,0.001466
19321,-4.453215,1.355118,-6.162675,-0.022783,0.028245,0.001599
19336,-4.362236,1.218649,-6.088455,-0.022916,0.019985,0.003331
19351,-4.448427,1.254562,-6.217741,-0.031709,0.025047,0.006928
19366,-4.520253,1.242591,-6.189011,-0.032109,0.017187,0.005862
19381,-4.395754,1.350330,-6.145916,-0.034640,0.021051,0.008793
19396,-4.429273,1.386243,-6.153098,-0.036372,0.019052,0.006395
19411,-4.458004,1.371878,-6.136339,-0.032908,0.023582,0.006795
19426,-4.503493,1.407791,-6.150704,-0.032242,0.016787,0.002531
19441,-4.436456,1.489193,-6.181828,-0.041568,0.020384,0.003064
19456,-4.335899,1.362301,-6.121974,-0.043300,0.010658,-0.000133
19471,-4.395754,1.355118,-6.119579,-0.051028,0.006662,0.001066
19486,-4.534618,1.297657,-6.220136,-0.051161,0.004796,0.000400
19501,-4.436456,1.343147,-6.160281,-0.048096,0.001466,0.003464
19516,-4.390966,1.429338,-6.160281,-0.040769,-0.000400,0.001599
19531,-4.414908,1.304840,-6.081272,-0.036505,-0.009459,0.003597
19546,-4.532224,1.355118,-6.160281,-0.033841,0.006662,0.001066
19561,-4.481946,1.312023,-6.124368,-0.034240,-0.004530,0.004263
19576,-4.434062,1.326388,-6.090849,-0.038104,0.013456,0.004663
19591,-4.458004,1.405396,-6.138733,-0.034107,0.007861,0.003597
19606,-4.477157,1.314417,-6.172252,-0.032642,0.014655,0.005329
19621,-4.584896,1.441309,-6.205770,-0.024781,0.018652,0.006662
19636,-4.407725,1.388637,-6.138733,-0.019851,0.018253,0.004530
19651,-4.412514,1.474828,-6.303933,-0.012923,0.018386,0.003730
19666,-4.503493,1.345541,-6.076484,-0.011191,0.017986,0.002398
19681,-4.520253,1.367089,-6.193799,-0.010925,0.019851,0.002265
19696,-4.431667,1.374272,-6.117185,-0.014789,0.019185,0.003597
19711,-4.462792,1.323994,-6.153098,-0.017720,0.029844,0.003864
19726,-4.496311,1.355118,-6.193799,-0.017187,0.027312,0.006928
19741,-4.575319,1.297657,-6.189011,-0.021583,0.034374,0.005596
19756,-4.479551,1.288080,-6.186617,-0.026380,0.028378,0.007594
19771,-4.350265,1.331176,-6.088455,-0.030377,0.028245,0.007594
19786,-4.572925,1.374272,-6.239290,-0.036772,0.023848,0.007194
19801,-4.503493,1.323994,-6.107608,-0.036239,0.024115,0.001732
19816,-4.503493,1.364695,-6.160281,-0.039170,0.026779,0.003198
19831,-4.333505,1.438915,-6.030994,-0.041701,0.026513,0.000533
19846,-4.436456,1.345541,-6.258443,-0.043567,0.032775,0.000799
19861,-4.467580,1.359907,-6.114791,-0.040369,0.011058,0.001066
19876,-4.414908,1.300051,-6.136339,-0.044632,0.019718,0.004530
19891,-4.362236,1.386243,-6.174646,-0.046764,0.014256,0.004796
19906,-4.422091,1.371878,-6.117185,-0.045032,0.018253,0.005462
19921,-4.515464,1.338359,-6.212953,-0.042634,0.007328,0.004397
19936,-4.405331,1.410185,-6.253655,-0.034107,0.006528,0.004796
19951,-4.426879,1.359907,-6.191405,-0.041035,0.008793,0.005196
19966,-4.431667,1.340753,-6.275203,-0.038104,0.007861,0.003597
19981,-4.513070,1.304840,-6.227318,-0.036106,0.001332,0.005995
19996,-4.515464,1.347936,-6.236896,-0.035440,0.013723,0.003997
20011,-4.410120,1.362301,-6.141127,-0.034907,0.008394,0.004796
20026,-4.378995,1.285686,-6.239290,-0.038637,0.009726,0.005462
20041,-4.513070,1.393425,-6.148310,-0.040769,0.012524,0.003997
20056,-4.498705,1.352724,-6.129156,-0.037838,0.014922,0.001466
20071,-4.374207,1.479617,-6.088455,-0.034907,0.019052,0.002798
20086,-4.402937,1.414973,-6.162675,-0.031176,0.018919,0.002132
20101,-4.467580,1.352724,-6.124368,-0.033041,0.024914,0.002665
20116,-4.450821,1.400608,-6.145916,-0.033441,0.018786,-0.000933
20131,-4.331111,1.386243,-6.186617,-0.029711,0.015322,0.002798
20146,-4.374207,1.436521,-6.107608,-0.025314,0.009326,0.001732
20161,-4.479551,1.414973,-6.236896,-0.022783,0.015721,0.001066
20176,-4.560954,1.388637,-6.208165,-0.014389,0.003997,-0.001199
20191,-4.374207,1.386243,-6.133945,-0.014123,0.008926,-0.000400
20206,-4.493917,1.343147,-6.167463,-0.005729,0.009060,0.000400
20221,-4.400543,1.292869,-6.121974,-0.004930,0.012524,-0.003464
20236,-4.560954,1.276109,-6.131550,-0.013323,0.022516,0.001066
20251,-4.455609,1.314417,-6.081272,-0.017054,0.020651,0.002398
20266,-4.398149,1.309628,-6.191405,-0.024381,0.032375,0.006262
20281,-4.393360,1.321599,-6.162675,-0.024115,0.018253,0.005196
20296,-4.431667,1.300051,-6.198588,-0.031709,0.027046,0.010925
20311,-4.496311,1.359907,-6.184223,-0.026646,0.020384,0.006928
20326,-4.345476,1.467646,-6.081272,-0.030377,0.021850,0.004397
20341,-4.424485,1.429338,-6.179434,-0.034107,0.023715,0.006395
20356,-4.458004,1.312023,-6.136339,-0.032642,0.016387,0.003997
20371,-4.438850,1.288080,-6.186617,-0.041435,0.028778,-0.001199
20386,-4.402937,1.393425,-6.148310,-0.047164,0.019185,0.000133
20401,-4.395754,1.278504,-6.196194,-0.039969,0.019052,-0.000533
20416,-4.503493,1.264138,-6.179434,-0.040236,0.009593,0.003730
20431,-4.534618,1.424550,-6.217741,-0.042101,0.018786,0.005196
20446,-4.400543,1.367089,-6.224924,-0.039969,0.011858,0.005862
20461,-4.355053,1.383849,-6.129156,-0.041835,0.017054,0.005462
20476,-4.460398,1.412579,-6.246472,-0.035440,0.015188,0.002665
20491,-4.414908,1.414973,-6.174646,-0.034374,0.011724,0.000266
20506,-4.422091,1.383849,-6.124368,-0.031842,0.017320,0.001332
20521,-4.376601,1.381454,-6.165069,-0.034240,0.013723,0.002398
20536,-4.469975,1.367089,-6.186617,-0.031975,0.026646,0.000666
20551,-4.453215,1.388637,-6.133945,-0.023449,0.019052,0.004397
20566,-4.453215,1.307234,-6.229712,-0.023315,0.031176,0.003064
20581,-4.407725,1.352724,-6.246472,-0.028112,0.017187,0.001332
20596,-4.448427,1.364695,-6.107608,-0.027712,0.020917,0.000799
20611,-4.527435,1.278504,-6.260838,-0.026513,0.019851,0.004663
20626,-4.383783,1.386243,-6.167463,-0.027845,0.013057,0.004130
20641,-4.343082,1.364695,-6.196194,-0.027712,0.017853,0.001865
20656,-4.424485,1.391031,-6.210559,-0.023982,0.016787,0.002798
20671,-4.503493,1.355118,-6.217741,-0.020518,0.020651,0.000133
20686,-4.458004,1.400608,-6.239290,-0.015721,0.016387,0.000799
20701,-4.355053,1.426944,-6.143521,-0.010925,0.025980,-0.003064
20716,-4.376601,1.343147,-6.045359,-0.009193,0.022516,-0.000666
20731,-4.503493,1.285686,-6.193799,-0.014123,0.027046,0.000933
20746,-4.398149,1.312023,-6.234501,-0.019319,0.017187,0.004130
20761,-4.352659,1.407791,-6.148310,-0.017853,0.021983,0.007461
20776,-4.374207,1.352724,-6.229712,-0.020917,0.014789,0.007194
20791,-4.541800,1.321599,-6.193799,-0.020118,0.016920,0.004930
20806,-4.453215,1.240196,-6.181828,-0.023182,0.019185,0.005196
20821,-4.359841,1.297657,-6.196194,-0.027979,0.019585,0.006928
20836,-4.362236,1.314417,-6.162675,-0.028645,0.013856,0.004397
20851,-4.474763,1.364695,-6.222530,-0.030776,0.016521,0.007594
20866,-4.513070,1.357512,-6.244078,-0.031043,0.008527,0.004663
20881,-4.405331,1.319205,-6.241684,-0.038104,0.011858,0.005462
20896,-4.414908,1.357512,-6.282385,-0.036106,0.010392,0.004663
20911,-4.402937,1.424550,-6.174646,-0.037438,0.022516,0.000666
20926,-4.443638,1.386243,-6.227318,-0.033574,0.019185,-0.001599
20941,-4.340688,1.355118,-6.155492,-0.033041,0.018519,-0.000933
20956,-4.355053,1.285686,-6.160281,-0.043966,0.013323,0.004663
20971,-4.355053,1.278504,-6.100426,-0.046897,0.004930,0.004530
20986,-4.496311,1.319205,-6.347029,-0.048230,0.013323,0.006928
21001,-4.402937,1.455675,-6.153098,-0.044632,0.010126,0.004930
21016,-4.359841,1.395820,-6.189011,-0.035173,0.013323,0.001865
21031,-4.395754,1.290475,-6.167463,-0.036106,0.005329,0.002798
21046,-4.481946,1.307234,-6.153098,-0.036772,0.012790,0.001998
21061,-4.402937,1.364695,-6.186617,-0.034240,0.007994,0.002132
21076,-4.422091,1.347936,-6.174646,-0.031975,0.010658,0.000000
21091,-4.458004,1.343147,-6.208165,-0.029844,0.012923,0.000933
21106,-4.436456,1.350330,-6.121974,-0.026380,0.009193,-0.000266
21121,-4.453215,1.362301,-6.124368,-0.031975,0.010658,0.004930
21136,-4.316746,1.355118,-6.177040,-0.034374,0.003997,0.004263
21151,-4.429273,1.503559,-6.351817,-0.027979,0.014922,0.002665
21166,-4.481946,1.285686,-6.100426,-0.025314,0.000666,0.003064
21181,-4.455609,1.419762,-6.160281,-0.025314,0.012524,0.001199
21196,-4.395754,1.376666,-6.229712,-0.017720,0.010792,0.000400
21211,-4.340688,1.326388,-6.162675,-0.018386,0.018519,0.001732
21226,-4.510676,1.194707,-6.208165,-0.023049,0.016521,0.002798
21241,-4.359841,1.280898,-6.150704,-0.028511,0.015455,0.006262
21256,-4.450821,1.374272,-6.224924,-0.021317,0.018253,0.004663
21271,-4.335899,1.364695,-6.248867,-0.021450,0.015455,0.002132
21286,-4.481946,1.209072,-6.291962,-0.029311,0.017054,0.007727
21301,-4.429273,1.333570,-6.232107,-0.033308,0.013190,0.006395
21316,-4.438850,1.441309,-6.131550,-0.032242,0.021051,0.007994
21331,-4.333505,1.424550,-6.133945,-0.028911,0.010392,0.005063
21346,-4.441244,1.345541,-6.184223,-0.027979,0.022383,0.002265
21361,-4.534618,1.292869,-6.208165,-0.030243,0.001332,0.005596
21376,-4.319140,1.345541,-6.105214,-0.030910,0.018652,0.006129
21391,-4.436456,1.319205,-6.234501,-0.035440,0.010525,0.009193
21406,-4.429273,1.304840,-6.172252,-0.034640,0.011191,0.008127
21421,-4.580108,1.335965,-6.234501,-0.031842,0.014922,0.005462
21436,-4.323928,1.393425,-6.119579,-0.033574,0.000799,0.003331
21451,-4.467580,1.386243,-6.145916,-0.033708,0.015721,0.002798
21466,-4.352659,1.302446,-6.088455,-0.035573,-0.001332,0.003730
21481,-4.537012,1.283292,-6.081272,-0.037704,0.017986,0.005729
21496,-4.462792,1.355118,-6.162675,-0.035440,0.006262,0.001865
21511,-4.331111,1.338359,-6.129156,-0.030776,0.019718,0.001732
21526,-4.496311,1.381454,-6.133945,-0.031709,0.018386,0.003597
21541,-4.503493,1.364695,-6.177040,-0.030377,0.018519,0.001466
21556,-4.434062,1.295263,-6.076484,-0.029311,0.017853,0.003597
21571,-4.371812,1.357512,-6.169858,-0.034907,0.007727,0.005995
21586,-4.381389,1.290475,-6.165069,-0.039969,0.009060,0.005329
21601,-4.422091,1.381454,-6.155492,-0.037038,0.000266,0.005063
21616,-4.486734,1.376666,-6.160281,-0.033574,0.000799,0.001466
21631,-4.393360,1.424550,-6.287174,-0.031043,0.005995,0.000933
21646,-4.386178,1.350330,-6.265626,-0.035573,0.001599,-0.002398
21661,-4.534618,1.216254,-6.179434,-0.034374,0.012124,0.000266
21676,-4.513070,1.326388,-6.141127,-0.037438,0.003997,0.001199
21691,-4.319140,1.357512,-6.026206,-0.038371,0.008926,0.002398
21706,-4.414908,1.386243,-6.196194,-0.036239,0.016654,0.002665
21721,-4.458004,1.302446,-6.186617,-0.036106,0.010392,0.000000
21736,-4.517859,1.371878,-6.155492,-0.035173,0.021850,0.000400
21751,-4.405331,1.355118,-6.174646,-0.039303,0.008527,0.003730
21766,-4.338294,1.343147,-6.217741,-0.040769,0.013456,0.003864
21781,-4.477157,1.376666,-6.208165,-0.039170,0.006928,0.004263
21796,-4.498705,1.448492,-6.169858,-0.036372,0.002132,0.005462
21811,-4.448427,1.414973,-6.174646,-0.035573,0.007727,0.004530
21826,-4.364630,1.388637,-6.205770,-0.037172,0.003864,0.003997
21841,-4.412514,1.264138,-6.165069,-0.038104,0.011458,0.005596
21856,-4.508282,1.376666,-6.236896,-0.036372,0.007861,0.003730
21871,-4.587290,1.388637,-6.071695,-0.032375,0.015721,0.004263
21886,-4.402937,1.383849,-6.184223,-0.028511,0.023049,0.005462
21901,-4.429273,1.326388,-6.177040,-0.030910,0.018386,0.004263
21916,-4.460398,1.273715,-6.224924,-0.032109,0.021450,0.003331
21931,-4.467580,1.405396,-6.105214,-0.034374,0.021583,0.008394
21946,-4.378995,1.414973,-6.196194,-0.032775,0.010126,0.005596
21961,-4.460398,1.369483,-6.179434,-0.031309,0.015588,0.005196
21976,-4.496311,1.312023,-6.131550,-0.030243,0.006795,0.006129
21991,-4.419696,1.350330,-6.093243,-0.030243,0.016654,0.002665
22006,-4.390966,1.443704,-6.174646,-0.031576,0.011724,0.002132
22021,-4.393360,1.462857,-6.119579,-0.025980,0.020251,0.003064
22036,-4.520253,1.338359,-6.203376,-0.025847,0.018253,0.003464
22051,-4.501099,1.328782,-6.177040,-0.029444,0.019718,0.003997
22066,-4.448427,1.343147,-6.160281,-0.025847,0.022383,0.001998
22081,-4.390966,1.338359,-6.136339,-0.028645,0.016920,0.006129
22096,-4.496311,1.343147,-6.222530,-0.031043,0.027179,0.008127
22111,-4.446033,1.391031,-6.124368,-0.027312,0.018119,0.004530
22126,-4.450821,1.369483,-6.133945,-0.026913,0.022783,0.001599
22141,-4.340688,1.359907,-6.117185,-0.027845,0.017986,0.006528
22156,-4.441244,1.316811,-6.217741,-0.030510,0.014789,0.003864
22171,-4.510676,1.446098,-6.126762,-0.029178,0.019319,0.002531
22186,-4.378995,1.436521,-6.119579,-0.027179,0.019985,0.001998
22201,-4.321534,1.424550,-6.131550,-0.025447,0.026513,0.002665
22216,-4.398149,1.333570,-6.193799,-0.025447,0.010658,0.005462
22231,-4.546589,1.345541,-6.133945,-0.027312,0.024515,0.003198
22246,-4.357447,1.312023,-6.198588,-0.024914,0.006262,0.004263
22261,-4.331111,1.340753,-6.162675,-0.032508,0.017720,0.003997
22276,-4.501099,1.419762,-6.196194,-0.028911,0.001066,0.004397
22291,-4.472369,1.312023,-6.009446,-0.033574,0.011458,0.002398
22306,-4.503493,1.388637,-6.145916,-0.031842,0.013057,0.001732
22321,-4.316746,1.345541,-6.215347,-0.026779,0.010126,0.001066
22336,-4.438850,1.369483,-6.203376,-0.026513,0.020518,0.000933
22351,-4.484340,1.273715,-6.071695,-0.022649,0.010126,0.001199
22366,-4.453215,1.323994,-6.162675,-0.026646,0.020651,0.002132
22381,-4.319140,1.364695,-6.205770,-0.028778,0.010126,0.005329
22396,-4.362236,1.398214,-6.277597,-0.032109,0.022783,0.006928
22411,-4.469975,1.323994,-6.095637,-0.025181,0.015988,0.003730
22426,-4.481946,1.388637,-6.222530,-0.030776,0.015322,0.003198
22441,-4.378995,1.319205,-6.189011,-0.033308,0.010792,0.002931
22456,-4.374207,1.379060,-6.155492,-0.034107,0.015588,0.002531
22471,-4.489128,1.350330,-6.256049,-0.031443,0.012124,0.004930
22486,-4.441244,1.295263,-6.030994,-0.032109,0.011458,0.001732
22501,-4.441244,1.438915,-6.110003,-0.031842,0.011724,0.004397
22516,-4.367024,1.307234,-6.198588,-0.029977,0.010525,0.000000
22531,-4.484340,1.264138,-6.265626,-0.027712,0.020917,0.003198
22546,-4.465186,1.256956,-6.160281,-0.031443,0.011058,0.004663
22561,-4.331111,1.376666,-6.236896,-0.032242,0.013456,0.006129
22576,-4.383783,1.350330,-6.181828,-0.032642,0.007861,0.004663
22591,-4.460398,1.364695,-6.208165,-0.031975,0.012124,0.002398
22606,-4.489128,1.357512,-6.150704,-0.033041,0.012923,0.003464
22621,-4.441244,1.424550,-6.107608,-0.032375,0.020651,0.005196
22636,-4.333505,1.400608,-6.090849,-0.030510,0.020251,0.002798
22651,-4.455609,1.312023,-6.186617,-0.029577,0.016654,0.000533
22666,-4.546589,1.288080,-6.141127,-0.026380,0.015322,0.001998
22681,-4.419696,1.371878,-6.177040,-0.032109,0.013456,0.003464
22696,-4.400543,1.323994,-6.205770,-0.029977,0.015588,0.005329
22711,-4.489128,1.319205,-6.107608,-0.028645,0.011591,0.005196
22726,-4.508282,1.278504,-6.138733,-0.027579,0.014256,0.003597
22741,-4.412514,1.302446,-6.136339,-0.030510,0.009726,0.002265
22756,-4.424485,1.357512,-6.141127,-0.030776,0.014389,0.006395
22771,-4.410120,1.338359,-6.191405,-0.030110,0.009992,0.003198
22786,-4.501099,1.316811,-6.198588,-0.030243,0.016787,0.005063
22801,-4.367024,1.367089,-6.133945,-0.028112,0.013057,0.002531
22816,-4.460398,1.343147,-6.162675,-0.028245,0.015588,0.004663
22831,-4.594473,1.302446,-6.119579,-0.031309,0.007594,0.003198
22846,-4.367024,1.388637,-6.136339,-0.033441,0.012124,0.004663
22861,-4.386178,1.424550,-6.138733,-0.033041,0.016387,0.004930
22876,-4.434062,1.414973,-6.160281,-0.028511,0.008394,0.001865
22891,-4.529830,1.285686,-6.126762,-0.030910,0.021983,-0.000133
22906,-4.462792,1.383849,-6.150704,-0.033308,0.013456,0.001599
22921,-4.345476,1.352724,-6.069301,-0.028911,0.019585,0.001865
22936,-4.443638,1.352724,-6.155492,-0.029577,0.014123,0.001332
22951,-4.426879,1.321599,-6.157887,-0.031576,0.008127,0.000799
22966,-4.522647,1.345541,-6.212953,-0.035706,0.014389,0.001066
22981,-4.400543,1.357512,-6.100426,-0.031043,0.011724,0.002798
22996,-4.414908,1.357512,-6.196194,-0.029444,0.023049,-0.000133
23011,-4.431667,1.355118,-6.138733,-0.026913,0.009992,0.002265
23026,-4.474763,1.297657,-6.277597,-0.023582,0.016121,0.001066
23041,-4.340688,1.333570,-6.136339,-0.027979,0.003997,0.003331
23056,-4.434062,1.403002,-6.150704,-0.027446,0.014123,0.006528
23071,-4.510676,1.335965,-6.155492,-0.029044,0.007594,0.005196
23086,-4.529830,1.386243,-6.124368,-0.024781,0.018786,0.002931
23101,-4.367024,1.371878,-6.153098,-0.025847,0.011991,0.004130
23116,-4.367024,1.357512,-6.210559,-0.026247,0.019851,0.003464
23131,-4.517859,1.323994,-6.160281,-0.027312,0.008926,0.006129
23146,-4.503493,1.359907,-6.155492,-0.026247,0.016654,0.005596
23161,-4.414908,1.357512,-6.131550,-0.028378,0.012391,0.003997
23176,-4.309563,1.290475,-6.186617,-0.029311,0.015188,0.001865
23191,-4.455609,1.295263,-6.239290,-0.031576,0.013989,0.002665
23206,-4.486734,1.309628,-6.193799,-0.032242,0.012923,0.002531
23221,-4.424485,1.316811,-6.181828,-0.032242,0.011858,-0.000266
23236,-4.369418,1.367089,-6.126762,-0.031842,0.012790,-0.000533
23251,-4.472369,1.352724,-6.251261,-0.032508,0.010925,0.001332
23266,-4.505888,1.290475,-6.112397,-0.032642,0.007061,-0.000666
23281,-4.448427,1.379060,-6.193799,-0.028511,0.015988,-0.000133
23296,-4.323928,1.350330,-6.196194,-0.027312,0.008660,0.003064
23311,-4.465186,1.319205,-6.110003,-0.031709,0.020384,0.004930
23326,-4.450821,1.288080,-6.124368,-0.030643,0.009060,0.005995
23341,-4.422091,1.371878,-6.193799,-0.031176,0.017187,0.004263
23356,-4.371812,1.381454,-6.186617,-0.032508,0.011058,0.005729
23371,-4.424485,1.410185,-6.160281,-0.032109,0.017853,0.001199
23386,-4.558560,1.326388,-6.212953,-0.030510,0.008793,0.002265
23401,-4.455609,1.309628,-6.093243,-0.030510,0.013989,-0.000133
23416,-4.405331,1.424550,-6.212953,-0.031176,0.020518,-0.001732
23431,-4.309563,1.367089,-6.100426,-0.029844,0.007594,0.001998
23446,-4.551377,1.312023,-6.169858,-0.031709,0.023715,-0.001865
23461,-4.405331,1.333570,-6.196194,-0.031309,0.005329,0.003198
23476,-4.407725,1.458069,-6.256049,-0.031309,0.027979,0.004796
23491,-4.338294,1.319205,-6.100426,-0.024381,0.009326,0.004930
23506,-4.455609,1.300051,-6.177040,-0.025447,0.018919,0.001199
23521,-4.424485,1.367089,-6.100426,-0.026513,0.001732,0.003597
23536,-4.340688,1.359907,-6.205770,-0.029044,0.010658,0.001599
23551,-4.410120,1.405396,-6.265626,-0.026913,0.002665,-0.001732
23566,-4.484340,1.314417,-6.217741,-0.027446,0.002798,-0.003464
23581,-4.589684,1.304840,-6.174646,-0.026913,0.021450,-0.006262
23596,-4.412514,1.328782,-6.081272,-0.024648,0.008127,-0.002798
23611,-4.422091,1.285686,-6.253655,-0.027712,0.017986,-0.003464
23626,-4.493917,1.252167,-6.227318,-0.027579,0.011191,-0.001732
23641,-4.472369,1.221043,-6.244078,-0.037971,-0.002132,0.003997
23656,-4.424485,1.259350,-6.088455,-0.045299,-0.007861,0.002531
23671,-4.402937,1.405396,-6.102820,-0.039969,-0.006928,-0.000400
23686,-4.493917,1.403002,-6.162675,-0.035706,-0.002132,-0.000533
23701,-4.560954,1.347936,-6.090849,-0.025580,0.005462,-0.005729
23716,-4.407725,1.321599,-6.222530,-0.028511,0.006395,-0.005862
23731,-4.381389,1.340753,-6.193799,-0.031176,0.012923,-0.004930
23746,-4.474763,1.302446,-6.141127,-0.026513,0.007194,-0.000533
23761,-4.520253,1.256956,-6.181828,-0.025714,0.012657,0.001599
23776,-4.529830,1.292869,-6.191405,-0.027179,0.017320,0.003198
23791,-4.395754,1.314417,-6.119579,-0.026646,0.011724,0.001332
23806,-4.477157,1.333570,-6.124368,-0.027446,0.024381,0.000799
23821,-4.551377,1.268927,-6.119579,-0.026247,0.009193,0.002531
23836,-4.498705,1.261744,-6.234501,-0.027979,0.023848,0.001732
23851,-4.352659,1.321599,-6.191405,-0.028245,0.010259,-0.000933
23866,-4.364630,1.381454,-6.253655,-0.026779,0.019185,-0.001066
23881,-4.501099,1.326388,-6.224924,-0.023449,0.003464,-0.002931
23896,-4.469975,1.340753,-6.148310,-0.025980,0.012790,-0.000933
23911,-4.410120,1.326388,-6.117185,-0.026380,-0.000533,0.001066
23926,-4.369418,1.225831,-6.224924,-0.036372,-0.004530,0.002931
23941,-4.599261,1.290475,-6.181828,-0.031176,0.003597,0.006395
23956,-4.477157,1.302446,-6.165069,-0.029844,0.000266,0.005329
23971,-4.477157,1.295263,-6.212953,-0.032508,0.018253,0.003331
23986,-4.378995,1.338359,-6.083666,-0.030510,0.005729,0.004930
24001,-4.551377,1.309628,-6.186617,-0.029577,0.024914,0.003064
24016,-4.501099,1.285686,-6.153098,-0.030377,0.009326,0.003730
24031,-4.539406,1.350330,-6.186617,-0.030776,0.019052,0.001199
24046,-4.383783,1.352724,-6.160281,-0.026913,0.006662,0.004263
24061,-4.431667,1.374272,-6.155492,-0.030643,0.018119,0.002798
24076,-4.508282,1.276109,-6.083666,-0.032642,0.011325,0.004930
24091,-4.378995,1.328782,-6.121974,-0.030910,0.015322,0.005862
24106,-4.496311,1.374272,-6.239290,-0.031842,0.017453,0.006662
24121,-4.460398,1.364695,-6.150704,-0.030643,0.003997,0.006928
24136,-4.587290,1.338359,-6.215347,-0.028112,0.021450,0.006928
24151,-4.434062,1.386243,-6.153098,-0.028245,0.001466,0.005729
24166,-4.376601,1.412579,-6.088455,-0.031176,0.012257,0.005063
24181,-4.477157,1.302446,-6.169858,-0.029311,0.007194,0.003597
24196,-4.616021,1.323994,-6.093243,-0.025847,0.013856,0.000933
24211,-4.525041,1.278504,-6.107608,-0.027179,0.016254,0.003064
24226,-4.388572,1.307234,-6.093243,-0.027845,0.020651,0.000266
24241,-4.503493,1.314417,-6.210559,-0.026113,0.016787,0.003331
24256,-4.537012,1.230620,-6.162675,-0.026779,0.019052,0.002665
24271,-4.577713,1.285686,-6.198588,-0.028245,0.024115,0.002265
24286,-4.426879,1.266533,-6.167463,-0.026513,0.017853,0.006262
24301,-4.446033,1.343147,-6.184223,-0.023982,0.015721,0.005462
24316,-4.465186,1.268927,-6.148310,-0.022250,0.013989,0.003464
24331,-4.462792,1.314417,-6.198588,-0.026380,0.010525,0.004263
24346,-4.386178,1.343147,-6.066907,-0.025580,0.005995,0.006928
24361,-4.352659,1.357512,-6.033388,-0.026380,0.014522,0.007328
24376,-4.489128,1.333570,-6.169858,-0.023582,0.010525,0.004930
24391,-4.525041,1.328782,-6.136339,-0.019718,0.019585,0.004397
24406,-4.441244,1.328782,-6.150704,-0.018919,0.021850,0.002665
24421,-4.378995,1.290475,-6.083666,-0.022649,0.013323,0.002931
24436,-4.520253,1.252167,-6.148310,-0.026646,0.020917,0.002931
24451,-4.503493,1.323994,-6.107608,-0.029577,0.012124,0.004796
24466,-4.572925,1.300051,-6.172252,-0.027312,0.016654,0.002398
24481,-4.455609,1.347936,-6.081272,-0.031842,0.009859,0.004796
24496,-4.510676,1.283292,-6.160281,-0.029311,0.022649,0.002665
24511,-4.534618,1.304840,-6.150704,-0.025980,0.019185,0.001332
24526,-4.424485,1.355118,-6.191405,-0.031842,0.023449,0.002265
24541,-4.367024,1.352724,-6.069301,-0.027046,0.021184,0.002132
24556,-4.455609,1.323994,-6.155492,-0.028511,0.014655,0.004397
24571,-4.486734,1.323994,-6.205770,-0.029178,0.015721,0.004397
24586,-4.422091,1.335965,-6.124368,-0.028378,0.013057,0.003997
24601,-4.386178,1.407791,-6.165069,-0.030243,0.012391,0.005995
24616,-4.434062,1.304840,-6.181828,-0.027979,0.013456,0.003597
24631,-4.501099,1.213860,-6.172252,-0.027845,0.011858,0.005462
24646,-4.522647,1.242591,-6.193799,-0.029577,0.019319,0.001199
24661,-4.453215,1.323994,-6.133945,-0.028911,0.017853,0.005196
24676,-4.369418,1.316811,-6.208165,-0.026913,0.019585,0.005329
24691,-4.510676,1.288080,-6.126762,-0.028911,0.015455,0.004530
24706,-4.460398,1.261744,-6.210559,-0.031443,0.014655,0.002132
24721,-4.422091,1.386243,-6.157887,-0.034240,0.012524,0.004930
24736,-4.455609,1.355118,-6.179434,-0.029711,0.010658,0.004930
24751,-4.465186,1.285686,-6.019023,-0.030510,0.008660,0.002132
24766,-4.537012,1.343147,-6.196194,-0.031309,0.013723,0.004397
24781,-4.398149,1.343147,-6.138733,-0.028911,0.013190,0.002398
24796,-4.431667,1.381454,-6.162675,-0.025980,0.015588,-0.000266
24811,-4.479551,1.228225,-6.145916,-0.029178,0.015988,0.003198
24826,-4.431667,1.189918,-6.172252,-0.028778,0.010658,0.004796
24841,-4.446033,1.335965,-6.157887,-0.033708,0.018119,0.006129
24856,-4.479551,1.333570,-6.069301,-0.032375,0.017187,0.007194
24871,-4.484340,1.259350,-6.205770,-0.029577,0.020651,0.004796
24886,-4.546589,1.240196,-6.088455,-0.026113,0.035173,0.004796
24901,-4.474763,1.316811,-6.112397,-0.028378,0.020651,0.004663
24916,-4.407725,1.395820,-6.126762,-0.030510,0.022649,0.005329
24931,-4.508282,1.297657,-6.210559,-0.028511,0.015721,0.005729
24946,-4.505888,1.247379,-6.236896,-0.028778,0.011591,0.003997
24961,-4.431667,1.364695,-6.200982,-0.026513,0.012124,0.003064
24976,-4.393360,1.335965,-6.121974,-0.026913,0.009060,0.005063
24991,-4.453215,1.307234,-6.227318,-0.027046,0.009193,0.003997
25006,-4.544195,1.326388,-6.167463,-0.025447,0.005995,0.005995
25021,-4.469975,1.268927,-6.090849,-0.034240,0.004930,0.008127
25036,-4.419696,1.345541,-6.088455,-0.031576,0.011191,0.004930
25051,-4.467580,1.386243,-6.196194,-0.027446,0.009326,0.001998
25066,-4.553771,1.359907,-6.224924,-0.024648,0.016920,-0.002265
25081,-4.541800,1.302446,-6.200982,-0.024648,0.017587,0.000933
25096,-4.364630,1.276109,-6.160281,-0.029577,0.016387,0.000666
25111,-4.458004,1.345541,-6.153098,-0.028112,0.009193,0.002265
25126,-4.479551,1.259350,-6.150704,-0.026113,0.010392,-0.002265
25141,-4.601655,1.347936,-6.208165,-0.030243,0.015322,0.000933
25156,-4.350265,1.283292,-6.110003,-0.029711,0.007061,0.000133
25171,-4.395754,1.359907,-6.184223,-0.031709,0.020917,-0.000533
25186,-4.532224,1.314417,-6.169858,-0.027579,0.005596,0.002132
25201,-4.534618,1.309628,-6.062119,-0.031709,0.016387,-0.002665
25216,-4.517859,1.335965,-6.126762,-0.029044,0.011858,-0.003997
25231,-4.326323,1.312023,-6.124368,-0.027312,0.009459,0.000799
25246,-4.548983,1.295263,-6.131550,-0.030243,0.018919,-0.001066
25261,-4.489128,1.230620,-6.124368,-0.030776,0.000799,0.001066
25276,-4.477157,1.316811,-6.169858,-0.033708,0.024381,0.000533
25291,-4.374207,1.276109,-6.169858,-0.033441,0.010392,0.002931
25306,-4.441244,1.271321,-6.117185,-0.035706,0.022783,0.003597
25321,-4.620809,1.309628,-6.196194,-0.031043,0.011058,0.003864
25336,-4.429273,1.316811,-6.042965,-0.029977,0.012923,0.001466
25351,-4.367024,1.283292,-6.066907,-0.033708,0.018253,0.005329
25366,-4.462792,1.259350,-6.157887,-0.029444,0.005995,0.004663
25381,-4.565742,1.237802,-6.215347,-0.028245,0.013057,0.007194
25396,-4.426879,1.355118,-6.086061,-0.030510,0.007194,0.006395
25411,-4.458004,1.347936,-6.186617,-0.030110,0.017453,0.006528
25426,-4.460398,1.237802,-6.098032,-0.028378,0.011191,0.007461
25441,-4.522647,1.264138,-6.112397,-0.028378,0.012657,0.006129
25456,-4.462792,1.292869,-6.205770,-0.031043,0.006129,0.009326
25471,-4.378995,1.369483,-6.189011,-0.030377,0.015322,0.005196
25486,-4.458004,1.278504,-6.143521,-0.026646,0.006528,0.005462
25501,-4.477157,1.233014,-6.172252,-0.025047,0.015055,0.004263
25516,-4.534618,1.292869,-6.210559,-0.028245,0.018786,0.001466
25531,-4.422091,1.266533,-6.205770,-0.024248,0.016920,0.000799
25546,-4.479551,1.268927,-6.172252,-0.030377,0.018519,0.001599
25561,-4.520253,1.192312,-6.210559,-0.033308,0.012790,0.007061
25576,-4.541800,1.338359,-6.222530,-0.031309,0.017587,0.006129
25591,-4.484340,1.343147,-6.069301,-0.028112,0.012524,0.003331
25606,-4.472369,1.319205,-6.150704,-0.025580,0.019851,0.003464
25621,-4.465186,1.316811,-6.217741,-0.026913,0.012657,0.001998
25636,-4.522647,1.302446,-6.110003,-0.026247,0.016787,0.001332
25651,-4.448427,1.321599,-6.212953,-0.026913,0.007727,0.002531
25666,-4.357447,1.278504,-6.224924,-0.023049,0.012790,0.000799
25681,-4.510676,1.302446,-6.165069,-0.025847,0.002665,-0.000400
25696,-4.606444,1.297657,-6.181828,-0.030776,0.004130,-0.002665
25711,-4.438850,1.338359,-6.112397,-0.026247,0.002798,-0.002531
25726,-4.429273,1.312023,-6.241684,-0.022116,0.019052,-0.004663
25741,-4.467580,1.221043,-6.145916,-0.016920,0.013456,-0.003730
25756,-4.556166,1.163582,-6.253655,-0.023315,0.017853,-0.001732
25771,-4.505888,1.230620,-6.184223,-0.023582,0.010925,0.003597
25786,-4.388572,1.312023,-6.131550,-0.028911,0.011058,0.004930
25801,-4.529830,1.261744,-6.148310,-0.030910,0.015988,0.002931
25816,-4.537012,1.266533,-6.200982,-0.029711,0.014123,0.001066
25831,-4.453215,1.319205,-6.212953,-0.029444,0.007328,0.001199
25846,-4.376601,1.276109,-6.078878,-0.027845,0.010925,0.000400
25861,-4.474763,1.237802,-6.076484,-0.029711,0.001998,0.001732
25876,-4.584896,1.276109,-6.141127,-0.036106,0.009593,0.005729
25891,-4.474763,1.328782,-6.071695,-0.032508,0.012790,0.003730
25906,-4.460398,1.292869,-6.136339,-0.031975,0.017054,0.005462
25921,-4.434062,1.221043,-6.119579,-0.033308,0.014123,0.004930
25936,-4.565742,1.244985,-6.210559,-0.035440,0.019452,0.009726
25951,-4.479551,1.283292,-6.229712,-0.034907,0.008127,0.007461
25966,-4.410120,1.321599,-6.181828,-0.037971,0.020118,0.007461
25981,-4.398149,1.297657,-6.196194,-0.036772,0.005862,0.005063
25996,-4.529830,1.288080,-6.129156,-0.036106,0.018253,0.005995
26011,-4.560954,1.247379,-6.105214,-0.033708,0.010658,0.002398
26026,-4.431667,1.292869,-6.117185,-0.030510,0.015721,0.003331
26041,-4.491522,1.364695,-6.282385,-0.027179,0.017453,0.003331
26056,-4.481946,1.264138,-6.179434,-0.029977,0.014922,0.002665
26071,-4.572925,1.300051,-6.191405,-0.031709,0.021184,0.004397
26086,-4.481946,1.374272,-6.224924,-0.029577,0.017587,0.008793
26101,-4.429273,1.395820,-6.186617,-0.027845,0.027179,0.006129
26116,-4.498705,1.233014,-6.236896,-0.028112,0.017453,0.005995
26131,-4.532224,1.242591,-6.191405,-0.030643,0.022916,0.004930
26146,-4.460398,1.304840,-6.071695,-0.029044,0.019585,0.004397
26161,-4.410120,1.276109,-6.102820,-0.031576,0.014922,0.008394
26176,-4.505888,1.290475,-6.129156,-0.028778,0.020118,0.003331
26191,-4.520253,1.268927,-6.129156,-0.028911,0.022383,0.002398
26206,-4.426879,1.355118,-6.129156,-0.028778,0.023182,0.007594
26221,-4.383783,1.328782,-6.172252,-0.027046,0.023982,0.002265
26236,-4.443638,1.259350,-6.222530,-0.031576,0.022516,0.004930
26251,-4.548983,1.244985,-6.110003,-0.029711,0.015055,0.006262
26266,-4.513070,1.326388,-6.222530,-0.027845,0.023848,0.002265
26281,-4.412514,1.350330,-6.222530,-0.025447,0.022916,0.005995
26296,-4.426879,1.340753,-6.177040,-0.027579,0.022383,0.002931
26311,-4.503493,1.254562,-6.145916,-0.022516,0.020784,0.002132
26326,-4.544195,1.221043,-6.208165,-0.026779,0.016920,0.000933
26341,-4.331111,1.307234,-6.165069,-0.029178,0.010126,0.006395
26356,-4.453215,1.307234,-6.155492,-0.033308,0.013456,0.004263
26371,-4.450821,1.264138,-6.196194,-0.030510,0.004663,0.005063
26386,-4.505888,1.285686,-6.165069,-0.028645,0.013723,0.003864
26401,-4.412514,1.304840,-6.215347,-0.026247,0.008793,0.004397
26416,-4.400543,1.283292,-6.160281,-0.026513,0.014123,-0.000133
26431,-4.537012,1.268927,-6.198588,-0.030510,0.005995,0.002531
26446,-4.496311,1.211466,-6.117185,-0.031709,0.007861,0.002531
26461,-4.434062,1.278504,-6.112397,-0.036639,0.005862,0.004796
26476,-4.343082,1.364695,-6.203376,-0.036239,0.006795,0.005462
26491,-4.510676,1.273715,-6.193799,-0.032508,0.015188,0.002665
26506,-4.510676,1.233014,-6.009446,-0.029711,0.009459,0.004796
26521,-4.515464,1.292869,-6.215347,-0.031975,0.025181,0.001865
26536,-4.402937,1.285686,-6.078878,-0.027046,0.009060,0.004530
26551,-4.467580,1.256956,-6.169858,-0.031043,0.022516,0.004530
26566,-4.565742,1.254562,-6.222530,-0.032375,0.008926,0.003730
26581,-4.479551,1.252167,-6.212953,-0.030243,0.020118,0.002398
26596,-4.594473,1.233014,-6.177040,-0.027179,0.018253,0.004796
26611,-4.489128,1.216254,-6.062119,-0.032775,0.017853,0.005729
26626,-4.438850,1.276109,-6.186617,-0.033441,0.015322,0.005995
26641,-4.429273,1.276109,-6.124368,-0.031975,0.013323,0.007727
26656,-4.491522,1.312023,-6.179434,-0.030110,0.015855,0.003198
26671,-4.548983,1.264138,-6.196194,-0.028112,0.013323,0.004930
26686,-4.434062,1.340753,-6.119579,-0.033974,0.019851,0.005995
26701,-4.429273,1.369483,-6.196194,-0.029844,0.020651,0.003064
26716,-4.510676,1.268927,-6.172252,-0.024781,0.016521,0.003597
26731,-4.541800,1.285686,-6.200982,-0.027712,0.019052,0.003064
26746,-4.431667,1.268927,-6.136339,-0.029977,0.015188,0.005729
26761,-4.359841,1.312023,-6.193799,-0.034507,0.012923,0.005462
26776,-4.491522,1.264138,-6.315904,-0.032109,0.016787,0.003064
26791,-4.541800,1.273715,-6.131550,-0.029311,0.013590,0.002132
26806,-4.438850,1.278504,-6.174646,-0.032375,0.015455,0.002931
26821,-4.374207,1.288080,-6.172252,-0.030776,0.011724,0.004530
26836,-4.491522,1.312023,-6.224924,-0.032375,0.018652,0.002132
26851,-4.532224,1.233014,-6.222530,-0.033041,0.005596,0.004663
26866,-4.479551,1.268927,-6.102820,-0.034107,0.020118,0.003864
26881,-4.448427,1.323994,-6.155492,-0.030377,0.014389,0.003730
26896,-4.422091,1.314417,-6.184223,-0.028511,0.018919,0.003198
26911,-4.565742,1.242591,-6.095637,-0.032109,0.016521,0.004663
26926,-4.508282,1.240196,-6.129156,-0.031576,0.015721,0.008394
26941,-4.419696,1.295263,-6.124368,-0.033308,0.012790,0.004663
26956,-4.458004,1.323994,-6.071695,-0.031975,0.014655,0.001732
26971,-4.582502,1.254562,-6.160281,-0.029044,0.019452,0.002531
26986,-4.541800,1.314417,-6.167463,-0.027312,0.016787,0.000133
27001,-4.383783,1.343147,-6.100426,-0.026380,0.013856,0.001199
27016,-4.501099,1.307234,-6.241684,-0.026779,0.017187,0.001998
27031,-4.438850,1.237802,-6.193799,-0.032508,0.000933,0.003997
27046,-4.515464,1.266533,-6.200982,-0.032908,0.010126,0.004263
27061,-4.390966,1.302446,-6.143521,-0.031709,0.003331,0.003730
27076,-4.431667,1.302446,-6.217741,-0.029444,0.015855,0.005862
27091,-4.556166,1.247379,-6.227318,-0.025447,0.015455,-0.000266
27106,-4.503493,1.242591,-6.119579,-0.029311,0.018119,0.004263
27121,-4.441244,1.285686,-6.256049,-0.029844,0.021184,0.003730
27136,-4.405331,1.316811,-6.076484,-0.031176,0.011191,0.009459
27151,-4.474763,1.237802,-6.179434,-0.032109,0.021983,0.007727
27166,-4.520253,1.252167,-6.248867,-0.031975,0.005596,0.008660
27181,-4.407725,1.309628,-6.181828,-0.029844,0.015322,0.005063
27196,-4.419696,1.283292,-6.083666,-0.030377,0.009060,0.005196
27211,-4.422091,1.295263,-6.095637,-0.030776,0.014522,0.003198
27226,-4.546589,1.288080,-6.217741,-0.029977,0.013190,0.001332
27241,-4.458004,1.309628,-6.181828,-0.031842,0.015588,0.005063
27256,-4.362236,1.312023,-6.141127,-0.035839,0.015721,-0.000266
27271,-4.472369,1.312023,-6.181828,-0.031709,0.022783,0.003464
27286,-4.544195,1.244985,-6.217741,-0.033308,0.018519,0.003730
27301,-4.450821,1.280898,-6.232107,-0.028511,0.018386,0.006662
27316,-4.402937,1.307234,-6.193799,-0.033841,0.014522,0.004930
27331,-4.424485,1.244985,-6.205770,-0.034640,0.011058,0.004796
27346,-4.520253,1.292869,-6.172252,-0.032908,0.013989,0.005063
27361,-4.508282,1.285686,-6.198588,-0.031043,0.008793,0.004930
27376,-4.412514,1.374272,-6.155492,-0.035440,0.015588,0.005196
27391,-4.424485,1.280898,-6.189011,-0.033441,0.011724,0.003864
27406,-4.515464,1.256956,-6.126762,-0.033841,0.014123,0.002798
27421,-4.522647,1.261744,-6.129156,-0.033841,0.014655,0.004130
27436,-4.410120,1.364695,-6.143521,-0.029444,0.008127,0.002398
27451,-4.474763,1.338359,-6.227318,-0.030110,0.019985,0.001332
27466,-4.503493,1.177947,-6.107608,-0.031443,0.009326,0.004130
27481,-4.529830,1.259350,-6.124368,-0.031975,0.020384,0.001998
27496,-4.462792,1.319205,-6.205770,-0.029044,0.014123,0.003597
27511,-4.371812,1.345541,-6.169858,-0.029711,0.019851,0.002665
27526,-4.501099,1.237802,-6.179434,-0.033574,0.014256,0.005329
27541,-4.462792,1.278504,-6.016629,-0.035972,0.013190,0.005196
27556,-4.477157,1.328782,-6.212953,-0.031975,0.018519,0.002931
27571,-4.388572,1.304840,-6.124368,-0.032508,0.009593,0.002531
27586,-4.460398,1.285686,-6.212953,-0.031309,0.019585,0.001199
27601,-4.527435,1.235408,-6.119579,-0.030776,0.011724,0.002265
27616,-4.450821,1.292869,-6.315904,-0.031576,0.019052,0.002931
27631,-4.331111,1.326388,-6.160281,-0.030510,0.010126,0.002931
27646,-4.453215,1.297657,-6.200982,-0.030510,0.024515,0.002931
27661,-4.584896,1.335965,-6.244078,-0.028378,0.009593,0.002265
27676,-4.441244,1.290475,-6.200982,-0.030643,0.020518,0.000133
27691,-4.465186,1.359907,-6.224924,-0.032242,0.010792,0.003730
27706,-4.335899,1.292869,-6.294356,-0.028245,0.009992,0.004397
27721,-4.534618,1.247379,-6.189011,-0.031709,0.004796,0.007194
27736,-4.460398,1.326388,-6.117185,-0.033441,-0.000799,0.004397
27751,-4.436456,1.383849,-6.210559,-0.030910,0.013190,0.001865
27766,-4.381389,1.338359,-6.110003,-0.023848,0.006129,0.002665
27781,-4.599261,1.307234,-6.217741,-0.027312,0.022649,0.003464
27796,-4.458004,1.276109,-6.200982,-0.024115,0.007594,0.001332
27811,-4.381389,1.307234,-6.148310,-0.031309,0.021184,0.003597
27826,-4.407725,1.326388,-6.167463,-0.030910,0.002531,0.007594
27841,-4.503493,1.218649,-6.186617,-0.030643,0.011458,0.004530
27856,-4.527435,1.347936,-6.167463,-0.029444,0.006528,0.003730
27871,-4.426879,1.307234,-6.143521,-0.030910,0.007727,-0.000533
27886,-4.460398,1.276109,-6.205770,-0.030776,0.012923,0.002531
27901,-4.508282,1.240196,-6.205770,-0.032642,0.005329,0.004263
27916,-4.568137,1.268927,-6.143521,-0.031709,0.013057,0.001199
27931,-4.407725,1.297657,-6.236896,-0.030776,0.009593,0.000666
27946,-4.446033,1.331176,-6.200982,-0.029444,0.014389,0.001466
27961,-4.493917,1.206678,-6.169858,-0.028378,0.015588,0.001998
27976,-4.548983,1.276109,-6.184223,-0.032109,0.016521,0.001466
27991,-4.405331,1.278504,-6.248867,-0.031842,0.012657,0.004130
28006,-4.398149,1.350330,-6.117185,-0.031309,0.008793,0.002665
28021,-4.498705,1.283292,-6.143521,-0.031975,0.008127,0.001732
28036,-4.520253,1.228225,-6.083666,-0.030643,0.011591,0.001199
28051,-4.460398,1.323994,-6.145916,-0.029577,0.007594,0.000933
28066,-4.410120,1.302446,-6.100426,-0.031043,0.011191,-0.002531
28081,-4.467580,1.304840,-6.136339,-0.029577,0.006262,0.002531
28096,-4.527435,1.235408,-6.129156,-0.031443,0.011724,0.002132
28111,-4.486734,1.264138,-6.189011,-0.031043,0.011858,0.000133
28126,-4.424485,1.307234,-6.110003,-0.030910,0.010925,0.002531
28141,-4.513070,1.264138,-6.172252,-0.029444,0.017054,0.003331
28156,-4.513070,1.254562,-6.224924,-0.029711,0.010792,0.002798
28171,-4.503493,1.355118,-6.177040,-0.029711,0.013856,0.002132
28186,-4.383783,1.321599,-6.160281,-0.028778,0.009593,0.003198
28201,-4.438850,1.264138,-6.160281,-0.031443,0.008793,0.003198
28216,-4.560954,1.302446,-6.098032,-0.032109,0.002665,0.000933
28231,-4.544195,1.261744,-6.177040,-0.033974,0.014256,0.003597
28246,-4.443638,1.314417,-6.153098,-0.033841,0.009992,0.004663
28261,-4.513070,1.319205,-6.148310,-0.028245,0.015721,0.002931
28276,-4.469975,1.264138,-6.203376,-0.031443,0.012790,0.002398
28291,-4.594473,1.271321,-6.241684,-0.033841,0.018386,0.005462
28306,-4.419696,1.276109,-6.136339,-0.034107,0.010658,0.006662
28321,-4.465186,1.288080,-6.102820,-0.032642,0.021184,0.003198
28336,-4.551377,1.276109,-6.160281,-0.033974,0.014256,0.006795
28351,-4.491522,1.307234,-6.119579,-0.033974,0.011724,0.002931
28366,-4.458004,1.295263,-6.181828,-0.031043,0.018919,0.001599
28381,-4.407725,1.355118,-6.090849,-0.029311,0.007594,0.003198
28396,-4.465186,1.276109,-6.143521,-0.026646,0.020384,0.002531
28411,-4.563348,1.297657,-6.107608,-0.032375,0.007061,0.001998
28426,-4.458004,1.244985,-6.208165,-0.031842,0.010525,0.004796
28441,-4.419696,1.295263,-6.088455,-0.028645,0.013057,0.003331
28456,-4.460398,1.264138,-6.224924,-0.031309,0.019985,0.002531
28471,-4.505888,1.304840,-6.138733,-0.027712,0.020784,0.002665
28486,-4.544195,1.331176,-6.038177,-0.027579,0.019052,0.003864
28501,-4.434062,1.371878,-6.110003,-0.028511,0.020651,0.005995
28516,-4.460398,1.194707,-6.129156,-0.033974,0.014922,0.006795
28531,-4.568137,1.249773,-6.189011,-0.032242,0.017187,0.007994
28546,-4.546589,1.254562,-6.145916,-0.031709,0.016121,0.007194
28561,-4.374207,1.292869,-6.177040,-0.029178,0.017720,0.004263
28576,-4.438850,1.264138,-6.083666,-0.028511,0.017187,0.002665
28591,-4.546589,1.228225,-6.160281,-0.030243,0.016387,0.004397
28606,-4.486734,1.307234,-6.083666,-0.029044,0.016521,0.003597
28621,-4.441244,1.307234,-6.227318,-0.030377,0.017986,0.001066
28636,-4.386178,1.233014,-6.119579,-0.026513,0.019851,0.005329
28651,-4.508282,1.254562,-6.169858,-0.028645,0.022516,0.005329
28666,-4.563348,1.292869,-6.258443,-0.033041,0.025447,0.005196
28681,-4.419696,1.256956,-6.124368,-0.029844,0.017320,0.007461
