T,AX,AY,AZ,GX,GY,GZ
46,-5.719748,-0.464475,-5.698200,0.009060,0.104187,-0.022383
61,-5.544971,-0.433351,-5.650316,0.007594,0.112314,-0.016387
76,-5.451597,-0.421380,-5.518635,0.010126,0.104453,-0.007061
91,-5.286397,-0.488417,-5.336676,-0.002931,0.063951,0.012257
106,-5.116409,-0.442927,-5.327099,-0.015322,0.013190,0.028245
121,-5.262455,-0.545878,-5.427655,-0.019851,-0.020917,0.033175
136,-5.523423,-0.471658,-5.456386,0.002531,-0.015721,0.014256
151,-5.592855,-0.555455,-5.533000,0.035839,0.013323,-0.024115
166,-5.379771,-0.701501,-5.513846,0.031043,0.040769,-0.044632
181,-5.310339,-0.715866,-5.554548,0.012790,0.050495,-0.052493
196,-5.384560,-0.646434,-5.422867,0.018652,-0.000133,-0.058755
211,-5.370194,-0.665588,-5.418078,-0.002531,-0.010126,-0.048629
226,-5.528212,-0.569820,-5.595249,-0.009459,-0.029044,-0.032508
241,-5.616797,-0.615310,-5.712565,-0.036505,-0.014922,-0.005196
256,-5.667075,-0.629675,-5.662287,-0.066216,0.025181,0.023315
271,-5.688623,-0.531513,-5.664681,-0.076208,0.048896,0.028511
286,-5.487510,-0.421380,-5.633556,-0.058622,0.086734,0.005329
301,-5.319916,-0.342371,-5.494693,-0.019319,0.080205,-0.026646
316,-5.250484,-0.488417,-5.451597,0.005862,0.067948,-0.040103
331,-5.202600,-0.486023,-5.279215,0.015588,0.022916,-0.041302
346,-5.181052,-0.529119,-5.427655,0.011058,-0.027179,-0.027312
361,-5.291186,-0.579397,-5.410896,-0.003064,-0.061819,-0.002931
376,-5.667075,-0.615310,-5.568913,-0.048763,-0.057822,0.025847
391,-6.078878,-0.691924,-5.944803,-0.094461,0.005862,0.047697
406,-5.975927,-0.605733,-6.057330,-0.119109,0.108717,0.044100
421,-5.635951,-0.426168,-5.932832,-0.121507,0.158012,0.036505
436,-5.269638,-0.325611,-5.686229,-0.094328,0.144956,0.019718
451,-5.190629,-0.217872,-5.477933,-0.043700,0.101922,0.003198
466,-5.140351,-0.246603,-5.360618,0.016387,0.050894,-0.015322
481,-5.023035,-0.447716,-5.343858,0.060221,-0.013057,-0.019185
496,-5.092467,-0.586579,-5.331887,0.062619,-0.080072,-0.009193
511,-5.336676,-0.749385,-5.458780,0.033974,-0.117110,0.013590
526,-5.516241,-0.471658,-5.453991,0.029044,-0.148420,0.014256
541,-5.822699,-0.562637,-5.650316,0.059688,-0.096326,-0.005462
556,-5.906496,-0.773327,-6.030994,0.075009,-0.011325,-0.033441
571,-5.942409,-1.055843,-6.088455,0.046764,0.065949,-0.050495
586,-5.947197,-1.074997,-5.997475,-0.013989,0.095793,-0.052093
601,-5.595249,-0.914585,-5.796362,-0.054625,0.109116,-0.046897
616,-5.382165,-0.756568,-5.614403,-0.073943,0.094328,-0.035706
631,-5.377377,-0.617704,-5.533000,-0.068214,0.067815,-0.017720
646,-5.190629,-0.507571,-5.379771,-0.060354,0.034374,-0.003997
661,-5.238513,-0.466869,-5.439626,-0.055291,0.007461,-0.001066
676,-5.434838,-0.383072,-5.533000,-0.014256,-0.020917,-0.015721
691,-5.566519,-0.462081,-5.571307,0.025447,-0.004796,-0.042501
706,-5.494693,-0.474052,-5.647922,0.050095,0.029178,-0.055158
721,-5.396531,-0.766145,-5.700594,0.020384,0.057556,-0.036905
736,-5.365406,-0.890643,-5.612009,-0.047031,0.067948,-0.005862
751,-5.305551,-0.782904,-5.592855,-0.090064,0.056890,0.019185
766,-5.207388,-0.507571,-5.571307,-0.088466,0.034640,0.006795
781,-5.212177,-0.294487,-5.571307,-0.041035,0.026646,-0.025980
796,-5.468357,-0.591368,-5.657498,-0.013323,0.011991,-0.034240
811,-5.475539,-0.438139,-5.566519,-0.024248,0.015322,-0.027446
826,-5.561730,-0.476446,-5.705382,-0.009726,0.041701,-0.024515
841,-5.434838,-0.577003,-5.760449,-0.023582,0.068481,-0.008127
856,-5.406107,-0.474052,-5.602432,-0.022116,0.086467,0.002798
871,-5.243302,-0.514753,-5.566519,-0.024515,0.069413,0.016521
886,-5.190629,-0.392649,-5.382165,-0.013989,0.015588,0.026113
901,-5.109226,-0.330400,-5.504270,0.021850,-0.021184,0.021717
916,-5.334281,-0.691924,-5.588067,0.029977,-0.030643,0.028645
931,-5.516241,-0.821211,-5.734113,-0.004530,-0.029977,0.042634
946,-5.607220,-0.708684,-5.779603,-0.026247,0.000133,0.037172
961,-5.619191,-0.763750,-5.995081,-0.027446,0.053292,0.020917
976,-5.442020,-0.778116,-5.767632,-0.032908,0.088199,0.008660
991,-5.408502,-0.715866,-5.664681,-0.030510,0.095793,-0.001599
1006,-5.197812,-0.696713,-5.580884,-0.016920,0.040502,0.007594
1021,-5.090073,-0.708684,-5.444415,-0.033175,-0.004663,0.022916
1036,-5.264850,-0.560243,-5.360618,-0.038770,-0.033574,0.031709
1051,-5.398925,-0.426168,-5.640739,-0.003331,-0.041701,0.024914
1066,-5.638345,-0.548272,-5.813122,0.043700,-0.020118,-0.005729
1081,-5.580884,-0.730232,-5.863400,0.043966,0.019718,-0.027179
1096,-5.619191,-0.816423,-5.920861,0.031709,0.052493,-0.031975
1111,-5.667075,-0.972046,-5.889736,-0.016920,0.084602,-0.017453
1126,-5.547365,-1.041478,-5.856217,-0.081271,0.092596,0.014256
1141,-5.322310,-1.055843,-5.566519,-0.130966,0.058489,0.031975
1156,-5.236119,-0.703895,-5.556942,-0.166672,0.042234,0.033041
1171,-5.190629,-0.471658,-5.439626,-0.133764,0.007727,0.011458
1186,-5.183446,-0.210690,-5.351041,-0.046764,-0.002665,-0.019052
1201,-5.080496,-0.198719,-5.420473,0.052227,-0.049562,-0.047564
1216,-5.169081,-0.332794,-5.552154,0.116844,-0.069147,-0.061686
1231,-5.592855,-0.816423,-5.621585,0.105253,-0.036639,-0.043700
1246,-5.801151,-1.347936,-5.693411,-0.030510,0.048763,0.021450
1261,-5.580884,-1.156399,-5.767632,-0.183726,0.056224,0.069680
1276,-5.513846,-0.715866,-5.858612,-0.219698,0.137894,0.059954
1291,-5.197812,-0.608127,-5.554548,-0.133631,0.104453,-0.006928
1306,-4.963180,-0.021548,-5.533000,-0.075276,0.052493,-0.028245
1321,-5.238513,-0.201113,-5.597643,0.046764,-0.010658,-0.041568
1336,-5.001487,-0.335188,-5.372589,0.099923,-0.058755,-0.042900
1351,-5.439626,-0.713472,-5.583278,0.114446,-0.076475,-0.032775
1366,-5.631162,-0.945710,-5.863400,0.056490,-0.022649,-0.017720
1381,-5.602432,-0.873884,-5.834670,0.011458,0.028112,-0.008926
1396,-5.525817,-0.876278,-5.808333,-0.017453,0.082204,-0.023182
1411,-5.233725,-0.706289,-5.784391,-0.046231,0.110182,-0.020384
1426,-5.276821,-0.679953,-5.650316,-0.034507,0.061553,-0.013190
1441,-5.269638,-0.593762,-5.595249,-0.054492,0.031443,0.017986
1456,-5.240908,-0.593762,-5.614403,-0.037838,0.018919,0.029444
1471,-5.200206,-0.430956,-5.602432,-0.025181,0.002931,0.045299
1486,-5.370194,-0.502782,-5.655104,0.009593,-0.009060,0.032375
1501,-5.628768,-0.672771,-5.868188,0.031576,0.021850,-0.001865
1516,-5.626374,-0.890643,-5.872977,0.025847,0.020784,-0.019718
1531,-5.566519,-1.132457,-5.896919,-0.043833,0.082870,-0.009060
1546,-5.535394,-0.837971,-5.904101,-0.088732,0.107384,0.010525
1561,-5.398925,-0.672771,-5.767632,-0.076075,0.102988,0.004663
1576,-5.193023,-0.565032,-5.590461,-0.053825,0.088998,-0.006395
1591,-5.063736,-0.466869,-5.619191,-0.015988,0.050228,-0.012524
1606,-5.102044,-0.581791,-5.576096,0.022649,0.002398,-0.019851
1621,-5.331887,-0.737414,-5.707777,0.029044,-0.034374,-0.019585
1636,-5.410896,-0.833182,-5.777209,0.018786,-0.017986,-0.030243
1651,-5.434838,-1.015141,-5.980716,-0.022783,0.018519,-0.027446
1666,-5.382165,-0.818817,-5.820304,-0.049562,0.051028,-0.027446
1681,-5.348647,-0.703895,-5.774815,-0.068747,0.056357,-0.024515
1696,-5.355829,-0.600945,-5.707777,-0.046098,0.044100,-0.016387
1711,-5.166687,-0.538695,-5.616797,-0.025714,0.038371,-0.009859
1726,-5.193023,-0.660800,-5.683835,0.001199,0.020118,-0.013323
1741,-5.245696,-0.651223,-5.705382,0.025447,0.011058,-0.011325
1756,-5.513846,-0.763750,-5.798757,0.025580,0.012790,-0.015455
1771,-5.300763,-0.751779,-5.808333,0.020784,0.025181,-0.027845
1786,-5.372589,-0.845153,-5.805939,-0.001599,0.061686,-0.024381
1801,-5.324705,-0.799663,-5.659893,-0.036505,0.063152,-0.008660
1816,-5.382165,-0.651223,-5.633556,-0.046364,0.051694,0.006262
1831,-5.171475,-0.445322,-5.489904,-0.026113,0.048629,0.003597
1846,-4.991910,-0.505177,-5.566519,0.005462,0.029844,-0.001865
1861,-5.104438,-0.644040,-5.691017,0.037571,-0.021184,-0.007727
1876,-5.317522,-0.725443,-5.580884,0.045299,-0.025714,-0.010525
1891,-5.465962,-0.826000,-5.825093,0.046764,-0.011058,-0.016920
1906,-5.358223,-1.010353,-5.861006,0.030377,0.028645,-0.014655
1921,-5.245696,-1.012747,-5.758055,-0.002665,0.058355,-0.002931
1936,-5.307945,-0.873884,-5.652710,-0.011991,0.020651,0.003730
1951,-5.185841,-0.809240,-5.664681,-0.019985,0.028112,0.011325
1966,-5.142745,-0.804452,-5.597643,-0.010658,0.006795,0.009193
1981,-5.193023,-0.854730,-5.743690,0.014389,-0.010126,-0.005862
1996,-5.506664,-0.933739,-5.858612,0.022383,-0.019985,-0.025980
2011,-5.420473,-0.943315,-5.770026,0.011191,-0.006395,-0.032642
2026,-5.351041,-1.055843,-5.829881,-0.015855,0.038237,-0.033841
2041,-5.276821,-0.885855,-5.839458,-0.059954,0.051694,-0.010925
2056,-5.384560,-0.909797,-5.544971,-0.065949,0.055691,-0.000133
2071,-5.161899,-0.660800,-5.547365,-0.053292,0.038504,0.001599
2086,-5.224148,-0.735020,-5.669469,-0.026380,0.024914,-0.001466
2101,-5.111620,-0.845153,-5.662287,-0.012391,0.013190,-0.005063
2116,-5.284003,-0.960075,-5.781997,-0.006262,-0.021317,-0.008527
2131,-5.444415,-0.823605,-5.930438,-0.013856,-0.004930,-0.007328
2146,-5.521029,-0.790087,-5.856217,-0.008260,0.027712,-0.019985
2161,-5.331887,-0.890643,-5.813122,-0.030643,0.068348,-0.016920
2176,-5.348647,-0.737414,-5.870583,-0.043833,0.082603,-0.006395
2191,-5.272032,-0.682347,-5.817910,-0.030910,0.075542,0.002265
2206,-5.161899,-0.739808,-5.583278,-0.015455,0.078074,0.002931
2221,-4.994305,-0.725443,-5.580884,-0.030910,0.078340,0.016254
2236,-4.934450,-0.914585,-5.468357,-0.015721,0.028645,0.026913
2251,-4.908113,-0.749385,-5.418078,-0.025314,0.000799,0.022383
2266,-4.970363,-0.569820,-5.504270,0.026380,-0.063018,-0.003864
2281,-4.982334,-0.600945,-5.489904,0.112714,-0.109116,-0.051827
2296,-5.360618,-1.058237,-5.741296,0.101256,-0.113646,-0.052093
2311,-5.513846,-1.046266,-5.837064,0.039170,-0.069413,-0.017054
2326,-5.770026,-1.146823,-5.944803,-0.015988,0.006662,0.003997
2341,-5.432444,-1.070208,-5.911284,-0.051161,0.081005,0.003597
2356,-5.188235,-1.003170,-5.844246,-0.081671,0.090597,-0.001332
2371,-5.066131,-0.847547,-5.643133,-0.072345,0.056357,-0.004130
2386,-4.977545,-0.778116,-5.525817,-0.038770,0.005862,-0.008926
2401,-4.900931,-0.782904,-5.456386,-0.013856,-0.065150,-0.001865
2416,-5.233725,-0.787692,-5.590461,0.015855,-0.086067,-0.017320
2431,-5.583278,-0.928950,-5.887342,0.028378,-0.049029,-0.025714
2446,-5.846641,-1.280898,-5.997475,-0.006528,0.015855,-0.020651
2461,-5.458780,-1.034295,-5.930438,-0.067948,0.092729,-0.006528
2476,-5.315128,-0.833182,-5.851429,-0.056890,0.103654,-0.022116
2491,-5.176264,-0.854730,-5.667075,-0.035972,0.064084,-0.037172
2506,-5.173870,-0.806846,-5.556942,-0.034907,0.019585,-0.025447
2521,-4.939238,-0.711078,-5.559336,-0.033308,-0.019452,-0.004796
2536,-5.092467,-0.806846,-5.434838,-0.026779,-0.067149,0.014655
2551,-5.193023,-0.881066,-5.530606,-0.018386,-0.072877,0.015588
2566,-5.525817,-0.905008,-5.767632,-0.011058,-0.075542,0.008793
2581,-5.647922,-0.945710,-5.913678,-0.003730,-0.016787,-0.000799
2596,-5.676652,-1.132457,-6.035782,-0.038104,0.055957,0.002132
2611,-5.540183,-1.206678,-5.973533,-0.064217,0.082337,0.005862
2626,-5.489904,-1.132457,-5.889736,-0.090597,0.099257,-0.001998
2641,-5.035006,-0.596156,-5.523423,-0.059421,0.062619,0.008793
2656,-5.092467,-0.656011,-5.628768,-0.014922,0.027312,0.004530
2671,-5.070919,-0.797269,-5.616797,-0.002398,-0.003997,0.017054
2686,-5.334281,-1.039083,-5.576096,-0.017453,-0.030377,0.025980
2701,-5.451597,-1.067814,-5.762844,-0.074343,0.005329,0.033175
2716,-5.465962,-0.986411,-5.863400,-0.095394,0.036505,0.015721
2731,-5.317522,-0.916979,-5.777209,-0.088732,0.092596,-0.004530
2746,-5.224148,-0.905008,-5.801151,-0.076741,0.080605,-0.020917
2761,-4.984728,-0.593762,-5.643133,-0.058489,0.022783,-0.018253
2776,-5.118803,-0.545878,-5.635951,-0.013323,-0.019052,-0.001466
2791,-5.255273,-0.766145,-5.693411,-0.003997,-0.030643,0.022916
2806,-5.439626,-0.869095,-5.834670,-0.015721,-0.025047,0.037838
2821,-5.554548,-0.943315,-5.899313,-0.046897,0.040769,0.038237
2836,-5.353435,-0.912191,-5.918467,-0.060487,0.094328,0.021983
2851,-4.984728,-0.864307,-5.851429,-0.057423,0.086600,-0.001732
2866,-4.967968,-0.751779,-5.535394,-0.041568,0.045565,-0.005995
2881,-5.073313,-0.746991,-5.535394,-0.004930,-0.012923,-0.015188
2896,-4.972757,-0.890643,-5.489904,0.022250,-0.064617,-0.013456
2911,-5.157110,-0.737414,-5.559336,0.019052,-0.058089,0.014922
2926,-5.458780,-1.063026,-5.753267,0.008127,-0.048230,0.030776
2941,-5.559336,-1.149217,-5.734113,-0.044366,0.007461,0.036372
2956,-5.391742,-1.024718,-5.908890,-0.066083,0.075009,0.010259
2971,-5.063736,-0.804452,-5.770026,-0.044632,0.026380,-0.022250
2986,-5.058948,-0.792481,-5.705382,-0.020518,0.003997,-0.035706
3001,-5.219359,-0.790087,-5.738902,0.019985,-0.046098,-0.041035
3016,-5.379771,-0.878672,-5.736507,0.008926,-0.047963,-0.017453
3031,-5.554548,-1.007959,-5.932832,-0.040103,-0.017720,0.023449
3046,-5.477933,-0.885855,-5.872977,-0.066882,0.013456,0.039303
3061,-5.576096,-0.928950,-5.901707,-0.057423,0.051294,0.020784
3076,-5.382165,-0.694318,-5.906496,-0.042368,0.072611,-0.004130
3091,-5.197812,-0.725443,-5.609614,-0.010392,0.076608,-0.015322
3106,-5.001487,-0.670376,-5.434838,0.013856,0.033041,-0.006662
3121,-5.114015,-0.847547,-5.602432,0.038371,-0.013989,0.006795
3136,-5.262455,-1.086968,-5.674258,0.044233,-0.027312,0.008926
3151,-5.214571,-1.204283,-5.743690,-0.015988,-0.025314,0.023315
3166,-5.463568,-1.115698,-5.880159,-0.067681,-0.007861,0.022116
3181,-5.542577,-0.976834,-5.985504,-0.080205,0.034107,0.004796
3196,-5.600038,-0.914585,-5.899313,-0.076475,0.069813,-0.009459
3211,-5.370194,-0.873884,-5.880159,-0.066882,0.067681,0.001466
3226,-5.183446,-0.691924,-5.772420,-0.072345,0.061686,0.019985
3241,-5.238513,-0.699107,-5.693411,-0.015855,0.018386,0.030243
3256,-5.312734,-0.830788,-5.695806,0.001066,0.000000,0.031443
3271,-5.327099,-0.809240,-5.595249,0.003864,-0.013323,0.031176
3286,-5.200206,-0.986411,-5.571307,-0.012524,-0.002531,0.021717
3301,-5.212177,-0.883460,-5.413290,-0.027046,0.011724,0.012391
3316,-5.061342,-0.969652,-5.370194,-0.021983,-0.004397,0.005196
3331,-5.109226,-0.790087,-5.355829,-0.011458,-0.007994,-0.002931
3346,-4.915296,-0.950498,-5.556942,-0.004397,-0.004263,-0.000933
3361,-5.023035,-1.156399,-5.513846,-0.040636,-0.037438,0.013590
3376,-5.236119,-0.991199,-5.774815,-0.056090,-0.046231,0.012790
3391,-5.355829,-0.998382,-5.770026,-0.053559,-0.049029,-0.000799
3406,-5.406107,-0.797269,-5.849035,-0.051694,-0.042900,-0.016521
3421,-5.516241,-0.739808,-5.834670,-0.039836,-0.019985,-0.024248
3436,-5.683835,-0.737414,-5.992687,-0.027312,0.009992,-0.021850
3451,-5.602432,-0.775721,-5.779603,-0.017187,0.025314,-0.008926
3466,-5.521029,-0.806846,-5.889736,-0.026380,0.048230,-0.001865
3481,-5.401319,-0.780510,-5.698200,-0.042501,0.077541,0.011724
3496,-5.173870,-0.924162,-5.662287,-0.054358,0.071545,0.012524
3511,-5.135562,-0.845153,-5.602432,-0.067415,0.031975,0.018253
3526,-4.967968,-0.656011,-5.662287,-0.044632,-0.018919,0.008394
3541,-5.068525,-0.620098,-5.693411,0.004663,-0.044499,-0.014789
3556,-5.425261,-0.821211,-5.892130,0.035839,-0.053559,-0.030910
3571,-5.559336,-0.869095,-5.940014,0.043300,-0.013190,-0.028778
3586,-5.688623,-1.086968,-6.002264,0.011191,0.053159,-0.019985
3601,-5.355829,-1.067814,-6.040571,-0.043833,0.091397,0.009726
3616,-5.315128,-0.921768,-5.868188,-0.055557,0.093662,0.026646
3631,-5.319916,-0.861913,-5.695806,-0.057689,0.083403,0.038904
3646,-5.188235,-0.732626,-5.473145,-0.043300,0.066482,0.033041
3661,-5.027823,-0.926556,-5.444415,-0.032375,0.046231,0.036106
3676,-4.917690,-1.000776,-5.379771,-0.044233,0.014256,0.034907
3691,-5.118803,-1.017536,-5.322310,-0.078606,-0.009859,0.051427
3706,-5.135562,-0.957681,-5.391742,-0.091397,-0.007727,0.047297
3721,-4.891354,-0.696713,-5.427655,-0.063818,-0.017986,0.030243
3736,-4.972757,-0.644040,-5.626374,0.003331,-0.062086,-0.004263
3751,-5.181052,-0.749385,-5.600038,0.035573,-0.088732,-0.021317
3766,-5.348647,-0.969652,-5.774815,0.046098,-0.110848,-0.014389
3781,-5.554548,-1.019930,-5.925649,0.016654,-0.079939,0.004130
3796,-5.612009,-0.998382,-6.083666,0.016121,-0.033041,-0.002665
3811,-5.760449,-1.130063,-6.162675,-0.007994,0.032375,-0.010259
3826,-5.700594,-1.053449,-6.287174,-0.045165,0.054758,-0.004530
3841,-5.669469,-0.979228,-6.042965,-0.079672,0.064617,0.018253
3856,-5.470751,-0.854730,-5.829881,-0.111515,0.088199,0.033308
3871,-5.509058,-0.785298,-5.786786,-0.089398,0.089931,0.036106
3886,-5.430049,-0.950498,-5.609614,-0.082204,0.077008,0.037172
3901,-5.221754,-0.792481,-5.595249,-0.104720,0.092729,0.042767
3916,-4.958392,-0.500388,-5.477933,-0.052493,0.051694,0.035173
3931,-4.910508,-0.639252,-5.418078,-0.002398,0.015322,0.016121
3946,-5.123591,-0.718261,-5.461174,0.044499,-0.031975,-0.009992
3961,-5.157110,-0.758962,-5.487510,0.067282,-0.045032,-0.016121
3976,-5.463568,-0.811634,-5.590461,0.056090,-0.015855,-0.008793
3991,-5.391742,-1.053449,-5.729324,0.043034,0.036505,-0.002398
4006,-5.339070,-1.201889,-5.774815,0.008926,0.063285,0.000400
4021,-5.236119,-1.225831,-5.635951,-0.045698,0.050628,0.019585
4036,-4.891354,-0.940921,-5.497087,-0.077407,0.035040,0.031309
4051,-5.154716,-0.706289,-5.638345,-0.061686,-0.004796,0.030243
4066,-5.343858,-0.854730,-5.657498,-0.044632,-0.033974,0.025181
4081,-5.465962,-0.792481,-5.779603,-0.039570,-0.041835,0.027845
4096,-5.607220,-0.814029,-5.832275,-0.022516,0.000533,0.012524
4111,-5.568913,-0.837971,-5.973533,-0.013856,0.079539,-0.007194
4126,-5.307945,-1.003170,-5.779603,-0.012257,0.094727,-0.011325
4141,-5.166687,-0.952892,-5.607220,-0.028378,0.071678,-0.008260
4156,-5.068525,-0.857124,-5.415684,-0.027312,0.030110,-0.003997
4171,-4.970363,-0.933739,-5.389348,-0.017320,-0.003064,-0.011858
4186,-5.025429,-0.821211,-5.398925,-0.003597,-0.023582,-0.018253
4201,-5.149928,-0.895431,-5.461174,0.029044,-0.080605,-0.026513
4216,-5.312734,-1.022324,-5.626374,-0.001332,-0.086600,-0.014789
4231,-5.537788,-1.122881,-5.791574,-0.049029,-0.056890,0.007461
4246,-5.813122,-1.276109,-6.110003,-0.119242,0.059021,0.039436
4261,-5.626374,-1.244985,-6.035782,-0.163075,0.137761,0.054625
4276,-5.149928,-0.885855,-5.832275,-0.166539,0.140559,0.058222
4291,-4.920084,-0.622492,-5.683835,-0.120574,0.082070,0.039703
4306,-4.888960,-0.560243,-5.640739,-0.029178,-0.001332,-0.001998
4321,-5.044583,-0.744597,-5.480328,0.009859,-0.047297,-0.018519
4336,-5.046977,-0.830788,-5.470751,0.026913,-0.096726,-0.033441
4351,-5.291186,-0.828394,-5.592855,0.046364,-0.114845,-0.063152
4366,-5.463568,-0.900220,-5.712565,0.035706,-0.083270,-0.072877
4381,-5.817910,-1.194707,-5.968745,-0.012391,-0.009726,-0.062752
4396,-5.576096,-1.139640,-5.882554,-0.079806,0.051161,-0.023315
4411,-5.442020,-1.015141,-5.920861,-0.135230,0.069014,0.021717
4426,-5.183446,-0.761356,-5.801151,-0.161743,0.049296,0.050095
4441,-5.377377,-0.605733,-5.844246,-0.138427,0.032508,0.048763
4456,-5.343858,-0.359130,-5.640739,-0.073011,0.021717,0.035839
4471,-5.204994,-0.452504,-5.559336,-0.007727,0.012790,0.017587
4486,-5.078102,-0.646434,-5.607220,0.030776,0.003597,0.000666
4501,-5.181052,-0.775721,-5.669469,0.039170,0.001599,-0.005196
4516,-5.212177,-0.849942,-5.544971,0.057023,-0.015588,-0.027179
4531,-5.209783,-0.919373,-5.521029,0.044632,0.015322,-0.039570
4546,-5.102044,-0.926556,-5.465962,0.020251,0.017587,-0.037438
4561,-4.996699,-0.972046,-5.367800,-0.008394,0.000400,-0.023315
4576,-4.963180,-0.811634,-5.336676,-0.030243,-0.050894,0.004796
4591,-5.176264,-0.735020,-5.537788,-0.025980,-0.090198,0.027312
4606,-5.279215,-0.758962,-5.640739,-0.012657,-0.108450,0.034640
4621,-5.746084,-0.943315,-5.877765,-0.002531,-0.089398,0.026779
4636,-5.930438,-1.192312,-6.153098,-0.043433,0.000400,0.024248
4651,-5.714959,-1.022324,-6.074090,-0.087666,0.060620,0.023982
4666,-5.612009,-0.833182,-5.971139,-0.096726,0.099524,0.022916
4681,-5.521029,-0.624887,-5.753267,-0.057023,0.091130,0.018652
4696,-5.202600,-0.636858,-5.612009,-0.025847,0.054891,0.027979
4711,-5.121197,-0.830788,-5.571307,-0.028112,0.025314,0.048896
4726,-5.207388,-1.034295,-5.544971,-0.079406,0.010259,0.088199
4741,-5.461174,-1.237802,-5.600038,-0.177064,0.021450,0.137228
4756,-5.195417,-1.003170,-5.501875,-0.242348,0.017187,0.160277
4771,-5.111620,-0.418985,-5.578490,-0.181594,0.017853,0.114446
4786,-5.243302,-0.399832,-5.770026,-0.042368,-0.005462,0.025847
4801,-5.331887,-0.514753,-5.829881,0.066216,-0.043034,-0.042234
4816,-5.449203,-0.924162,-5.951985,0.077141,-0.020651,-0.060087
4831,-5.415684,-0.995988,-5.801151,0.022250,-0.020651,-0.030643
4846,-5.712565,-1.058237,-6.033388,-0.040502,0.043034,0.012657
4861,-5.700594,-0.840365,-5.935226,-0.082470,0.073544,0.041168
4876,-5.523423,-0.696713,-5.837064,-0.061819,0.096459,0.037438
4891,-5.374983,-0.766145,-5.750873,-0.080472,0.110982,0.052227
4906,-5.204994,-0.679953,-5.540183,-0.091930,0.081804,0.062352
4921,-5.221754,-0.761356,-5.573701,-0.096859,0.069014,0.061420
4936,-5.056554,-0.639252,-5.509058,-0.088332,0.022383,0.057023
4951,-4.984728,-0.505177,-5.540183,-0.059021,-0.011058,0.038770
4966,-5.087678,-0.514753,-5.631162,0.004397,-0.051827,0.012124
4981,-5.262455,-0.481235,-5.566519,0.046631,-0.054092,-0.010792
4996,-5.415684,-0.603339,-5.743690,0.096859,-0.070879,-0.039703
5011,-5.580884,-0.847547,-6.086061,0.069946,-0.029577,-0.035040
5026,-5.619191,-0.964863,-6.004658,0.020518,0.046897,-0.013456
5041,-5.805939,-1.027112,-6.098032,-0.025847,0.073677,0.006129
5056,-5.662287,-1.086968,-5.932832,-0.087933,0.142691,0.031709
5071,-5.382165,-0.826000,-5.770026,-0.135096,0.153749,0.062885
5086,-5.157110,-0.464475,-5.602432,-0.106185,0.123106,0.068081
5101,-5.221754,-0.715866,-5.623980,-0.112047,0.131100,0.080605
5116,-5.073313,-0.438139,-5.571307,-0.091530,0.086867,0.079273
5131,-4.953603,-0.411803,-5.528212,-0.030776,0.055025,0.043567
5146,-4.879383,-0.409408,-5.602432,0.020917,0.005995,0.007861
5161,-4.991910,-0.507571,-5.518635,0.087133,-0.057023,-0.026113
5176,-5.255273,-0.840365,-5.777209,0.095793,-0.061553,-0.049296
5191,-5.576096,-0.940921,-5.801151,0.074743,-0.047430,-0.051294
5206,-5.604826,-1.067814,-5.935226,-0.000533,0.023049,-0.017054
5221,-5.442020,-0.881066,-6.011840,-0.058222,0.053959,0.020251
5236,-5.659893,-0.962469,-5.942409,-0.105652,0.108184,0.046364
5251,-5.348647,-0.641646,-5.722142,-0.114579,0.129368,0.055824
5266,-5.106832,-0.632069,-5.659893,-0.081005,0.133764,0.046897
5281,-4.853047,-0.720655,-5.494693,-0.059688,0.100190,0.030910
5296,-4.876989,-0.723049,-5.291186,-0.026380,0.042101,0.013057
5311,-4.934450,-0.766145,-5.200206,-0.006395,-0.005063,-0.005995
5326,-4.855441,-0.653617,-5.181052,0.006795,-0.050761,-0.015855
5341,-4.829105,-0.639252,-5.252879,0.040103,-0.082470,-0.027446
5356,-5.109226,-0.758962,-5.480328,0.075276,-0.098858,-0.031975
5371,-5.147533,-0.814029,-5.506664,0.090331,-0.107384,-0.033308
5386,-5.303157,-1.189918,-5.647922,0.067948,-0.071412,-0.030776
5401,-5.195417,-1.601721,-5.920861,-0.046764,-0.048096,0.009326
5416,-5.305551,-1.405396,-5.942409,-0.154415,-0.014789,0.027845
5431,-5.492299,-1.187524,-6.076484,-0.192919,-0.012923,0.018919
5446,-5.456386,-0.746991,-5.997475,-0.225560,0.000133,0.021051
5461,-5.255273,-0.325611,-5.935226,-0.171069,-0.014256,0.003464
5476,-5.351041,-0.316035,-5.901707,-0.090464,-0.009593,-0.021051
5491,-5.341464,-0.356736,-5.870583,-0.033175,-0.041701,-0.035839
5506,-5.300763,-0.430956,-5.906496,0.002798,-0.054092,-0.037838
5521,-5.406107,-0.433351,-5.973533,0.009193,-0.049296,-0.027845
5536,-5.621585,-0.600945,-6.030994,0.005196,-0.001332,-0.016387
5551,-5.628768,-0.694318,-6.007052,-0.019052,0.040636,-0.001599
5566,-5.549759,-0.711078,-5.999869,-0.046364,0.082470,-0.000933
5581,-5.293580,-0.651223,-5.815516,-0.067815,0.093528,0.001066
5596,-5.212177,-0.521936,-5.810728,-0.066749,0.059821,0.013590
5611,-5.245696,-0.538695,-5.786786,-0.051427,0.019452,0.024781
5626,-5.425261,-0.435745,-5.633556,-0.056490,0.027845,0.039570
5641,-5.449203,-0.347159,-5.781997,-0.012257,0.007328,0.033041
5656,-5.437232,-0.545878,-5.798757,0.004263,0.046897,0.022649
5671,-5.475539,-0.684742,-5.832275,0.000266,0.085534,0.023182
5686,-5.252879,-0.706289,-5.583278,-0.018386,0.097792,0.016121
5701,-4.886566,-0.567426,-5.451597,-0.007994,0.076342,0.008260
5716,-4.786009,-0.569820,-5.331887,0.017453,0.003464,-0.001998
5731,-4.908113,-0.483629,-5.434838,0.077407,-0.066083,-0.015188
5746,-5.276821,-0.861913,-5.533000,0.104720,-0.108850,-0.023049
5761,-5.482722,-1.130063,-5.662287,0.048629,-0.081005,-0.006129
5776,-5.758055,-1.285686,-5.992687,-0.041435,0.008127,0.013723
5791,-5.521029,-1.101333,-5.966351,-0.097659,0.078873,0.009859
5806,-5.516241,-0.893037,-5.899313,-0.099524,0.120308,-0.018119
5821,-5.226542,-0.708684,-5.712565,-0.078207,0.076208,-0.029178
5836,-5.054160,-0.639252,-5.607220,-0.063285,0.045032,-0.015988
5851,-5.020641,-0.478840,-5.492299,-0.017054,-0.008527,0.000666
5866,-5.231330,-0.751779,-5.650316,0.013190,-0.038904,0.003331
5881,-5.140351,-0.608127,-5.444415,0.037172,-0.038237,-0.013856
5896,-5.051765,-0.584185,-5.430049,0.081538,-0.064750,-0.051827
5911,-5.173870,-0.885855,-5.509058,0.086201,-0.093928,-0.063285
5926,-5.250484,-1.130063,-5.463568,0.015721,-0.082204,-0.029311
5941,-5.281609,-0.995988,-5.554548,-0.046631,-0.092196,0.011325
5956,-5.226542,-0.907402,-5.734113,-0.076208,-0.097659,0.039436
5971,-5.415684,-0.895431,-6.021417,-0.074609,-0.116977,0.054758
5986,-5.904101,-0.912191,-6.239290,-0.112847,-0.058489,0.077008
6001,-6.198588,-0.708684,-6.521805,-0.137761,0.055824,0.083802
6016,-6.107608,-0.486023,-6.531382,-0.115911,0.187323,0.069413
6031,-5.667075,-0.426168,-6.359000,-0.094194,0.253939,0.058355
6046,-5.451597,-0.395043,-5.942409,-0.059421,0.265397,0.049962
6061,-5.233725,-0.481235,-5.755661,-0.026380,0.239683,0.044499
6076,-4.845864,-0.553061,-5.554548,-0.001466,0.168005,0.038371
6091,-4.790798,-0.620098,-5.403713,-0.010792,0.074876,0.043700
6106,-4.876989,-0.593762,-5.494693,-0.014789,0.007594,0.035972
6121,-5.011064,-0.579397,-5.449203,0.011858,-0.027179,0.011458
6136,-5.114015,-0.648829,-5.482722,0.052360,-0.045565,-0.025181
6151,-5.166687,-0.742203,-5.631162,0.076342,-0.032642,-0.067681
6166,-5.269638,-0.837971,-5.753267,0.094194,0.011591,-0.101522
6181,-5.506664,-1.063026,-5.585672,0.052227,0.058489,-0.080338
6196,-5.221754,-1.039083,-5.633556,-0.003064,0.088865,-0.041035
6211,-4.977545,-0.878672,-5.461174,-0.027979,0.063951,-0.000933
6226,-4.843470,-0.969652,-5.444415,-0.051028,0.007727,0.026779
6241,-5.058948,-0.864307,-5.461174,-0.080472,-0.020784,0.049296
6256,-5.159504,-0.794875,-5.492299,-0.076475,-0.042767,0.049828
6271,-5.121197,-0.890643,-5.552154,-0.078340,-0.056357,0.042900
6286,-5.260061,-0.818817,-5.643133,-0.081937,-0.002798,0.004663
6301,-5.444415,-0.900220,-5.827487,-0.048629,0.021717,-0.043567
6316,-5.209783,-0.924162,-5.827487,-0.047830,0.016387,-0.068348
6331,-5.193023,-0.840365,-5.825093,-0.047297,0.011991,-0.088199
6346,-5.236119,-0.775721,-5.712565,-0.055557,-0.000533,-0.089265
6361,-5.255273,-0.758962,-5.777209,-0.054758,-0.008926,-0.075009
6376,-5.260061,-0.596156,-5.607220,-0.059688,-0.034507,-0.049429
6391,-5.339070,-0.629675,-5.894525,-0.082737,-0.039303,-0.011325
6406,-5.494693,-0.612916,-5.968745,-0.096326,-0.011991,0.016121
6421,-5.616797,-0.689530,-6.076484,-0.089265,0.069547,0.019319
6436,-5.470751,-0.797269,-6.019023,-0.094061,0.118842,0.003198
6451,-5.054160,-0.610521,-5.966351,-0.060354,0.090198,-0.032908
6466,-4.850653,-0.569820,-5.722142,-0.026646,0.043034,-0.065150
6481,-4.963180,-0.569820,-5.758055,0.021850,-0.028245,-0.086067
6496,-5.125986,-0.711078,-5.638345,0.042368,-0.074743,-0.083669
6511,-5.312734,-0.735020,-5.695806,0.013456,-0.075142,-0.045965
6526,-5.434838,-0.758962,-5.817910,-0.011191,-0.046098,0.001599
6541,-5.518635,-0.531513,-5.894525,-0.030643,0.016254,0.029178
6556,-5.410896,-0.457293,-5.655104,0.018519,0.030510,0.021983
6571,-5.248090,-0.713472,-5.643133,0.056224,0.014389,0.005063
6586,-5.106832,-1.077391,-5.607220,0.019718,0.030110,0.004397
6601,-5.073313,-1.175553,-5.602432,-0.038104,0.019851,0.004397
6616,-5.238513,-1.221043,-5.544971,-0.089531,0.029844,-0.009060
6631,-5.116409,-0.991199,-5.410896,-0.117377,0.015721,-0.015988
6646,-5.035006,-0.768539,-5.470751,-0.113247,-0.009459,-0.024914
6661,-5.056554,-0.653617,-5.453991,-0.081937,-0.020251,-0.027312
6676,-5.161899,-0.711078,-5.559336,-0.085534,-0.029577,-0.000533
6691,-5.439626,-0.586579,-5.851429,-0.104453,-0.025314,0.045965
6706,-5.353435,-0.490811,-5.973533,-0.069946,-0.012124,0.067815
6721,-5.511452,-0.679953,-5.966351,-0.086867,0.034640,0.096193
6736,-5.535394,-0.548272,-5.925649,-0.090730,0.075942,0.109116
6751,-5.470751,-0.639252,-5.880159,-0.064351,0.090331,0.093662
6766,-5.080496,-0.814029,-5.631162,-0.061020,0.115511,0.049562
6781,-4.893748,-0.866701,-5.578490,-0.053159,0.074210,0.002531
6796,-4.929661,-0.960075,-5.597643,-0.036639,-0.005862,-0.050095
6811,-5.125986,-0.964863,-5.650316,-0.038237,-0.069280,-0.068081
6826,-5.410896,-0.878672,-5.810728,-0.060487,-0.085135,-0.059821
6841,-5.566519,-0.617704,-5.770026,-0.065150,-0.043034,-0.046231
6856,-5.796362,-0.679953,-6.021417,-0.094994,0.055291,-0.014256
6871,-5.573701,-0.318429,-5.978322,-0.068081,0.096992,0.018519
6886,-5.475539,-0.251391,-5.894525,-0.009193,0.101389,0.028645
6901,-5.267244,-0.390255,-5.916072,0.002798,0.097792,0.059021
6916,-5.202600,-0.500388,-5.884948,0.020651,0.081804,0.079672
6931,-5.260061,-0.667982,-5.796362,0.011058,0.084868,0.091930
6946,-5.035006,-0.921768,-5.731719,-0.005596,0.081404,0.063551
6961,-4.821922,-0.895431,-5.451597,-0.014389,0.047564,0.011591
6976,-4.718971,-0.926556,-5.549759,-0.018652,0.010259,-0.042767
6991,-4.912902,-0.821211,-5.559336,0.016920,-0.048629,-0.098191
7006,-5.164293,-0.979228,-5.619191,0.029577,-0.072078,-0.125104
7021,-5.331887,-0.931344,-5.803545,-0.029844,-0.055424,-0.090198
7036,-5.379771,-0.852336,-5.920861,-0.092596,-0.014256,-0.033974
7051,-5.564125,-0.720655,-5.937620,-0.101922,0.012923,0.002931
7066,-5.525817,-0.514753,-5.801151,-0.113380,0.071279,0.026779
7081,-5.329493,-0.363919,-5.868188,-0.083802,0.086867,0.027845
7096,-5.164293,-0.462081,-5.758055,-0.061020,0.081937,0.027712
7111,-5.090073,-0.567426,-5.762844,-0.045565,0.064617,0.019185
7126,-5.039794,-0.758962,-5.858612,-0.060221,0.041302,0.023982
7141,-4.977545,-0.543484,-5.741296,-0.057822,-0.001466,0.018786
7156,-4.922479,-0.478840,-5.695806,-0.038237,-0.027845,0.009992
7171,-5.293580,-0.421380,-5.834670,-0.019585,-0.044499,0.014389
7186,-5.693411,-0.524330,-6.066907,-0.027046,0.024248,0.031309
7201,-5.659893,-0.457293,-6.086061,-0.037172,0.085534,0.042900
7216,-5.451597,-0.519542,-6.078878,-0.015455,0.154415,0.020917
7231,-5.183446,-0.555455,-5.784391,-0.000799,0.177064,0.003864
7246,-4.944026,-0.622492,-5.635951,-0.002398,0.175998,0.005995
7261,-4.637568,-0.715866,-5.430049,0.015588,0.098591,0.017853
7276,-4.522647,-0.861913,-5.382165,0.010259,0.008527,0.035972
7291,-4.659116,-0.869095,-5.339070,0.005995,-0.082470,0.031975
7306,-5.207388,-0.974440,-5.667075,-0.001865,-0.095660,0.014789
7321,-5.449203,-1.130063,-5.796362,-0.038104,-0.046498,0.000000
7336,-5.334281,-0.859518,-5.901707,-0.064484,-0.006928,-0.007727
7351,-5.322310,-0.725443,-5.937620,-0.047564,0.025980,-0.036505
7366,-5.382165,-0.730232,-5.956774,-0.039969,0.037571,-0.039969
7381,-5.185841,-0.488417,-5.755661,-0.013323,0.023315,-0.025181
7396,-4.960786,-0.553061,-5.580884,0.016787,0.003331,-0.024381
7411,-4.867412,-0.727837,-5.499481,0.024115,-0.038904,-0.026113
7426,-5.039794,-0.725443,-5.669469,0.027046,-0.061686,-0.048629
7441,-5.434838,-0.857124,-5.822699,0.038504,-0.057156,-0.072744
7456,-5.485116,-0.924162,-6.042965,0.008127,-0.041835,-0.070479
7471,-5.511452,-0.885855,-6.179434,-0.031975,0.023315,-0.062885
7486,-5.702988,-1.027112,-6.279991,-0.074743,0.101256,-0.049562
7501,-5.355829,-0.768539,-6.054936,-0.090331,0.126703,-0.032508
7516,-5.274426,-0.603339,-5.949591,-0.091397,0.111515,-0.011591
7531,-4.797980,-0.395043,-5.540183,-0.049695,0.044233,0.013590
7546,-4.845864,-0.421380,-5.521029,-0.008926,0.001998,0.021184
7561,-5.046977,-0.526724,-5.530606,0.026913,-0.054092,0.008394
7576,-5.023035,-0.591368,-5.487510,0.070879,-0.045832,-0.032242
7591,-5.044583,-0.773327,-5.822699,0.091796,-0.031842,-0.076475
7606,-5.092467,-0.972046,-5.822699,0.099257,-0.032642,-0.098058
7621,-5.176264,-1.165976,-5.789180,0.051427,-0.021850,-0.094861
7636,-5.288792,-1.120486,-5.801151,0.000000,-0.023582,-0.073011
7651,-5.315128,-0.914585,-5.808333,-0.067149,-0.010792,-0.019718
7666,-5.248090,-0.909797,-5.827487,-0.101922,0.020784,0.024515
7681,-5.346252,-0.718261,-5.777209,-0.120308,0.047430,0.051028
7696,-5.264850,-0.483629,-5.743690,-0.068081,0.033841,0.035040
7711,-5.039794,-0.629675,-5.810728,-0.021450,0.014389,0.004397
7726,-5.116409,-0.684742,-5.793968,0.014522,-0.007061,-0.018786
7741,-5.252879,-0.785298,-5.882554,0.043034,0.003997,-0.041168
7756,-5.377377,-0.962469,-5.868188,0.035706,0.017720,-0.049429
7771,-5.243302,-0.940921,-5.772420,0.016254,0.040103,-0.047963
7786,-5.099649,-0.972046,-5.671864,-0.027712,0.013590,-0.034773
7801,-5.209783,-0.837971,-5.676652,-0.066083,0.015588,-0.005862
7816,-5.327099,-0.790087,-5.947197,-0.093262,0.028378,0.018253
7831,-5.233725,-0.806846,-5.695806,-0.094461,0.021583,0.027845
7846,-5.075707,-0.574608,-5.849035,-0.062885,0.039303,0.016254
7861,-5.164293,-0.766145,-5.861006,-0.013190,0.032375,-0.018253
7876,-5.360618,-0.861913,-5.882554,-0.002398,0.025047,-0.028778
7891,-5.185841,-0.885855,-5.849035,-0.001332,0.035040,-0.029178
7906,-5.013458,-0.804452,-5.810728,-0.005462,-0.003997,-0.017587
7921,-5.082890,-0.816423,-5.920861,-0.001599,-0.003864,-0.020384
7936,-5.212177,-0.746991,-5.796362,0.037038,-0.030643,-0.032642
7951,-5.276821,-0.809240,-5.810728,0.047430,-0.024115,-0.042234
7966,-5.346252,-0.962469,-5.880159,0.034107,-0.012124,-0.042634
7981,-5.291186,-1.091756,-5.805939,-0.018519,0.022783,-0.021717
7996,-5.367800,-1.051054,-5.717353,-0.084735,0.056757,0.004130
8011,-5.224148,-0.804452,-5.655104,-0.089665,0.068881,0.009459
8026,-4.934450,-0.725443,-5.492299,-0.062485,0.068081,0.005063
8041,-4.738125,-0.687136,-5.487510,-0.039969,0.031443,-0.004130
8056,-4.829105,-0.730232,-5.556942,-0.007061,-0.034240,-0.013856
8071,-5.078102,-0.921768,-5.652710,0.013590,-0.064884,-0.025181
8086,-5.142745,-0.967257,-5.777209,0.008926,-0.069946,-0.027312
8101,-5.245696,-0.905008,-5.870583,-0.013856,-0.060487,-0.015721
8116,-5.444415,-0.916979,-6.114791,-0.025714,-0.025181,0.007594
8131,-5.770026,-0.893037,-6.210559,-0.048496,0.040502,0.035972
8146,-5.679046,-0.861913,-6.136339,-0.111248,0.134697,0.078207
8161,-5.276821,-0.780510,-5.928043,-0.111381,0.182793,0.081538
8176,-5.001487,-0.756568,-5.726930,-0.100590,0.177997,0.068747
8191,-4.879383,-0.773327,-5.401319,-0.086734,0.121107,0.058089
8206,-4.616021,-0.687136,-5.343858,-0.058755,0.058355,0.046498
8221,-4.496311,-0.706289,-5.255273,-0.026913,-0.025980,0.032242
8236,-4.675876,-0.761356,-5.415684,-0.012124,-0.091530,0.022250
8251,-5.159504,-0.811634,-5.542577,0.018786,-0.111648,-0.001199
8266,-5.307945,-0.895431,-5.805939,0.037438,-0.083403,-0.031443
8281,-5.430049,-0.964863,-6.009446,0.028245,-0.041168,-0.050894
8296,-5.439626,-1.031901,-5.983110,-0.000266,0.008660,-0.041835
8311,-5.518635,-0.995988,-6.088455,-0.052227,0.045965,0.005462
8326,-5.432444,-0.802058,-6.119579,-0.068881,0.056623,0.046098
8341,-5.173870,-0.699107,-5.963956,-0.041968,0.048096,0.047430
8356,-5.137957,-0.811634,-5.839458,-0.035706,0.046631,0.040636
8371,-5.204994,-0.995988,-5.738902,-0.039170,0.019851,0.040236
8386,-5.166687,-1.048660,-5.623980,-0.061153,0.010525,0.033574
8401,-4.982334,-0.821211,-5.592855,-0.066482,0.008127,0.021184
8416,-4.934450,-0.723049,-5.547365,-0.017320,-0.034640,-0.010658
8431,-5.037400,-0.828394,-5.614403,-0.003464,-0.059288,-0.026113
8446,-5.001487,-0.916979,-5.607220,0.016387,-0.098991,-0.033574
8461,-5.193023,-0.785298,-5.736507,-0.007061,-0.121107,-0.004530
8476,-5.451597,-0.706289,-5.913678,-0.016387,-0.099391,0.020917
8491,-5.779603,-0.816423,-6.215347,-0.002132,0.000933,0.017853
8506,-5.724536,-1.082179,-6.236896,-0.031176,0.089798,0.015721
8521,-5.449203,-1.043872,-6.150704,-0.049296,0.096726,0.004930
8536,-5.252879,-0.979228,-5.949591,-0.081005,0.107518,0.001332
8551,-5.245696,-0.895431,-5.746084,-0.101922,0.086467,0.001998
8566,-5.171475,-0.950498,-5.734113,-0.115378,0.061686,0.004530
8581,-5.061342,-0.706289,-5.640739,-0.108717,0.044632,0.004397
8596,-4.876989,-0.569820,-5.655104,-0.068614,0.000400,-0.003997
8611,-5.044583,-0.555455,-5.561730,-0.026779,-0.031975,-0.007061
8626,-5.331887,-0.682347,-5.650316,0.013190,-0.037038,-0.015055
8641,-5.370194,-0.830788,-5.853823,0.014789,-0.011191,-0.027446
8656,-5.245696,-0.797269,-5.726930,-0.003997,0.019851,-0.037571
8671,-5.331887,-0.893037,-5.712565,-0.019452,0.040103,-0.036106
8686,-5.130774,-0.794875,-5.650316,-0.028511,0.051560,-0.030776
8701,-4.934450,-0.737414,-5.559336,-0.020651,0.023715,-0.024781
8716,-4.951209,-0.799663,-5.544971,-0.018519,-0.009992,-0.019585
8731,-5.049371,-0.924162,-5.638345,-0.034907,-0.026113,-0.010925
8746,-5.061342,-0.823605,-5.585672,-0.048363,-0.069014,0.007727
8761,-5.204994,-0.914585,-5.707777,-0.086734,-0.050361,0.041701
8776,-5.248090,-0.763750,-5.856217,-0.100190,0.013723,0.054358
8791,-5.250484,-0.792481,-5.954380,-0.064884,0.034640,0.029711
8806,-5.109226,-0.804452,-5.815516,-0.039303,0.007594,0.006795
8821,-5.075707,-0.739808,-5.734113,-0.038237,0.014123,-0.011458
8836,-4.984728,-0.806846,-5.621585,-0.037971,-0.008260,-0.010525
8851,-5.020641,-0.814029,-5.511452,-0.047830,-0.021717,-0.004263
8866,-5.080496,-0.670376,-5.540183,-0.041302,-0.053959,0.007194
8881,-4.967968,-0.605733,-5.513846,-0.019851,-0.095926,0.009459
8896,-5.209783,-0.670376,-5.633556,0.005063,-0.114179,0.008127
8911,-5.585672,-0.849942,-5.882554,-0.001865,-0.081671,0.012524
8926,-5.667075,-1.036689,-6.040571,-0.038104,-0.022383,0.017986
8941,-5.458780,-0.924162,-6.076484,-0.059021,0.012391,0.013590
8956,-5.365406,-0.943315,-6.066907,-0.082870,0.034240,0.009593
8971,-5.303157,-0.792481,-5.858612,-0.071678,0.022250,-0.000400
8986,-5.449203,-0.615310,-5.810728,-0.063285,0.004397,0.009459
9001,-5.322310,-0.617704,-5.815516,-0.034773,-0.000666,0.019985
9016,-5.310339,-0.723049,-5.849035,-0.019985,0.009459,0.033441
9031,-5.322310,-0.809240,-5.834670,-0.026779,0.016121,0.040502
9046,-5.482722,-0.840365,-5.801151,-0.023582,0.013323,0.029577
9061,-5.334281,-0.799663,-5.691017,-0.017720,0.030110,0.007194
9076,-5.161899,-0.790087,-5.669469,-0.004397,0.027579,-0.015455
9091,-5.140351,-0.873884,-5.619191,-0.005196,0.010126,-0.029044
9106,-5.219359,-0.909797,-5.645527,-0.011591,-0.012790,-0.028511
9121,-5.374983,-0.816423,-5.588067,-0.025714,-0.028245,-0.011591
9136,-5.324705,-0.782904,-5.645527,-0.056623,-0.022116,0.026247
9151,-5.341464,-0.696713,-5.724536,-0.072078,-0.013057,0.053825
9166,-5.592855,-0.799663,-5.978322,-0.090064,0.035040,0.069813
9181,-5.480328,-0.603339,-5.908890,-0.073544,0.062352,0.061686
9196,-5.327099,-0.603339,-5.882554,-0.035573,0.086334,0.025980
9211,-5.307945,-0.658405,-5.805939,0.000133,0.088599,-0.002931
9226,-5.252879,-0.749385,-5.702988,0.024248,0.072345,-0.012524
9241,-5.216965,-1.046266,-5.588067,0.005329,0.061153,-0.008660
9256,-4.888960,-0.888249,-5.461174,-0.010525,0.011591,-0.011724
9271,-4.860229,-0.797269,-5.458780,-0.011858,-0.031176,-0.022649
9286,-5.078102,-0.794875,-5.461174,0.019585,-0.084469,-0.046098
9301,-5.336676,-0.837971,-5.504270,0.041302,-0.083270,-0.069547
9316,-5.408502,-1.010353,-5.597643,0.010658,-0.074476,-0.051028
9331,-5.422867,-1.029507,-5.798757,-0.052626,-0.031842,-0.013456
9346,-5.518635,-0.730232,-5.863400,-0.076608,-0.001865,0.015322
9361,-5.679046,-0.567426,-5.920861,-0.033841,0.021317,0.011325
9376,-5.554548,-0.574608,-5.839458,0.009992,0.066616,0.002132
9391,-5.353435,-0.787692,-5.901707,-0.004930,0.076475,0.017187
9406,-5.322310,-0.847547,-5.841852,-0.038904,0.070879,0.039969
9421,-5.281609,-0.811634,-5.650316,-0.062086,0.061286,0.059554
9436,-5.250484,-0.826000,-5.640739,-0.073144,0.070346,0.055957
9451,-4.896142,-0.749385,-5.475539,-0.064484,0.066083,0.037438
9466,-4.671087,-0.727837,-5.315128,-0.035972,0.005063,0.012790
9481,-4.740520,-0.756568,-5.339070,-0.010392,-0.057289,-0.013723
9496,-4.977545,-0.766145,-5.477933,0.015988,-0.132965,-0.029711
9511,-5.102044,-0.782904,-5.549759,0.048763,-0.157080,-0.045165
9526,-5.485116,-0.905008,-5.844246,0.027845,-0.122306,-0.030243
9541,-5.908890,-1.125275,-6.227318,-0.026380,-0.024115,0.003997
9556,-5.753267,-1.017536,-6.165069,-0.078740,0.050495,0.039170
9571,-5.597643,-0.837971,-6.191405,-0.103521,0.104320,0.045032
9586,-5.341464,-0.770933,-6.083666,-0.106319,0.106319,0.039570
9601,-5.257667,-0.725443,-5.889736,-0.078740,0.070879,0.019452
9616,-5.291186,-0.763750,-5.798757,-0.039170,0.028378,-0.002665
9631,-5.312734,-0.701501,-5.822699,-0.011724,-0.006795,-0.014922
9646,-5.401319,-0.718261,-5.813122,0.003864,-0.011724,-0.027712
9661,-5.523423,-0.713472,-5.810728,0.001998,0.015855,-0.028645
9676,-5.564125,-0.782904,-5.837064,-0.002931,0.037172,-0.027845
9691,-5.398925,-0.871489,-5.614403,-0.043966,0.078207,-0.020118
9706,-5.118803,-0.811634,-5.458780,-0.052893,0.076208,-0.013723
9721,-4.855441,-0.679953,-5.413290,-0.055957,0.046897,-0.012790
9736,-4.855441,-0.471658,-5.303157,-0.007727,-0.018919,-0.024381
9751,-4.970363,-0.598550,-5.331887,0.059288,-0.084069,-0.049296
9766,-5.159504,-0.861913,-5.470751,0.079406,-0.106851,-0.053292
9781,-5.386954,-1.233014,-5.659893,0.011325,-0.060221,-0.017587
9796,-5.554548,-1.175553,-5.887342,-0.063551,-0.013190,0.030110
9811,-5.523423,-0.909797,-5.882554,-0.087799,0.029178,0.036772
9826,-5.463568,-0.677559,-6.030994,-0.051827,0.058888,0.011858
9841,-5.343858,-0.746991,-5.944803,-0.027046,0.039969,-0.012391
9856,-5.446809,-0.859518,-5.861006,-0.030776,0.028645,-0.011591
9871,-5.382165,-0.814029,-5.837064,-0.045832,0.019851,0.003864
9886,-5.391742,-0.612916,-5.710171,-0.053026,0.024381,0.013989
9901,-5.269638,-0.620098,-5.815516,-0.025714,0.022916,0.003331
9916,-5.250484,-0.658405,-5.693411,0.004530,0.015855,-0.010658
9931,-5.446809,-0.725443,-5.647922,0.038104,-0.001599,-0.021051
9946,-5.351041,-0.859518,-5.623980,0.047697,-0.017320,-0.024515
9961,-5.384560,-0.924162,-5.741296,0.029444,0.010392,-0.020917
9976,-5.410896,-0.991199,-5.707777,0.018119,0.045299,-0.027046
9991,-5.336676,-0.955286,-5.681440,0.014522,0.029577,-0.039836
10006,-5.312734,-0.895431,-5.600038,0.020651,0.028511,-0.044100
10021,-5.252879,-1.036689,-5.544971,0.011458,0.011191,-0.026380
10036,-5.245696,-1.134852,-5.592855,-0.047564,0.026247,0.019319
10051,-5.420473,-0.962469,-5.686229,-0.093262,0.065683,0.062352
10066,-5.154716,-0.840365,-5.533000,-0.088865,0.058755,0.067015
10081,-4.908113,-0.746991,-5.612009,-0.053559,0.050761,0.041835
10096,-4.979939,-0.754174,-5.583278,0.007194,-0.001599,0.001066
10111,-5.133168,-1.067814,-5.600038,0.017587,-0.026779,-0.026646
10126,-5.238513,-1.034295,-5.623980,-0.005063,-0.037838,-0.032642
10141,-5.236119,-1.012747,-5.760449,-0.024381,-0.033974,-0.028778
10156,-5.341464,-0.931344,-5.798757,-0.041835,-0.015721,-0.029178
10171,-5.559336,-0.897826,-5.856217,-0.036372,0.011458,-0.035972
10186,-5.494693,-0.938527,-5.762844,-0.043567,0.044632,-0.040103
10201,-5.310339,-0.830788,-5.810728,-0.041302,0.059288,-0.037438
10216,-5.195417,-0.782904,-5.655104,-0.043300,0.064084,-0.024115
10231,-5.171475,-0.708684,-5.588067,-0.041302,0.054758,-0.003730
10246,-5.023035,-0.658405,-5.413290,-0.024781,0.024781,0.015855
10261,-4.900931,-0.586579,-5.327099,0.006395,-0.021051,0.024381
10276,-4.903325,-0.768539,-5.310339,0.031043,-0.062485,0.018519
10291,-5.082890,-0.895431,-5.322310,0.041701,-0.076208,0.002798
10306,-5.355829,-1.005565,-5.499481,0.039969,-0.087000,-0.005329
10321,-5.401319,-1.213860,-5.765238,-0.021983,-0.029844,-0.000133
10336,-5.374983,-1.144428,-5.849035,-0.057423,-0.000133,-0.000933
10351,-5.305551,-1.113304,-5.980716,-0.098458,0.023182,0.014655
10366,-5.446809,-0.895431,-5.808333,-0.111648,0.010126,0.029977
10381,-5.379771,-0.634463,-5.834670,-0.080472,-0.012790,0.034907
10396,-5.351041,-0.646434,-5.872977,-0.047430,-0.013456,0.039836
10411,-5.506664,-0.691924,-5.872977,-0.021317,-0.016254,0.052760
10426,-5.640739,-0.742203,-5.956774,-0.002798,0.002798,0.050228
10441,-5.640739,-0.806846,-5.935226,0.015988,0.046764,0.025980
10456,-5.473145,-0.940921,-5.906496,0.030910,0.077807,-0.000666
10471,-5.245696,-1.134852,-5.753267,0.000000,0.100723,-0.006662
10486,-5.173870,-1.142034,-5.540183,-0.035573,0.077407,-0.005063
10501,-5.054160,-1.005565,-5.475539,-0.061953,0.037571,-0.001332
10516,-4.967968,-0.782904,-5.430049,-0.049962,-0.016521,-0.012790
10531,-5.046977,-0.775721,-5.420473,-0.018386,-0.053559,-0.020784
10546,-5.284003,-0.883460,-5.410896,-0.011058,-0.078473,-0.010126
10561,-5.511452,-0.859518,-5.734113,-0.011591,-0.079539,0.000400
10576,-5.662287,-0.885855,-5.822699,-0.030243,-0.026113,0.026113
10591,-5.645527,-0.847547,-6.019023,-0.017986,0.040636,0.026513
10606,-5.679046,-0.861913,-6.083666,0.002265,0.113113,0.016387
10621,-5.561730,-1.154005,-5.947197,-0.009992,0.132299,0.009593
10636,-5.346252,-1.211466,-5.638345,-0.055691,0.122440,0.009992
10651,-5.092467,-1.115698,-5.604826,-0.094328,0.089531,0.014922
10666,-5.087678,-0.940921,-5.451597,-0.112447,0.049828,0.022116
10681,-5.161899,-0.842759,-5.516241,-0.107251,0.014123,0.012124
10696,-5.058948,-0.699107,-5.516241,-0.076208,-0.025181,-0.007861
10711,-5.125986,-0.577003,-5.518635,-0.030643,-0.030910,-0.035173
10726,-5.114015,-0.624887,-5.473145,0.006662,-0.049828,-0.045299
10741,-5.233725,-0.730232,-5.444415,0.028911,-0.047830,-0.041968
10756,-5.367800,-0.849942,-5.638345,0.013723,-0.043300,-0.016121
10771,-5.384560,-0.854730,-5.717353,-0.024914,-0.027046,0.019185
10786,-5.408502,-0.919373,-5.810728,-0.054092,0.050894,0.046631
10801,-5.542577,-0.938527,-5.971139,-0.053426,0.064217,0.043567
10816,-5.331887,-0.979228,-5.918467,-0.045165,0.061686,0.025714
10831,-5.178658,-0.909797,-5.705382,-0.048629,0.050361,0.015322
10846,-5.090073,-0.833182,-5.679046,-0.045299,0.016254,0.001998
10861,-5.272032,-0.816423,-5.724536,-0.023848,-0.002398,-0.009193
10876,-5.343858,-0.804452,-5.719748,-0.003198,-0.017720,-0.016254
10891,-5.432444,-0.902614,-5.585672,-0.007727,-0.001199,-0.011724
10906,-5.305551,-0.964863,-5.650316,-0.015055,0.024381,-0.010392
10921,-5.303157,-0.955286,-5.626374,-0.028778,0.046364,-0.012790
10936,-5.190629,-0.912191,-5.535394,-0.035040,0.037305,-0.012524
10951,-4.991910,-0.780510,-5.504270,-0.023449,-0.011325,-0.009326
10966,-5.097255,-0.849942,-5.576096,-0.020917,-0.041035,0.003997
10981,-5.240908,-0.871489,-5.590461,-0.015855,-0.058622,0.015988
10996,-5.537788,-0.988805,-5.762844,-0.035040,-0.033041,0.018919
11011,-5.480328,-0.861913,-5.887342,-0.041168,-0.015721,0.020518
11026,-5.468357,-0.861913,-6.028600,-0.037038,0.029311,0.015455
11041,-5.470751,-0.885855,-5.837064,-0.034907,0.051161,0.012124
11056,-5.451597,-0.869095,-5.779603,-0.034773,0.053559,0.013590
11071,-5.346252,-0.778116,-5.729324,-0.023848,0.044632,0.011325
11086,-5.243302,-0.854730,-5.774815,-0.015322,0.030910,0.008793
11101,-5.272032,-0.976834,-5.662287,-0.039303,0.026913,0.021717
11116,-5.355829,-0.945710,-5.693411,-0.049029,0.027446,0.025314
11131,-5.396531,-0.833182,-5.623980,-0.068081,0.047164,0.033708
11146,-5.214571,-0.895431,-5.580884,-0.066216,0.037838,0.030776
11161,-5.097255,-0.766145,-5.686229,-0.052760,0.031309,0.009326
11176,-5.221754,-0.782904,-5.602432,-0.016254,0.000533,-0.018919
11191,-5.197812,-0.814029,-5.559336,0.012124,-0.016787,-0.037305
11206,-5.207388,-0.830788,-5.585672,0.034507,-0.042900,-0.045032
11221,-5.238513,-0.866701,-5.504270,0.013057,-0.038504,-0.025447
11236,-5.398925,-1.036689,-5.781997,-0.022516,-0.024381,0.015322
11251,-5.578490,-0.921768,-5.937620,-0.036639,-0.016121,0.042767
11266,-5.533000,-0.811634,-5.985504,-0.059288,0.023848,0.079273
11281,-5.616797,-0.708684,-6.054936,-0.060620,0.072345,0.098058
11296,-5.592855,-0.821211,-5.937620,-0.053559,0.126303,0.090464
11311,-5.427655,-0.706289,-5.832275,-0.035839,0.141891,0.081937
11326,-5.145139,-0.749385,-5.614403,-0.026113,0.129101,0.066482
11341,-4.841076,-0.644040,-5.432444,0.010792,0.073277,0.052626
11356,-4.893748,-0.828394,-5.415684,0.056757,0.008127,0.023715
11371,-5.068525,-1.019930,-5.492299,0.065417,-0.041568,0.006795
11386,-5.102044,-1.053449,-5.573701,0.063951,-0.076741,-0.018652
11401,-5.274426,-1.110910,-5.640739,0.046498,-0.080738,-0.036106
11416,-5.427655,-1.185130,-5.700594,-0.014123,-0.038104,-0.025314
11431,-5.691017,-1.125275,-5.978322,-0.076475,0.015588,0.004930
11446,-5.619191,-0.969652,-5.944803,-0.112314,0.075142,0.033175
11461,-5.324705,-0.818817,-5.758055,-0.108051,0.093795,0.042234
11476,-5.147533,-0.782904,-5.734113,-0.075142,0.085401,0.030377
11491,-5.125986,-0.687136,-5.655104,-0.033841,0.049695,0.010392
11506,-5.209783,-0.814029,-5.614403,0.006262,0.020118,-0.010925
11521,-5.049371,-1.012747,-5.530606,0.014789,0.005862,-0.028378
11536,-5.090073,-0.940921,-5.576096,-0.002132,0.001732,-0.032642
11551,-5.114015,-0.984017,-5.446809,-0.006528,-0.020784,-0.033974
11566,-5.128380,-0.950498,-5.410896,-0.014389,-0.038371,-0.024115
11581,-5.058948,-0.799663,-5.537788,-0.014256,-0.054758,-0.011458
11596,-5.264850,-0.952892,-5.580884,-0.037571,-0.067681,0.017320
11611,-5.322310,-0.964863,-5.750873,-0.073544,-0.040636,0.054625
11626,-5.595249,-0.993594,-5.813122,-0.104320,0.020651,0.074743
11641,-5.341464,-0.861913,-5.810728,-0.090730,0.021983,0.067681
11656,-5.190629,-0.756568,-5.841852,-0.053426,0.028511,0.034640
11671,-5.236119,-0.828394,-5.858612,-0.024381,0.008394,0.011591
11686,-5.391742,-1.003170,-5.786786,-0.013456,-0.010925,-0.004930
11701,-5.324705,-0.928950,-5.815516,-0.011591,-0.019052,-0.005462
11716,-5.298368,-0.938527,-5.829881,-0.010392,-0.034773,-0.012923
11731,-5.511452,-0.895431,-5.858612,-0.019319,-0.024781,-0.025047
11746,-5.683835,-1.046266,-5.992687,0.003730,0.005862,-0.049429
11761,-5.525817,-1.063026,-5.942409,-0.022516,0.045032,-0.051960
11776,-5.396531,-1.005565,-5.789180,-0.055691,0.036106,-0.039037
11791,-5.377377,-0.837971,-5.717353,-0.086067,0.033441,-0.021051
11806,-5.470751,-0.732626,-5.638345,-0.080338,0.057822,-0.024381
11821,-5.384560,-0.766145,-5.614403,-0.056890,0.058755,-0.026113
11836,-5.090073,-0.658405,-5.592855,-0.036106,0.034773,-0.018253
11851,-5.145139,-0.696713,-5.657498,-0.016521,-0.000533,-0.019718
11866,-5.334281,-0.799663,-5.523423,-0.003331,-0.009326,-0.018519
11881,-5.293580,-0.833182,-5.607220,-0.000533,-0.018119,-0.014789
11896,-5.315128,-0.756568,-5.674258,-0.002132,0.008793,-0.012524
11911,-5.293580,-0.802058,-5.786786,0.010126,-0.003064,-0.012790
11926,-5.442020,-0.854730,-5.911284,0.027979,0.020784,-0.023449
11941,-5.568913,-0.931344,-5.951985,0.033708,0.034773,-0.033308
11956,-5.499481,-0.993594,-5.949591,0.040636,0.035173,-0.031176
11971,-5.497087,-1.017536,-5.832275,-0.008127,0.060087,-0.013057
11986,-5.492299,-0.995988,-5.777209,-0.055557,0.087266,0.025047
12001,-5.382165,-0.830788,-5.614403,-0.062485,0.081404,0.048230
12016,-5.212177,-0.751779,-5.592855,-0.050228,0.083936,0.053159
12031,-4.841076,-0.660800,-5.372589,-0.020518,0.073943,0.034507
12046,-4.893748,-0.845153,-5.272032,0.027979,0.053426,-0.005462
12061,-4.848258,-0.967257,-5.353435,0.037704,0.025181,-0.024781
12076,-4.944026,-1.000776,-5.295974,0.042368,-0.014922,-0.036505
12091,-4.860229,-1.074997,-5.516241,0.056490,-0.067948,-0.044632
12106,-5.099649,-1.328782,-5.576096,0.032375,-0.093395,-0.040236
12121,-5.458780,-1.359907,-5.853823,-0.041968,-0.072877,-0.011724
12136,-5.700594,-1.295263,-6.098032,-0.098991,-0.037305,0.016654
12151,-5.511452,-0.969652,-6.095637,-0.105652,0.021583,0.011591
12166,-5.533000,-0.976834,-6.100426,-0.093395,0.062485,-0.004530
12181,-5.339070,-0.790087,-5.942409,-0.058622,0.046098,-0.013057
12196,-5.353435,-0.763750,-5.880159,-0.032242,0.045432,-0.011991
12211,-5.319916,-0.809240,-5.736507,-0.014922,0.038504,-0.004397
12226,-5.226542,-0.756568,-5.621585,-0.002265,0.043433,0.005729
12241,-5.245696,-0.976834,-5.619191,-0.009859,0.057423,-0.000133
12256,-5.183446,-1.048660,-5.430049,-0.021450,0.064217,-0.007861
12271,-5.054160,-1.189918,-5.394136,-0.071545,0.047164,0.005462
12286,-4.824317,-1.144428,-5.398925,-0.147221,0.030510,0.036239
12301,-4.908113,-0.735020,-5.379771,-0.176398,-0.010525,0.049962
12316,-5.066131,-0.636858,-5.597643,-0.120841,-0.044632,0.023449
12331,-5.109226,-0.545878,-5.544971,-0.037838,-0.067415,-0.007194
12346,-5.298368,-0.723049,-5.674258,0.002398,-0.073277,-0.010525
12361,-5.248090,-0.778116,-5.736507,0.007727,-0.070613,0.002931
12376,-5.796362,-0.926556,-6.110003,0.010792,-0.023315,0.015188
12391,-5.676652,-0.830788,-6.047753,-0.006795,0.042900,0.021184
12406,-5.695806,-0.998382,-6.177040,-0.001199,0.093928,0.020917
12421,-5.525817,-0.916979,-6.030994,-0.040236,0.132965,0.035306
12436,-5.506664,-0.948104,-5.928043,-0.060887,0.149485,0.048629
12451,-5.391742,-1.034295,-5.724536,-0.088466,0.150152,0.053159
12466,-4.999093,-0.890643,-5.554548,-0.099124,0.150418,0.058355
12481,-4.685452,-0.751779,-5.372589,-0.075009,0.085002,0.041701
12496,-4.730942,-0.735020,-5.341464,-0.024515,-0.025580,0.019452
12511,-4.872200,-0.660800,-5.197812,0.040369,-0.108184,-0.009326
12526,-5.080496,-0.766145,-5.523423,0.098858,-0.150551,-0.028511
12541,-5.133168,-0.964863,-5.676652,0.131499,-0.148286,-0.052227
12556,-5.820304,-1.391031,-6.033388,0.075542,-0.091663,-0.034107
12571,-5.875371,-1.465251,-6.189011,-0.017986,0.031709,-0.000133
12586,-5.726930,-1.403002,-6.165069,-0.089531,0.134963,0.009859
12601,-5.451597,-1.386243,-5.983110,-0.139893,0.139893,0.017587
12616,-4.999093,-1.053449,-5.748478,-0.160011,0.114712,0.016787
12631,-5.140351,-0.787692,-5.556942,-0.115645,0.042368,0.004130
12646,-4.984728,-0.653617,-5.561730,-0.051028,-0.035706,-0.017054
12661,-5.114015,-0.691924,-5.712565,0.012923,-0.071279,-0.038237
12676,-5.303157,-0.888249,-5.741296,0.041168,-0.087000,-0.059821
12691,-5.444415,-0.984017,-5.825093,0.046897,-0.076342,-0.073410
12706,-5.470751,-1.074997,-5.822699,0.021184,-0.029178,-0.082737
12721,-5.420473,-1.132457,-5.736507,-0.032775,0.028645,-0.069014
12736,-5.214571,-0.926556,-5.676652,-0.052227,0.031576,-0.058755
12751,-5.094861,-0.754174,-5.626374,-0.049962,0.015322,-0.050228
12766,-5.023035,-0.639252,-5.633556,-0.018253,-0.042501,-0.034507
12781,-5.310339,-0.725443,-5.743690,-0.010792,-0.042900,-0.016521
12796,-5.432444,-0.893037,-5.774815,-0.014123,-0.029178,0.005862
12811,-5.451597,-0.919373,-5.913678,-0.043034,0.029711,0.019452
12826,-5.432444,-0.950498,-5.942409,-0.062752,0.076874,0.016654
12841,-5.410896,-0.792481,-5.918467,-0.081804,0.108850,0.018519
12856,-5.336676,-0.742203,-5.813122,-0.070879,0.155481,0.015588
12871,-5.190629,-0.684742,-5.652710,-0.062885,0.134697,0.031576
12886,-4.845864,-0.660800,-5.497087,-0.064351,0.106985,0.059688
12901,-4.865018,-0.706289,-5.458780,-0.061953,0.052493,0.079139
12916,-4.850653,-0.725443,-5.518635,-0.041701,-0.004263,0.079939
12931,-4.893748,-0.775721,-5.425261,0.004930,-0.060887,0.053159
12946,-4.812346,-0.691924,-5.418078,0.050761,-0.110182,0.023582
12961,-4.917690,-0.974440,-5.614403,0.072211,-0.144423,0.007061
12976,-5.295974,-1.003170,-5.710171,0.094328,-0.161610,-0.025580
12991,-5.896919,-1.309628,-6.014235,0.078873,-0.096326,-0.036639
13006,-5.980716,-1.472434,-6.145916,0.001865,0.060753,-0.019319
13021,-5.592855,-1.515530,-6.081272,-0.095127,0.154681,0.011058
13036,-5.300763,-1.182736,-5.858612,-0.141625,0.144956,0.029711
13051,-5.030218,-0.814029,-5.561730,-0.126303,0.083270,0.041168
13066,-5.011064,-0.667982,-5.499481,-0.075276,0.001199,0.044632
13081,-4.944026,-0.629675,-5.482722,-0.024914,-0.062219,0.042101
13096,-5.346252,-0.876278,-5.693411,0.015055,-0.086334,0.021583
13111,-5.702988,-1.039083,-5.940014,0.021583,-0.062885,-0.006262
13126,-5.609614,-1.086968,-5.995081,0.008394,-0.006129,-0.029311
13141,-5.564125,-1.120486,-6.035782,-0.042101,0.075675,-0.022649
13156,-5.516241,-0.974440,-5.837064,-0.068747,0.104587,-0.016254
13171,-5.312734,-0.806846,-5.657498,-0.079539,0.125371,-0.001332
13186,-5.006276,-0.634463,-5.453991,-0.069680,0.087133,0.023582
13201,-4.869806,-0.553061,-5.322310,-0.044366,0.023848,0.047031
13216,-4.867412,-0.622492,-5.324705,-0.005329,-0.032775,0.056357
13231,-4.979939,-0.711078,-5.458780,0.036639,-0.100456,0.051028
13246,-5.281609,-0.811634,-5.719748,0.075142,-0.118309,0.022116
13261,-5.477933,-1.146823,-5.837064,0.068614,-0.077674,0.003997
13276,-5.717353,-1.453280,-6.030994,-0.000799,-0.001332,0.011325
13291,-5.734113,-1.388637,-5.995081,-0.053026,0.098458,0.010525
13306,-5.506664,-1.221043,-5.887342,-0.083936,0.141891,0.007727
13321,-5.149928,-0.883460,-5.688623,-0.082603,0.113513,-0.001599
13336,-4.991910,-0.866701,-5.559336,-0.054625,0.065417,-0.008127
13351,-5.099649,-1.003170,-5.518635,-0.064484,0.028778,0.009193
13366,-5.056554,-0.888249,-5.365406,-0.082870,-0.013456,0.024115
13381,-5.042189,-0.780510,-5.521029,-0.076608,-0.044499,0.022916
13396,-5.097255,-0.660800,-5.487510,-0.045299,-0.062219,0.013590
13411,-5.260061,-0.414197,-5.544971,0.027979,-0.066882,-0.011458
13426,-5.442020,-0.569820,-5.817910,0.118176,-0.092063,-0.043833
13441,-5.638345,-0.943315,-5.863400,0.140159,-0.073011,-0.053292
13456,-5.633556,-1.376666,-6.021417,0.069014,-0.003864,-0.018919
13471,-5.655104,-1.582567,-6.030994,-0.063152,0.073544,0.047430
13486,-5.499481,-1.319205,-5.911284,-0.131766,0.091130,0.072611
13501,-5.379771,-1.034295,-5.815516,-0.140026,0.104320,0.059954
13516,-5.197812,-0.835576,-5.695806,-0.089132,0.077407,0.029577
13531,-5.231330,-1.024718,-5.631162,-0.084469,0.080472,0.008926
13546,-5.200206,-1.005565,-5.621585,-0.101389,0.053559,0.008394
13561,-5.360618,-1.017536,-5.592855,-0.138294,0.052360,0.030110
13576,-5.080496,-0.636858,-5.573701,-0.134697,0.054758,0.032242
13591,-4.991910,-0.385466,-5.494693,-0.066216,0.026113,0.009326
13606,-5.008670,-0.301669,-5.480328,0.030110,-0.022916,-0.020118
13621,-5.025429,-0.344765,-5.432444,0.110315,-0.070479,-0.029444
13636,-5.094861,-0.725443,-5.542577,0.145089,-0.108450,-0.017187
13651,-5.255273,-1.127669,-5.698200,0.109916,-0.115911,0.005862
13666,-5.791574,-1.522712,-5.983110,0.018119,-0.025447,0.024515
13681,-5.861006,-1.453280,-6.088455,-0.077407,0.061020,0.031709
13696,-5.446809,-1.168370,-6.076484,-0.104720,0.117510,0.016920
13711,-5.209783,-1.029507,-5.796362,-0.097792,0.101123,0.005063
13726,-5.224148,-0.950498,-5.705382,-0.085401,0.057289,0.005995
13741,-5.324705,-0.840365,-5.700594,-0.077008,0.026113,0.018119
13756,-5.209783,-0.689530,-5.633556,-0.058355,-0.001998,0.024115
13771,-5.202600,-0.679953,-5.731719,-0.023848,-0.019985,0.014256
13786,-5.418078,-0.730232,-5.631162,-0.008926,-0.007594,0.002531
13801,-5.542577,-0.909797,-5.861006,-0.032908,0.043167,0.006795
13816,-5.324705,-0.933739,-5.822699,-0.056357,0.054891,0.015322
13831,-5.092467,-0.761356,-5.779603,-0.051161,0.068481,0.006395
13846,-5.125986,-0.720655,-5.633556,-0.048896,0.053159,0.010525
13861,-5.185841,-0.667982,-5.652710,-0.018919,0.016787,0.007994
13876,-5.061342,-0.560243,-5.576096,0.025447,-0.018519,0.006528
13891,-5.121197,-0.806846,-5.609614,0.060354,-0.048096,0.008926
13906,-5.324705,-0.912191,-5.791574,0.063152,-0.050761,0.011458
13921,-5.815516,-1.213860,-6.021417,0.016254,0.008127,0.027312
13936,-5.688623,-1.228225,-6.071695,-0.044233,0.098191,0.034240
13951,-5.358223,-1.256956,-6.007052,-0.091130,0.140559,0.026513
13966,-5.197812,-1.043872,-5.743690,-0.105119,0.119242,0.013590
13981,-5.238513,-0.895431,-5.755661,-0.088865,0.090864,-0.006662
13996,-5.185841,-0.852336,-5.604826,-0.071812,0.070346,-0.005063
14011,-5.118803,-0.814029,-5.652710,-0.049828,0.021983,-0.000266
14026,-5.066131,-0.713472,-5.614403,-0.043567,0.010525,0.001199
14041,-5.238513,-0.780510,-5.552154,-0.028378,0.005729,-0.008926
14056,-5.171475,-0.677559,-5.499481,-0.021850,0.017054,-0.019718
14071,-5.006276,-0.608127,-5.415684,-0.006528,-0.015055,-0.014522
14086,-4.991910,-0.596156,-5.499481,0.002132,-0.013456,0.003198
14101,-5.240908,-0.715866,-5.568913,-0.004930,-0.011191,0.048230
14116,-5.279215,-0.761356,-5.724536,-0.009726,0.002931,0.077008
14131,-5.430049,-0.806846,-5.863400,-0.003198,0.047297,0.077274
14146,-5.169081,-0.995988,-5.973533,-0.008527,0.062485,0.061286
14161,-5.161899,-1.003170,-5.815516,-0.005196,0.078340,0.033041
14176,-5.178658,-1.096544,-5.743690,0.000533,0.060221,0.002398
14191,-5.090073,-1.127669,-5.595249,0.000666,0.033175,-0.002398
14206,-4.999093,-1.154005,-5.616797,-0.020118,0.009593,0.004130
14221,-5.114015,-1.094150,-5.602432,-0.057956,-0.005196,0.024115
14236,-5.267244,-0.981623,-5.717353,-0.057689,-0.016920,0.020651
14251,-5.374983,-0.919373,-5.777209,-0.041968,-0.008394,0.000266
14266,-5.367800,-0.857124,-5.872977,-0.055158,0.019718,-0.001998
14281,-5.351041,-0.871489,-5.904101,-0.056490,0.039570,-0.005995
14296,-5.377377,-0.873884,-5.810728,-0.044766,0.053026,-0.014389
14311,-5.221754,-0.859518,-5.688623,-0.031842,0.044899,-0.021983
14326,-4.984728,-0.687136,-5.623980,-0.004796,0.021317,-0.030110
14341,-4.946421,-0.687136,-5.482722,0.017986,-0.019985,-0.032109
14356,-5.092467,-0.804452,-5.542577,0.028911,-0.056490,-0.014922
14371,-5.214571,-0.684742,-5.736507,0.043300,-0.064484,0.003198
14386,-5.348647,-0.794875,-5.839458,0.074210,-0.051161,-0.009060
14401,-5.552154,-1.110910,-5.963956,0.071279,0.008926,-0.023315
14416,-5.408502,-1.326388,-5.899313,0.022783,0.059554,-0.027046
14431,-5.434838,-1.244985,-5.846641,-0.040636,0.081937,-0.021717
14446,-5.233725,-1.165976,-5.762844,-0.112714,0.065017,0.002531
14461,-4.869806,-0.823605,-5.592855,-0.124971,0.026247,0.028511
14476,-5.037400,-0.615310,-5.535394,-0.090198,-0.006928,0.038237
14491,-5.224148,-0.622492,-5.600038,-0.030510,-0.039969,0.034773
14506,-5.334281,-0.732626,-5.647922,0.018919,-0.017720,0.024515
14521,-5.384560,-0.998382,-5.762844,0.022516,0.025047,0.017853
14536,-5.231330,-1.077391,-5.643133,0.009060,0.037172,-0.006662
14551,-5.236119,-1.189918,-5.695806,-0.003597,0.052493,-0.028911
14566,-5.032612,-1.022324,-5.588067,0.007194,0.017720,-0.041568
14581,-4.972757,-1.041478,-5.597643,0.037038,-0.022649,-0.048496
14596,-5.152322,-1.221043,-5.489904,0.007994,-0.039436,-0.015055
14611,-5.518635,-1.331176,-5.640739,-0.055158,-0.041168,0.028245
14626,-5.525817,-1.319205,-5.731719,-0.116844,-0.019851,0.051427
14641,-5.348647,-1.015141,-5.647922,-0.146954,0.030110,0.046498
14656,-5.133168,-0.706289,-5.691017,-0.080605,0.017320,0.002132
14671,-5.171475,-0.852336,-5.588067,-0.013856,0.009859,-0.043300
14686,-5.068525,-1.058237,-5.552154,0.014655,-0.028511,-0.054492
14701,-5.042189,-1.130063,-5.523423,-0.004796,-0.049296,-0.044499
14716,-5.087678,-1.027112,-5.698200,-0.029711,-0.047697,-0.030243
14731,-5.298368,-1.043872,-5.954380,-0.038637,-0.056757,-0.027979
14746,-5.588067,-1.151611,-5.920861,-0.052493,-0.040502,-0.032109
14761,-5.652710,-0.991199,-5.985504,-0.126170,0.010925,-0.013190
14776,-5.533000,-0.928950,-6.311116,-0.155214,0.071678,0.003198
14791,-5.442020,-0.656011,-6.155492,-0.126703,0.073144,0.004796
14806,-5.324705,-0.572214,-5.889736,-0.089265,0.061686,0.005862
14821,-5.140351,-0.519542,-5.839458,-0.045565,0.042234,0.005462
14836,-5.015852,-0.562637,-5.722142,-0.001599,0.020384,0.000933
14851,-5.123591,-0.718261,-5.726930,0.029178,0.014922,-0.005196
14866,-5.267244,-0.859518,-5.798757,0.041168,0.018119,-0.024248
14881,-5.329493,-0.864307,-5.722142,0.044233,0.031309,-0.031842
14896,-5.248090,-1.027112,-5.899313,0.034240,0.088865,-0.042234
14911,-5.130774,-1.046266,-5.801151,0.004930,0.089265,-0.027312
14926,-5.147533,-1.091756,-5.592855,-0.030643,0.074743,-0.004930
14941,-5.190629,-1.091756,-5.535394,-0.075142,0.036905,0.029577
14956,-4.982334,-0.785298,-5.583278,-0.116711,0.035972,0.051560
14971,-5.042189,-0.658405,-5.767632,-0.088998,0.001865,0.049695
14986,-5.248090,-0.600945,-5.868188,-0.019985,-0.016254,0.016654
15001,-5.408502,-0.763750,-5.980716,0.026380,0.003597,-0.011325
15016,-5.408502,-0.905008,-5.963956,0.037571,0.018786,-0.009992
15031,-5.434838,-0.933739,-5.875371,0.004796,0.083136,0.012391
15046,-5.228936,-0.988805,-5.805939,-0.010525,0.108317,0.019985
15061,-5.114015,-1.053449,-5.700594,-0.024381,0.102055,0.020118
15076,-4.975151,-0.876278,-5.528212,-0.016121,0.069547,0.016387
15091,-4.872200,-0.969652,-5.521029,-0.008660,0.035306,0.009060
15106,-4.922479,-0.950498,-5.487510,-0.001066,-0.011591,0.002931
15121,-5.020641,-0.957681,-5.623980,0.015055,-0.047164,-0.013323
15136,-5.068525,-0.948104,-5.734113,0.030910,-0.073277,-0.017187
15151,-5.193023,-0.984017,-5.827487,0.031043,-0.080871,-0.015855
15166,-5.499481,-1.072602,-5.884948,0.012657,-0.036905,-0.005862
15181,-5.770026,-1.199495,-6.023811,-0.013190,0.010392,0.000266
15196,-5.504270,-1.182736,-5.911284,-0.060221,0.069547,0.016654
15211,-5.310339,-1.089362,-5.832275,-0.090864,0.083136,0.030377
15226,-5.348647,-1.165976,-5.760449,-0.141492,0.096193,0.062352
15241,-5.109226,-1.041478,-5.738902,-0.171335,0.105786,0.084735
15256,-5.044583,-0.744597,-5.707777,-0.122440,0.059421,0.069813
15271,-4.908113,-0.658405,-5.695806,-0.024381,0.007061,0.021450
15286,-5.042189,-0.830788,-5.607220,0.040636,-0.033041,-0.025980
15301,-5.293580,-0.955286,-5.664681,0.040902,-0.033441,-0.039703
15316,-5.377377,-1.132457,-5.736507,0.008394,0.009593,-0.029178
15331,-5.494693,-1.003170,-5.791574,-0.042101,0.044100,0.001998
15346,-5.123591,-0.969652,-5.923255,-0.044766,0.071412,0.023182
15361,-5.149928,-1.201889,-5.968745,-0.038770,0.068481,0.016920
15376,-5.128380,-1.091756,-5.865794,-0.055557,0.020784,0.016920
15391,-4.920084,-1.010353,-5.647922,-0.077807,-0.012391,0.013856
15406,-5.080496,-0.869095,-5.796362,-0.074876,-0.003997,-0.006262
15421,-5.118803,-0.993594,-5.796362,-0.056224,-0.014655,-0.035306
15436,-5.269638,-0.720655,-5.702988,-0.031176,0.002798,-0.045965
15451,-5.245696,-0.830788,-5.825093,-0.020384,0.033308,-0.048896
15466,-5.147533,-0.859518,-5.765238,-0.023049,0.016121,-0.036505
15481,-5.070919,-0.881066,-5.700594,-0.040502,0.023982,-0.016920
15496,-5.145139,-0.797269,-5.707777,-0.052093,0.004796,0.003997
15511,-5.111620,-0.725443,-5.698200,-0.047297,-0.013190,0.026513
15526,-5.142745,-0.703895,-5.693411,-0.033441,-0.005462,0.032908
15541,-5.260061,-0.859518,-5.872977,-0.008793,-0.006129,0.024515
15556,-5.264850,-0.972046,-5.889736,-0.013190,0.004796,0.016121
15571,-5.312734,-0.948104,-5.940014,-0.017187,0.017986,-0.001732
15586,-5.161899,-0.940921,-5.880159,-0.020518,0.026113,-0.012124
15601,-5.202600,-0.984017,-5.887342,-0.017187,0.034507,-0.012124
15616,-5.245696,-0.873884,-5.590461,-0.016254,0.030243,-0.010658
15631,-5.200206,-0.893037,-5.698200,-0.018253,0.035706,-0.007727
15646,-5.001487,-0.823605,-5.679046,-0.009060,0.001066,-0.003864
15661,-5.008670,-0.787692,-5.652710,0.004663,-0.016787,0.003464
15676,-5.300763,-0.960075,-5.724536,0.016787,-0.023582,0.003997
15691,-5.281609,-1.034295,-5.901707,-0.005596,-0.014256,0.013856
15706,-5.403713,-1.055843,-5.839458,-0.039170,0.021450,0.017054
15721,-5.157110,-0.993594,-5.911284,-0.030510,0.037305,0.007194
15736,-5.090073,-0.964863,-5.966351,-0.010525,0.052360,-0.016654
15751,-5.300763,-1.060631,-5.875371,0.010259,0.031709,-0.038904
15766,-5.125986,-1.053449,-5.743690,0.010792,0.024781,-0.050761
15781,-5.099649,-1.012747,-5.839458,-0.002931,0.014123,-0.040902
15796,-5.161899,-0.957681,-5.734113,-0.011191,-0.013723,-0.015188
15811,-5.233725,-0.914585,-5.810728,-0.010392,-0.019185,-0.005862
15826,-5.284003,-0.986411,-5.810728,-0.010525,-0.014389,0.005329
15841,-5.190629,-1.041478,-5.851429,-0.029711,0.017986,0.007994
15856,-5.384560,-0.964863,-5.839458,-0.036772,0.046364,0.011058
15871,-5.386954,-1.063026,-5.805939,-0.033308,0.066482,0.001732
15886,-5.123591,-1.024718,-5.791574,-0.023449,0.038904,-0.004397
15901,-4.917690,-0.890643,-5.762844,-0.011858,0.042900,-0.012657
15916,-5.039794,-0.998382,-5.796362,0.005196,0.012391,-0.015721
15931,-5.140351,-0.986411,-5.798757,0.022916,-0.033708,-0.015988
15946,-5.379771,-0.914585,-5.820304,0.008660,-0.023182,-0.009459
15961,-5.415684,-0.962469,-5.987898,-0.001466,0.027312,-0.006662
15976,-5.372589,-1.029507,-5.975927,-0.003064,0.069280,-0.009859
15991,-5.348647,-1.031901,-5.966351,-0.021051,0.080338,-0.002265
16006,-5.341464,-0.960075,-5.793968,-0.011591,0.063418,0.001865
16021,-5.085284,-1.010353,-5.753267,-0.011591,0.064884,0.001066
16036,-4.929661,-0.986411,-5.719748,-0.009326,0.046631,0.005329
16051,-5.035006,-0.957681,-5.695806,-0.005596,0.036239,0.005596
16066,-5.066131,-1.074997,-5.616797,0.009326,0.009060,-0.003864
16081,-4.941632,-0.878672,-5.528212,0.028112,-0.026113,-0.016521
16096,-5.042189,-0.974440,-5.681440,0.032109,-0.021983,-0.027579
16111,-5.286397,-1.065420,-5.882554,0.036505,-0.009859,-0.031975
16126,-5.336676,-1.165976,-5.906496,0.019718,0.011724,-0.027579
16141,-5.408502,-1.216254,-6.059724,-0.018253,0.032242,-0.010259
16156,-5.200206,-1.041478,-6.033388,-0.048363,0.056224,0.004796
16171,-5.209783,-0.967257,-5.999869,-0.042634,0.071678,0.013323
16186,-5.164293,-0.972046,-5.796362,-0.022783,0.059288,0.009992
16201,-5.068525,-1.039083,-5.662287,-0.016521,0.043300,0.009992
16216,-4.984728,-0.993594,-5.726930,-0.018519,0.018786,0.014123
16231,-4.967968,-0.931344,-5.662287,-0.001599,0.008260,0.011458
16246,-5.233725,-1.089362,-5.726930,0.010658,0.006395,0.004796
16261,-5.224148,-1.218649,-5.813122,0.005196,0.029577,-0.002931
16276,-5.085284,-1.197101,-5.774815,-0.008394,0.046897,-0.013856
16291,-4.996699,-1.261744,-5.674258,-0.029577,0.052760,-0.018652
16306,-4.960786,-1.192312,-5.762844,-0.040502,0.041701,-0.020651
16321,-4.936844,-1.101333,-5.669469,-0.036772,-0.000666,-0.019985
16336,-4.987122,-1.012747,-5.722142,-0.031709,-0.037172,-0.011191
16351,-5.219359,-0.981623,-5.777209,-0.025314,-0.034507,0.001199
16366,-5.315128,-1.010353,-5.841852,-0.004530,-0.001332,0.008527
16381,-5.360618,-1.041478,-5.801151,-0.005063,0.022383,0.017453
16396,-5.245696,-1.072602,-5.853823,-0.025714,0.048363,0.024381
16411,-5.123591,-1.077391,-5.868188,-0.027712,0.055557,0.027979
16426,-4.982334,-1.063026,-5.734113,-0.020518,0.048763,0.024781
16441,-5.039794,-1.024718,-5.667075,-0.012391,0.015055,0.017054
16456,-5.037400,-1.130063,-5.762844,0.002265,-0.003464,0.010658
16471,-5.042189,-1.185130,-5.595249,-0.014922,-0.005462,0.017720
16486,-5.140351,-1.230620,-5.679046,-0.036106,0.024914,0.023182
16501,-5.188235,-1.168370,-5.664681,-0.047830,0.024381,0.025980
16516,-5.157110,-1.122881,-5.614403,-0.060087,0.029977,0.031309
16531,-5.051765,-1.067814,-5.705382,-0.049029,0.031576,0.027046
16546,-4.905719,-1.041478,-5.633556,-0.048629,0.010658,0.041035
16561,-5.243302,-1.132457,-5.841852,-0.039436,-0.006395,0.048629
16576,-5.173870,-1.209072,-5.774815,-0.016387,-0.026913,0.030110
16591,-5.133168,-1.252167,-5.777209,-0.011325,0.011724,0.010525
16606,-5.099649,-1.369483,-5.748478,-0.015322,-0.007994,-0.003464
16621,-5.104438,-1.381454,-5.707777,-0.045965,-0.015988,-0.015588
16636,-5.133168,-1.343147,-5.497087,-0.090597,-0.015588,-0.008127
16651,-4.884171,-1.132457,-5.554548,-0.111515,-0.037438,0.007328
16666,-5.008670,-0.957681,-5.571307,-0.101655,-0.072211,0.016121
16681,-5.257667,-0.885855,-5.822699,-0.060753,-0.062485,0.005063
16696,-5.360618,-0.902614,-6.054936,-0.025447,-0.031842,-0.009459
16711,-5.480328,-1.125275,-6.136339,-0.021983,0.003464,-0.023715
16726,-5.480328,-1.156399,-6.193799,-0.040502,0.044233,-0.028245
16741,-5.353435,-1.139640,-6.014235,-0.066349,0.056357,-0.017986
16756,-5.145139,-0.967257,-5.839458,-0.080605,0.050894,0.000133
16771,-5.087678,-0.866701,-5.829881,-0.088865,0.032109,0.009326
16786,-5.252879,-0.883460,-5.892130,-0.078606,0.033175,0.005462
16801,-5.358223,-1.094150,-5.884948,-0.105652,0.049695,0.021583
16816,-5.329493,-1.108515,-5.884948,-0.186257,0.112181,0.061020
16831,-4.941632,-0.869095,-5.738902,-0.213703,0.118975,0.084868
16846,-4.915296,-0.651223,-5.837064,-0.198648,0.109649,0.082337
16861,-4.668693,-0.239420,-5.528212,-0.092862,0.025980,0.059421
16876,-4.522647,-0.208296,-5.470751,0.032109,-0.053959,0.021450
16891,-4.601655,-0.526724,-5.564125,0.115778,-0.142025,0.010525
16906,-4.872200,-0.794875,-5.626374,0.182660,-0.177997,-0.017986
16921,-5.351041,-1.254562,-5.870583,0.167738,-0.166806,-0.026913
16936,-5.659893,-1.594538,-6.047753,0.053026,-0.060354,-0.004263
16951,-5.370194,-1.491588,-6.023811,-0.057822,0.021583,0.015455
16966,-5.353435,-1.314417,-6.193799,-0.099124,0.075542,0.017187
16981,-5.154716,-0.976834,-5.966351,-0.085934,0.023982,0.015855
16996,-5.145139,-0.895431,-5.846641,-0.050095,-0.029311,0.012257
17011,-5.190629,-0.871489,-5.810728,-0.012657,-0.056090,0.005596
17026,-5.456386,-0.995988,-6.057330,0.023848,-0.058888,-0.006928
17041,-5.542577,-1.127669,-5.975927,0.049695,-0.053426,-0.025047
17056,-5.612009,-1.242591,-6.105214,0.035839,-0.022649,-0.036239
17071,-5.516241,-1.225831,-5.959168,0.002798,0.031842,-0.042501
17086,-5.504270,-1.012747,-5.726930,-0.032109,0.115378,-0.027312
17101,-5.231330,-1.000776,-5.585672,-0.056890,0.137495,-0.008394
17116,-4.953603,-0.823605,-5.358223,-0.052893,0.100190,0.007727
17131,-4.647145,-0.746991,-5.169081,-0.010792,0.023715,0.013590
17146,-4.632780,-0.708684,-5.363012,0.044899,-0.045698,0.013723
17161,-4.874595,-1.086968,-5.499481,0.080072,-0.101123,0.000799
17176,-5.130774,-1.249773,-5.612009,0.093262,-0.117110,-0.027046
17191,-5.363012,-1.386243,-5.801151,0.086201,-0.082737,-0.065683
17206,-5.365406,-1.575385,-5.791574,0.031043,-0.028245,-0.074743
17221,-5.566519,-1.568202,-5.925649,-0.048363,0.056757,-0.057689
17236,-5.238513,-1.209072,-5.743690,-0.099657,0.064217,-0.027046
17251,-5.118803,-1.027112,-5.686229,-0.101123,0.059421,0.001732
17266,-5.018247,-0.718261,-5.664681,-0.064217,0.024381,0.015988
17281,-5.109226,-0.852336,-5.738902,-0.017320,-0.007061,0.023982
17296,-5.324705,-1.091756,-5.662287,-0.009859,-0.015455,0.027712
17311,-5.288792,-1.077391,-5.600038,-0.009859,-0.003198,0.014522
17326,-5.209783,-1.185130,-5.607220,-0.033175,0.021850,0.000266
17341,-5.154716,-1.091756,-5.566519,-0.055025,0.022916,-0.003198
17356,-5.145139,-1.031901,-5.600038,-0.044366,0.020917,-0.011058
17371,-5.070919,-1.106121,-5.645527,-0.065017,-0.002931,0.004930
17386,-5.001487,-1.010353,-5.667075,-0.039170,-0.053825,0.005862
17401,-5.401319,-1.106121,-5.841852,-0.027845,-0.021051,-0.000933
17416,-5.566519,-1.247379,-6.083666,-0.022383,-0.009060,-0.001998
17431,-5.485116,-1.120486,-6.114791,-0.053159,0.021717,0.013190
17446,-5.367800,-1.019930,-5.942409,-0.064084,0.031975,0.019052
17461,-5.298368,-0.912191,-5.817910,-0.060487,0.049962,0.020118
17476,-5.317522,-0.964863,-5.825093,-0.049296,0.065949,0.019452
17491,-5.173870,-0.950498,-5.758055,-0.037971,0.054625,0.022916
17506,-5.046977,-1.010353,-5.631162,-0.024115,0.026646,0.020251
17521,-5.102044,-0.979228,-5.585672,-0.024115,0.010525,0.016387
17536,-5.178658,-1.094150,-5.765238,-0.017054,-0.001599,0.015988
17551,-5.272032,-1.086968,-5.844246,-0.011991,-0.003864,0.005063
17566,-5.360618,-1.086968,-5.928043,-0.020917,0.026247,0.003730
17581,-5.236119,-1.091756,-5.906496,-0.012657,0.042634,-0.003064
17596,-5.193023,-1.103727,-5.652710,-0.022916,0.050228,0.000533
17611,-5.269638,-1.197101,-5.772420,-0.030910,0.043700,0.005462
17626,-5.102044,-1.084573,-5.700594,-0.042634,0.039703,0.015055
17641,-5.090073,-0.931344,-5.712565,-0.027579,0.032908,0.013590
17656,-5.090073,-1.010353,-5.719748,-0.013323,0.034374,0.015588
17671,-5.274426,-1.012747,-5.681440,-0.006129,0.015721,0.020384
17686,-5.219359,-1.000776,-5.645527,-0.001466,0.019319,0.027979
17701,-5.099649,-1.060631,-5.781997,0.001865,0.043034,0.024381
17716,-5.190629,-1.278504,-5.841852,-0.013057,0.054225,0.011991
17731,-5.125986,-1.335965,-5.676652,-0.041968,0.037305,0.009593
17746,-5.092467,-1.189918,-5.671864,-0.052760,0.004663,0.003464
17761,-4.927267,-1.106121,-5.657498,-0.059554,-0.021051,-0.006528
17776,-5.015852,-1.118092,-5.616797,-0.063285,-0.073544,-0.007727
17791,-5.252879,-0.945710,-5.760449,-0.042368,-0.077807,-0.020651
17806,-5.511452,-1.043872,-5.918467,-0.015322,-0.025314,-0.028645
17821,-5.420473,-1.096544,-5.870583,-0.009992,0.015322,-0.023315
17836,-5.219359,-1.060631,-5.908890,-0.027579,0.045832,-0.007328
17851,-5.329493,-1.055843,-5.832275,-0.024115,0.033308,-0.004263
17866,-5.327099,-0.995988,-5.719748,-0.037571,0.046631,0.010392
17881,-5.123591,-0.988805,-5.798757,-0.035839,0.045032,0.021583
17896,-5.133168,-1.019930,-5.645527,-0.020251,0.017054,0.022116
17911,-5.114015,-1.161188,-5.652710,-0.008660,0.030910,0.004663
17926,-5.133168,-1.192312,-5.614403,-0.010925,-0.008127,-0.009726
17941,-5.125986,-1.122881,-5.726930,-0.011858,-0.033708,-0.026646
17956,-5.300763,-1.192312,-5.669469,-0.019985,-0.030776,-0.039170
17971,-5.360618,-1.165976,-5.705382,-0.048230,-0.007994,-0.030110
17986,-5.489904,-1.022324,-5.743690,-0.070746,0.021051,-0.005063
18001,-5.406107,-0.871489,-5.851429,-0.071945,0.045565,0.017853
18016,-5.154716,-0.931344,-5.861006,-0.044766,0.063418,0.026247
18031,-5.197812,-1.024718,-5.892130,-0.022383,0.056357,0.024648
18046,-5.245696,-1.134852,-5.918467,-0.018386,0.062619,0.011191
18061,-5.078102,-1.201889,-5.750873,-0.029444,0.024248,0.001865
18076,-5.070919,-1.031901,-5.712565,-0.031309,0.009726,-0.003864
18091,-5.075707,-1.115698,-5.614403,-0.025447,-0.009459,-0.017853
18106,-5.207388,-1.101333,-5.674258,-0.021317,-0.010126,-0.026113
18121,-5.212177,-1.036689,-5.681440,-0.025181,-0.003597,-0.022783
18136,-5.092467,-0.991199,-5.758055,-0.015188,-0.003464,-0.018119
18151,-5.171475,-1.091756,-5.779603,-0.026646,-0.015188,-0.001998
18166,-5.207388,-1.079785,-5.736507,-0.032642,0.000533,0.004397
18181,-5.351041,-1.137246,-5.738902,-0.049562,0.022516,0.009060
18196,-5.339070,-0.986411,-5.932832,-0.054492,0.048096,0.007461
18211,-5.164293,-1.036689,-5.772420,-0.051694,0.061553,0.003597
18226,-5.262455,-0.979228,-5.762844,-0.032775,0.056357,-0.002798
18241,-5.291186,-1.029507,-5.796362,-0.019585,0.039570,-0.005862
18256,-5.209783,-1.082179,-5.844246,-0.026779,0.037571,0.009326
18271,-5.116409,-1.187524,-5.786786,-0.058489,0.052493,0.040369
18286,-5.154716,-1.149217,-5.750873,-0.071012,0.053159,0.047564
18301,-5.023035,-1.170765,-5.449203,-0.061153,0.049828,0.034773
18316,-4.924873,-1.084573,-5.544971,-0.056490,0.042234,0.016521
18331,-4.716577,-0.969652,-5.358223,-0.025047,0.010126,-0.011724
18346,-4.843470,-1.043872,-5.351041,0.004930,-0.025980,-0.030776
18361,-5.042189,-1.106121,-5.473145,0.016787,-0.044632,-0.042900
18376,-5.092467,-1.170765,-5.612009,0.004263,-0.074343,-0.035306
18391,-5.202600,-1.211466,-5.729324,-0.042501,-0.060487,-0.011058
18406,-5.322310,-1.194707,-5.901707,-0.084069,-0.035306,0.016920
18421,-5.676652,-1.237802,-6.100426,-0.125504,0.021317,0.048096
18436,-5.384560,-1.007959,-6.074090,-0.138960,0.045965,0.058489
18451,-5.166687,-0.806846,-5.937620,-0.118842,0.065150,0.056623
18466,-5.049371,-0.679953,-5.784391,-0.054358,0.033041,0.047697
18481,-5.307945,-0.916979,-5.908890,-0.029444,0.029444,0.042767
18496,-5.322310,-0.940921,-5.880159,-0.027979,0.033441,0.052626
18511,-5.276821,-1.209072,-5.870583,-0.059688,0.053959,0.068881
18526,-5.188235,-1.225831,-5.767632,-0.115245,0.083536,0.073011
18541,-5.269638,-1.187524,-5.724536,-0.138560,0.079539,0.072478
18556,-5.006276,-0.909797,-5.679046,-0.132032,0.067681,0.056357
18571,-4.853047,-0.646434,-5.544971,-0.064084,0.026913,0.021983
18586,-4.781221,-0.701501,-5.477933,0.010259,-0.032508,-0.018519
18601,-4.958392,-0.909797,-5.568913,0.051161,-0.069280,-0.029444
18616,-5.106832,-0.936133,-5.521029,0.077674,-0.112314,-0.039436
18631,-5.291186,-1.074997,-5.726930,0.080738,-0.124571,-0.031709
18646,-5.590461,-1.314417,-5.920861,0.016387,-0.083669,-0.007194
18661,-5.846641,-1.513135,-6.121974,-0.083136,0.034773,0.029178
18676,-5.702988,-1.199495,-6.258443,-0.102721,0.135096,0.023049
18691,-5.307945,-1.063026,-5.971139,-0.095127,0.150551,0.008394
18706,-5.035006,-0.835576,-5.913678,-0.067015,0.135230,-0.015322
18721,-4.917690,-0.859518,-5.731719,-0.041568,0.084202,-0.022383
18736,-5.039794,-0.902614,-5.619191,-0.029844,0.035972,-0.022383
18751,-4.989516,-0.852336,-5.554548,-0.026113,-0.020651,-0.006795
18766,-4.917690,-0.737414,-5.559336,-0.021184,-0.054758,0.005063
18781,-4.984728,-0.725443,-5.710171,0.010925,-0.077674,-0.012124
18796,-5.221754,-0.871489,-5.779603,0.035040,-0.057556,-0.032242
18811,-5.284003,-0.976834,-5.861006,0.036905,-0.040236,-0.039170
18826,-5.243302,-1.074997,-5.851429,0.004130,-0.014522,-0.026779
18841,-5.204994,-1.043872,-5.801151,-0.041701,0.004663,-0.000400
18856,-5.298368,-0.981623,-5.748478,-0.051560,0.028778,0.018386
18871,-5.190629,-0.907402,-5.822699,-0.056757,0.023715,0.036772
18886,-5.137957,-0.833182,-5.777209,-0.041835,0.022916,0.044233
18901,-5.085284,-0.893037,-5.746084,-0.017853,0.019185,0.040769
18916,-5.209783,-0.986411,-5.765238,-0.006662,0.015188,0.031709
18931,-5.130774,-1.163582,-5.748478,0.001199,0.008793,0.016654
18946,-5.125986,-1.165976,-5.650316,-0.002665,-0.005329,0.003464
18961,-5.104438,-1.041478,-5.623980,-0.000266,-0.021717,-0.000400
18976,-5.226542,-1.268927,-5.664681,-0.037172,0.014922,0.011858
18991,-5.432444,-1.067814,-5.700594,-0.069147,0.031975,0.022916
19006,-5.142745,-0.952892,-5.576096,-0.053692,0.019052,0.014522
19021,-4.944026,-1.005565,-5.564125,-0.050228,-0.005329,0.009193
19036,-4.999093,-0.952892,-5.626374,-0.043966,-0.055424,0.005729
19051,-5.135562,-1.012747,-5.710171,-0.027446,-0.076741,-0.000266
19066,-5.193023,-1.036689,-5.717353,-0.030510,-0.088066,0.016521
19081,-5.243302,-1.010353,-5.911284,-0.019985,-0.087799,0.017587
19096,-5.578490,-0.905008,-6.064513,-0.000533,-0.072611,0.011991
19111,-5.803545,-1.110910,-6.033388,-0.005596,0.024515,-0.004397
19126,-5.645527,-1.197101,-6.121974,-0.025181,0.083802,-0.013723
19141,-5.255273,-1.125275,-5.968745,-0.043433,0.096992,-0.016121
19156,-5.099649,-1.046266,-5.791574,-0.051960,0.083936,-0.015855
19171,-5.142745,-0.952892,-5.693411,-0.059421,0.050228,-0.007727
19186,-5.140351,-0.955286,-5.652710,-0.059821,0.017320,-0.003730
19201,-5.181052,-0.814029,-5.518635,-0.040502,-0.013590,-0.002798
19216,-5.147533,-0.876278,-5.509058,-0.019718,-0.023582,-0.008394
19231,-5.209783,-0.900220,-5.437232,-0.008127,-0.019985,-0.017453
19246,-5.216965,-1.048660,-5.540183,-0.016121,-0.015055,-0.014123
19261,-5.248090,-0.912191,-5.710171,-0.010658,-0.018253,-0.009060
19276,-5.188235,-1.000776,-5.815516,0.000400,-0.016121,-0.010925
19291,-5.341464,-1.132457,-5.710171,-0.009992,0.001466,-0.001199
19306,-5.386954,-1.189918,-5.808333,-0.035173,0.010259,0.012524
19321,-5.286397,-1.113304,-5.621585,-0.073677,0.013856,0.033574
19336,-5.257667,-0.905008,-5.695806,-0.075942,0.029178,0.046231
19351,-5.240908,-0.960075,-5.724536,-0.063418,0.030377,0.055158
19366,-5.193023,-0.976834,-5.714959,-0.044499,0.023715,0.050095
19381,-5.166687,-1.051054,-5.722142,-0.027179,0.007594,0.026247
19396,-5.023035,-1.065420,-5.614403,-0.030510,-0.007594,0.010259
19411,-5.061342,-1.163582,-5.702988,-0.047697,-0.031443,0.005196
19426,-5.212177,-1.074997,-5.722142,-0.063152,-0.037571,0.001466
19441,-5.439626,-0.984017,-5.712565,-0.069813,-0.034507,0.003331
19456,-5.408502,-0.802058,-5.865794,-0.073144,-0.009593,0.013989
19471,-5.401319,-0.888249,-5.827487,-0.074743,0.008926,0.034907
19486,-5.473145,-0.885855,-5.901707,-0.092596,0.040103,0.053959
19501,-5.442020,-0.823605,-5.870583,-0.082070,0.031842,0.073144
19516,-5.260061,-0.806846,-5.894525,-0.063685,0.035573,0.069280
19531,-5.284003,-0.744597,-5.889736,-0.029044,0.041568,0.046364
19546,-5.221754,-0.869095,-5.832275,0.004530,0.044499,0.021583
19561,-5.281609,-0.976834,-5.772420,0.019185,0.039836,-0.004263
19576,-5.090073,-1.091756,-5.710171,0.018652,0.028645,-0.019585
19591,-5.013458,-1.017536,-5.592855,0.002798,0.019319,-0.027979
19606,-5.133168,-1.027112,-5.650316,-0.020651,-0.006662,-0.020384
19621,-5.102044,-0.916979,-5.556942,-0.031176,-0.026513,-0.004397
19636,-5.159504,-0.818817,-5.533000,-0.020518,-0.033308,-0.000799
19651,-5.197812,-0.821211,-5.506664,-0.018519,-0.035573,0.009193
19666,-5.298368,-0.969652,-5.765238,-0.030110,-0.021583,0.024914
19681,-5.444415,-1.027112,-5.805939,-0.020518,-0.010392,0.032508
19696,-5.430049,-0.924162,-5.798757,-0.007994,0.007994,0.021051
19711,-5.386954,-1.065420,-5.999869,0.005063,0.040369,0.000266
19726,-5.303157,-1.144428,-5.837064,-0.011724,0.045032,-0.013190
19741,-5.444415,-1.189918,-5.971139,-0.021184,0.025714,-0.014256
19756,-5.439626,-1.122881,-5.911284,-0.049962,0.019985,-0.005862
19771,-5.374983,-1.036689,-5.796362,-0.063285,0.024648,-0.001199
19786,-5.370194,-1.036689,-5.808333,-0.075142,0.028911,0.005063
19801,-5.307945,-0.826000,-5.688623,-0.074077,0.036905,0.004263
19816,-5.279215,-0.878672,-5.477933,-0.052626,0.033841,-0.009326
19831,-4.975151,-0.816423,-5.470751,-0.039969,0.013590,-0.016387
19846,-4.920084,-0.799663,-5.614403,-0.026913,-0.026380,-0.018386
19861,-5.200206,-0.814029,-5.635951,-0.000933,-0.055557,-0.021450
19876,-5.348647,-0.828394,-5.580884,0.019452,-0.073144,-0.023449
19891,-5.456386,-0.900220,-5.868188,0.007727,-0.049296,-0.004663
19906,-5.509058,-1.137246,-5.928043,-0.049695,-0.000400,0.037704
19921,-5.312734,-1.019930,-5.904101,-0.097392,0.016121,0.073943
19936,-5.461174,-0.828394,-5.896919,-0.098458,0.031309,0.074077
19951,-5.353435,-0.749385,-5.774815,-0.058755,0.006262,0.054758
19966,-5.396531,-0.859518,-5.882554,-0.019718,0.018519,0.017853
19981,-5.477933,-0.936133,-5.786786,-0.000533,0.056224,-0.014522
19996,-5.523423,-1.051054,-5.667075,0.001599,0.073544,-0.037305
20011,-5.360618,-0.950498,-5.616797,-0.004930,0.099524,-0.047297
20026,-5.044583,-0.854730,-5.535394,0.001865,0.100590,-0.046364
20041,-4.951209,-0.876278,-5.485116,0.009992,0.075675,-0.037971
20056,-4.853047,-0.794875,-5.252879,0.007594,0.033041,-0.007994
20071,-4.903325,-0.780510,-5.226542,0.006129,-0.033308,0.019718
20086,-4.867412,-0.730232,-5.363012,0.020518,-0.095660,0.030377
20101,-5.068525,-0.919373,-5.468357,0.033175,-0.120175,0.030510
20116,-5.351041,-1.079785,-5.676652,0.044366,-0.134697,0.020651
20131,-5.746084,-1.300051,-5.963956,0.013989,-0.073277,0.010259
20146,-5.626374,-1.309628,-6.105214,-0.030243,0.034640,-0.006528
20161,-5.427655,-1.412579,-6.054936,-0.071812,0.103121,-0.018119
20176,-5.291186,-1.127669,-5.777209,-0.094061,0.084868,-0.018386
20191,-5.185841,-1.029507,-5.556942,-0.085135,0.048096,-0.013989
20206,-5.118803,-0.830788,-5.602432,-0.058355,-0.009593,-0.006528
20221,-5.058948,-0.790087,-5.657498,-0.025181,-0.031975,0.001199
20236,-5.480328,-0.871489,-5.793968,-0.006662,-0.066482,0.013456
20251,-5.705382,-0.998382,-5.875371,-0.051028,-0.033441,0.038504
20266,-5.686229,-0.890643,-5.951985,-0.068214,0.021583,0.045832
20281,-5.530606,-0.902614,-5.920861,-0.062219,0.080871,0.030243
20296,-5.327099,-0.833182,-5.770026,-0.032109,0.093129,0.014655
20311,-5.176264,-0.785298,-5.633556,-0.009992,0.079539,-0.002665
20326,-4.960786,-0.754174,-5.439626,0.013590,0.038237,-0.006395
20341,-4.944026,-0.775721,-5.386954,0.043034,-0.030643,-0.004397
20356,-5.013458,-0.950498,-5.513846,0.059021,-0.079806,0.012524
20371,-5.293580,-1.194707,-5.552154,0.064750,-0.102055,0.011325
20386,-5.609614,-1.244985,-5.889736,0.021850,-0.060087,0.025980
20401,-5.679046,-1.237802,-6.035782,-0.010658,-0.001998,0.026913
20416,-5.667075,-1.362301,-6.081272,-0.033574,0.091663,-0.001466
20431,-5.547365,-1.398214,-5.930438,-0.057289,0.144822,-0.019985
20446,-5.267244,-1.280898,-5.671864,-0.077940,0.120041,-0.018919
20461,-5.049371,-1.110910,-5.477933,-0.095127,0.076741,-0.008660
20476,-5.046977,-1.017536,-5.386954,-0.097659,0.016920,0.007594
20491,-5.070919,-0.914585,-5.365406,-0.097525,-0.017187,0.020118
20506,-5.228936,-0.739808,-5.535394,-0.068614,-0.056757,0.017453
20521,-5.300763,-0.725443,-5.540183,-0.028245,-0.056090,-0.000666
20536,-5.269638,-0.699107,-5.592855,-0.009326,-0.034640,-0.010658
20551,-5.322310,-0.768539,-5.573701,0.003997,-0.019585,-0.013456
20566,-5.391742,-0.869095,-5.655104,0.019851,-0.001332,-0.015988
20581,-5.154716,-0.995988,-5.600038,0.018119,0.008394,-0.001732
20596,-5.078102,-0.979228,-5.722142,0.017187,-0.007061,0.002531
20611,-5.346252,-1.144428,-5.789180,0.014655,-0.022250,0.002132
20626,-5.470751,-1.369483,-5.928043,-0.026779,-0.019319,0.010525
20641,-5.552154,-1.398214,-5.741296,-0.091796,0.010392,0.028911
20656,-5.391742,-1.120486,-5.767632,-0.142557,0.029711,0.040236
20671,-5.348647,-0.905008,-5.702988,-0.145888,0.041701,0.030110
20686,-5.257667,-0.746991,-5.676652,-0.083136,0.029844,0.000400
20701,-5.049371,-0.818817,-5.616797,-0.038371,0.010126,-0.027046
20716,-5.137957,-1.022324,-5.592855,-0.028911,-0.011191,-0.034640
20731,-5.236119,-0.847547,-5.590461,-0.026113,-0.023049,-0.027312
20746,-5.200206,-0.840365,-5.659893,-0.017453,-0.045032,-0.023182
20761,-5.351041,-0.663194,-5.789180,-0.001865,-0.054092,-0.021983
20776,-5.602432,-0.802058,-5.954380,0.033175,-0.021051,-0.031576
20791,-5.746084,-1.106121,-5.973533,0.000000,0.012257,0.002665
20806,-5.533000,-1.077391,-5.944803,-0.069280,0.053026,0.039570
20821,-5.432444,-0.936133,-5.911284,-0.097925,0.075142,0.054891
20836,-5.382165,-0.936133,-5.825093,-0.107118,0.075276,0.063685
20851,-5.291186,-0.883460,-5.724536,-0.104453,0.071812,0.066616
20866,-5.140351,-0.785298,-5.499481,-0.074077,0.039703,0.051694
20881,-4.960786,-0.773327,-5.523423,-0.048896,0.013190,0.043833
20896,-4.946421,-0.804452,-5.430049,-0.019851,-0.017320,0.017187
20911,-5.087678,-0.869095,-5.449203,0.009326,-0.036639,-0.008660
20926,-5.178658,-0.802058,-5.492299,0.042501,-0.043700,-0.028911
20941,-5.255273,-1.043872,-5.707777,0.035040,-0.050894,-0.029178
20956,-5.272032,-1.043872,-5.640739,0.009593,-0.049962,-0.017320
20971,-5.518635,-1.235408,-5.765238,-0.029844,-0.023848,0.005596
20986,-5.533000,-1.180341,-5.667075,-0.082870,0.007328,0.035040
21001,-5.540183,-1.146823,-5.841852,-0.132432,0.014655,0.072744
21016,-5.305551,-0.842759,-5.765238,-0.116844,0.013723,0.068614
21031,-5.566519,-0.792481,-5.817910,-0.065683,0.040902,0.041302
21046,-5.504270,-0.936133,-5.707777,-0.025181,0.034240,0.019585
21061,-5.329493,-1.031901,-5.600038,-0.015588,0.041568,-0.003864
21076,-5.125986,-1.084573,-5.537788,-0.029311,0.021850,-0.014389
21091,-5.054160,-0.972046,-5.430049,-0.037172,-0.001865,-0.023582
21106,-5.178658,-0.871489,-5.351041,-0.039436,-0.030910,-0.027845
21121,-5.114015,-0.797269,-5.252879,-0.026913,-0.066083,-0.025181
21136,-5.085284,-0.713472,-5.363012,-0.017187,-0.110315,-0.006928
21151,-5.437232,-0.943315,-5.518635,-0.047297,-0.104054,0.032109
21166,-5.623980,-0.952892,-5.877765,-0.070080,-0.080605,0.058755
21181,-5.681440,-0.988805,-6.133945,-0.080472,-0.023715,0.059155
21196,-5.760449,-0.938527,-6.165069,-0.063551,0.027712,0.031576
21211,-5.655104,-0.940921,-5.995081,-0.062752,0.062619,0.011458
21226,-5.552154,-0.876278,-5.947197,-0.057689,0.062619,0.004930
21241,-5.427655,-0.804452,-5.834670,-0.030776,0.038371,-0.006662
21256,-5.231330,-0.742203,-5.808333,-0.000133,-0.000533,-0.012790
21271,-5.382165,-0.871489,-5.688623,0.018652,-0.020518,-0.015322
21286,-5.614403,-1.027112,-5.755661,-0.005596,-0.017587,0.002398
21301,-5.700594,-1.077391,-5.726930,-0.054225,0.018786,0.022250
21316,-5.623980,-0.979228,-5.655104,-0.098058,0.058755,0.036372
21331,-5.377377,-0.778116,-5.657498,-0.105519,0.082870,0.032109
21346,-5.341464,-0.723049,-5.571307,-0.063418,0.075809,0.012657
21361,-5.176264,-0.768539,-5.453991,-0.021983,0.043433,-0.001865
21376,-5.140351,-0.761356,-5.398925,0.004397,0.002665,-0.006795
21391,-5.066131,-0.859518,-5.470751,0.012524,-0.032508,-0.013590
21406,-5.303157,-0.897826,-5.449203,0.016521,-0.042634,-0.014522
21421,-5.482722,-0.962469,-5.595249,0.001466,-0.020651,-0.008260
21436,-5.506664,-0.964863,-5.623980,-0.013057,0.010259,-0.001066
21451,-5.358223,-1.003170,-5.616797,-0.042900,0.041968,0.020518
21466,-5.403713,-1.041478,-5.595249,-0.084202,0.071545,0.038504
21481,-5.286397,-0.981623,-5.470751,-0.080338,0.056090,0.035040
21496,-5.102044,-0.852336,-5.530606,-0.069413,0.033441,0.023049
21511,-5.013458,-0.797269,-5.509058,-0.047830,-0.017453,0.007461
21526,-5.188235,-0.821211,-5.442020,-0.026513,-0.068348,-0.010126
21541,-5.427655,-0.885855,-5.722142,-0.017054,-0.081271,-0.011191
21556,-5.564125,-0.739808,-5.746084,0.001599,-0.094061,-0.021717
21571,-5.655104,-0.754174,-5.801151,0.005063,-0.052893,-0.019851
21586,-5.832275,-0.878672,-5.877765,-0.000133,0.017054,-0.004130
21601,-5.829881,-0.861913,-6.071695,-0.002265,0.075409,0.001199
21616,-5.679046,-1.043872,-5.928043,-0.005862,0.121107,-0.006662
21631,-5.367800,-1.125275,-5.698200,-0.035173,0.092729,0.011325
21646,-5.106832,-1.005565,-5.473145,-0.081937,0.073810,0.029977
21661,-5.331887,-0.969652,-5.655104,-0.102455,0.047830,0.044899
21676,-5.272032,-0.814029,-5.518635,-0.079539,-0.002665,0.031709
21691,-5.279215,-0.756568,-5.540183,-0.040236,0.004130,0.001066
21706,-5.372589,-0.823605,-5.485116,-0.004930,-0.017986,-0.021184
21721,-5.528212,-0.924162,-5.576096,0.004130,0.010392,-0.033574
21736,-5.446809,-0.940921,-5.602432,-0.009859,0.029178,-0.027712
21751,-5.386954,-0.969652,-5.659893,-0.044499,0.049828,0.004397
21766,-5.204994,-0.830788,-5.805939,-0.036905,0.015721,0.012257
21781,-5.384560,-0.921768,-5.772420,-0.015721,0.018519,0.009593
21796,-5.592855,-0.984017,-5.889736,-0.009992,0.017986,-0.004530
21811,-5.509058,-1.096544,-5.872977,-0.010925,0.017187,-0.015988
21826,-5.477933,-1.144428,-5.743690,-0.060221,0.047564,-0.003464
21841,-5.480328,-1.053449,-5.736507,-0.093395,0.061286,0.000266
21856,-5.343858,-0.881066,-5.633556,-0.115112,0.073011,0.013057
21871,-5.228936,-0.660800,-5.499481,-0.092462,0.065283,0.005329
21886,-5.046977,-0.577003,-5.461174,-0.035839,0.063951,-0.013590
21901,-4.946421,-0.770933,-5.398925,-0.012124,0.028511,-0.029044
21916,-4.836287,-0.785298,-5.284003,-0.008394,-0.007061,-0.037438
21931,-4.850653,-0.708684,-5.317522,0.038504,-0.088466,-0.059421
21946,-5.039794,-0.814029,-5.418078,0.066216,-0.134031,-0.063285
21961,-5.425261,-1.012747,-5.571307,0.041035,-0.124838,-0.040769
21976,-5.820304,-1.355118,-5.738902,-0.053825,-0.031176,0.007328
21991,-5.777209,-1.029507,-5.863400,-0.141625,0.029977,0.054225
22006,-5.489904,-0.847547,-5.916072,-0.140026,0.064484,0.057556
22021,-5.343858,-0.651223,-5.863400,-0.108983,0.051294,0.041968
22036,-5.408502,-0.646434,-5.853823,-0.057156,0.023982,0.015855
22051,-5.597643,-0.737414,-5.772420,-0.008127,0.014789,-0.014123
22066,-5.540183,-0.854730,-5.875371,-0.014922,0.036639,-0.019185
22081,-5.422867,-0.895431,-5.808333,-0.024648,0.018919,-0.015855
22096,-5.535394,-0.782904,-5.760449,-0.021450,0.035173,-0.026913
22111,-5.564125,-0.799663,-5.681440,-0.020251,0.057822,-0.029311
22126,-5.396531,-0.684742,-5.700594,-0.017720,0.037971,-0.015322
22141,-5.406107,-0.569820,-5.700594,-0.032109,0.038904,0.016787
22156,-5.432444,-0.550666,-5.688623,-0.012790,0.001066,0.039170
22171,-5.516241,-0.565032,-5.748478,0.033708,0.019985,0.035306
22186,-5.487510,-0.758962,-5.738902,0.083003,0.020251,0.013723
22201,-5.406107,-0.988805,-5.686229,0.082070,0.037971,0.007594
22216,-5.427655,-1.216254,-5.616797,0.036106,0.053426,0.007861
22231,-5.449203,-1.225831,-5.576096,-0.007727,0.066083,0.008926
22246,-5.446809,-1.098939,-5.588067,-0.015988,0.084069,-0.004930
22261,-5.293580,-1.039083,-5.628768,-0.005862,0.076475,-0.017054
22276,-5.367800,-1.137246,-5.542577,-0.010792,0.081138,-0.015588
22291,-5.358223,-1.338359,-5.499481,-0.065683,0.083536,-0.000400
22306,-5.212177,-1.323994,-5.470751,-0.111381,0.084335,0.012657
22321,-5.011064,-1.256956,-5.348647,-0.193585,0.098858,0.036905
22336,-4.757279,-0.885855,-5.341464,-0.221164,0.039303,0.048496
22351,-4.699818,-0.493206,-5.305551,-0.154548,-0.027712,0.007461
22366,-4.869806,-0.201113,-5.267244,-0.022116,-0.116844,-0.043966
22381,-5.092467,-0.260968,-5.425261,0.113779,-0.158812,-0.082870
22396,-5.406107,-0.780510,-5.861006,0.154015,-0.116711,-0.091663
22411,-5.738902,-1.223437,-6.078878,0.102721,-0.061553,-0.060620
22426,-5.837064,-1.407791,-6.208165,-0.007061,0.038770,-0.013456
22441,-5.700594,-1.204283,-6.177040,-0.061153,0.090198,0.003730
22456,-5.468357,-0.905008,-6.045359,-0.066482,0.107917,-0.000799
22471,-5.403713,-1.027112,-5.815516,-0.084202,0.118576,0.000799
22486,-5.257667,-0.912191,-5.614403,-0.095394,0.075142,0.003198
22501,-5.183446,-0.715866,-5.655104,-0.083536,0.038371,0.008127
22516,-5.125986,-0.644040,-5.717353,-0.053292,-0.002398,0.009859
22531,-5.379771,-0.526724,-5.702988,-0.005196,-0.011058,0.000666
22546,-5.556942,-0.763750,-5.738902,0.022783,0.026380,-0.012524
22561,-5.377377,-0.833182,-5.671864,0.035306,0.049828,-0.012257
22576,-5.197812,-0.955286,-5.681440,0.015455,0.042234,-0.008394
22591,-4.996699,-0.995988,-5.516241,0.002798,0.010658,-0.010792
22606,-5.233725,-0.995988,-5.669469,-0.018119,0.003464,-0.003198
22621,-5.262455,-0.948104,-5.631162,-0.016121,-0.009326,0.000000
22636,-5.367800,-1.017536,-5.628768,-0.011458,-0.003198,-0.005995
22651,-5.497087,-1.019930,-5.585672,-0.013723,0.020651,-0.015322
22666,-5.518635,-1.089362,-5.652710,-0.038504,0.081538,-0.008394
22681,-5.358223,-1.106121,-5.556942,-0.051161,0.081271,-0.011591
22696,-5.056554,-1.053449,-5.473145,-0.075276,0.066216,0.000133
22711,-4.891354,-0.907402,-5.439626,-0.084469,0.018652,0.012923
22726,-5.054160,-0.809240,-5.511452,-0.055691,-0.041568,0.011058
22741,-5.305551,-0.699107,-5.571307,-0.023982,-0.073544,0.001732
22756,-5.425261,-0.696713,-5.753267,0.007727,-0.071279,-0.013856
22771,-5.568913,-0.897826,-5.779603,0.008260,-0.021051,-0.019319
22786,-5.607220,-0.993594,-5.868188,-0.031975,0.043034,-0.001998
22801,-5.552154,-0.981623,-5.813122,-0.048096,0.071945,0.012923
22816,-5.355829,-1.024718,-5.858612,-0.079806,0.102455,0.034907
22831,-5.178658,-0.948104,-5.743690,-0.096859,0.097659,0.045965
22846,-5.006276,-0.976834,-5.585672,-0.115378,0.063418,0.056224
22861,-5.128380,-0.854730,-5.695806,-0.093795,0.018386,0.051161
22876,-5.176264,-0.842759,-5.688623,-0.065017,-0.017320,0.029444
22891,-5.430049,-0.842759,-5.863400,-0.043567,-0.007328,0.007461
22906,-5.408502,-0.981623,-5.856217,-0.039703,0.023982,-0.010392
22921,-5.444415,-1.017536,-5.772420,-0.049029,0.068614,-0.026113
22936,-5.248090,-0.888249,-5.595249,-0.028645,0.049562,-0.042634
22951,-5.013458,-0.782904,-5.487510,-0.013856,0.019851,-0.044366
22966,-4.941632,-0.711078,-5.492299,0.003597,-0.014789,-0.033574
22981,-5.030218,-0.687136,-5.501875,0.038504,-0.072877,-0.019585
22996,-5.365406,-0.878672,-5.664681,0.043966,-0.106718,-0.001732
23011,-5.655104,-1.039083,-5.942409,0.004663,-0.044366,0.007727
23026,-5.683835,-1.197101,-6.059724,-0.017853,0.026513,-0.011191
23041,-5.580884,-1.273715,-6.076484,-0.067149,0.092596,-0.022116
23056,-5.473145,-0.972046,-5.853823,-0.095660,0.105786,-0.021184
23071,-5.272032,-0.689530,-5.829881,-0.081671,0.096193,-0.016387
23086,-5.039794,-0.689530,-5.683835,-0.062619,0.075942,0.001865
23101,-5.066131,-0.675165,-5.659893,-0.040369,0.040236,0.014123
23116,-5.154716,-0.816423,-5.549759,-0.023848,0.014655,0.004530
23131,-5.125986,-0.821211,-5.544971,-0.038237,0.006795,0.002665
23146,-5.085284,-0.746991,-5.494693,-0.033708,0.001732,-0.008527
23161,-5.181052,-0.653617,-5.597643,-0.015721,0.009992,-0.008127
23176,-5.305551,-0.842759,-5.619191,-0.011325,0.009193,0.010392
23191,-5.195417,-0.828394,-5.674258,-0.028778,0.000133,0.037438
23206,-5.190629,-0.751779,-5.750873,-0.022250,-0.001199,0.044499
23221,-5.394136,-1.000776,-5.784391,-0.024515,0.030510,0.053026
23236,-5.370194,-0.905008,-5.755661,-0.038504,0.021051,0.050495
23251,-5.331887,-0.943315,-5.882554,-0.036639,0.023582,0.043433
23266,-5.104438,-0.900220,-5.700594,-0.020384,0.000666,0.033441
23281,-5.224148,-1.022324,-5.671864,-0.011058,0.008394,0.025847
23296,-5.358223,-1.096544,-5.573701,-0.013323,-0.003597,0.019319
23311,-5.437232,-1.154005,-5.712565,-0.021717,0.027845,0.001599
23326,-5.252879,-1.003170,-5.659893,-0.023848,0.052760,-0.018786
23341,-5.104438,-0.924162,-5.504270,-0.009992,0.013057,-0.034240
23356,-5.190629,-0.849942,-5.741296,0.009060,-0.012124,-0.040502
23371,-5.370194,-0.991199,-5.762844,0.017054,-0.037172,-0.025847
23386,-5.406107,-1.187524,-5.791574,-0.025447,-0.033175,-0.003464
23401,-5.406107,-1.302446,-5.865794,-0.080605,0.001466,0.012790
23416,-5.681440,-1.438915,-5.951985,-0.202911,0.074210,0.046631
23431,-5.372589,-0.785298,-5.837064,-0.218766,0.061686,0.043034
23446,-5.260061,-0.457293,-5.755661,-0.151084,0.064484,0.013323
23461,-5.080496,-0.253785,-5.585672,-0.060087,0.025847,-0.006662
23476,-5.284003,-0.514753,-5.626374,-0.003464,0.016654,0.004397
23491,-5.262455,-0.586579,-5.753267,0.017587,0.011058,0.019052
23506,-5.336676,-0.718261,-5.758055,0.040502,0.009593,0.021450
23521,-5.166687,-0.802058,-5.853823,0.057956,0.034374,0.000133
23536,-5.183446,-0.974440,-5.714959,0.067149,0.042101,-0.035173
23551,-5.310339,-1.149217,-5.681440,0.040502,0.039836,-0.048363
23566,-5.267244,-1.058237,-5.722142,0.016787,0.038371,-0.047297
23581,-5.106832,-1.051054,-5.607220,-0.022250,0.039303,-0.036772
23596,-5.190629,-1.043872,-5.705382,-0.062619,0.025580,-0.003198
23611,-5.252879,-1.072602,-5.595249,-0.116711,0.029178,0.037305
23626,-5.082890,-0.833182,-5.597643,-0.124571,-0.020118,0.062485
23641,-5.030218,-0.672771,-5.616797,-0.091930,-0.048363,0.053692
23656,-5.183446,-0.531513,-5.748478,-0.015188,-0.065283,0.012657
23671,-5.528212,-0.773327,-5.930438,0.024914,-0.042101,-0.010792
23686,-5.473145,-0.924162,-5.947197,0.023315,0.029844,-0.009060
23701,-5.446809,-0.933739,-5.944803,0.016787,0.059554,-0.022649
23716,-5.137957,-0.948104,-5.916072,0.004930,0.055025,-0.029711
23731,-5.300763,-0.921768,-5.846641,0.006129,0.031443,-0.034107
23746,-5.341464,-1.041478,-5.669469,-0.026779,0.032642,-0.000799
23761,-5.315128,-0.955286,-5.829881,-0.056224,0.006795,0.028245
23776,-5.363012,-1.043872,-5.753267,-0.106185,0.023049,0.065283
23791,-5.353435,-1.055843,-5.664681,-0.187723,0.076475,0.096060
23806,-5.343858,-0.586579,-5.748478,-0.162809,0.032508,0.077541
23821,-5.169081,-0.435745,-5.770026,-0.086467,0.050761,0.022916
23836,-5.099649,-0.414197,-5.762844,0.002931,0.038504,-0.017853
23851,-5.094861,-0.766145,-5.702988,0.049562,0.009859,-0.029711
23866,-5.315128,-0.725443,-5.801151,0.051827,0.014256,-0.023982
23881,-5.327099,-0.888249,-5.817910,0.063685,0.029311,-0.031176
23896,-5.226542,-0.885855,-5.762844,0.060221,0.043300,-0.032642
23911,-5.044583,-0.842759,-5.671864,0.065017,0.030910,-0.038904
23926,-5.166687,-0.912191,-5.702988,0.067681,-0.009459,-0.037305
23941,-5.245696,-1.084573,-5.595249,0.036505,-0.026113,-0.005995
23956,-5.252879,-1.189918,-5.561730,-0.030243,-0.021850,0.041701
23971,-5.566519,-1.376666,-5.810728,-0.136562,0.010126,0.095527
23986,-5.389348,-1.110910,-5.758055,-0.194384,0.059288,0.108184
24001,-5.394136,-0.902614,-5.834670,-0.181994,0.088865,0.071545
24016,-5.082890,-0.531513,-5.686229,-0.118576,0.058355,0.013723
24031,-5.001487,-0.423774,-5.714959,-0.007328,0.014522,-0.031043
24046,-5.164293,-0.720655,-5.659893,0.061686,-0.028911,-0.051028
24061,-5.243302,-0.878672,-5.734113,0.071145,-0.036372,-0.040636
24076,-5.367800,-0.871489,-5.784391,0.058222,-0.031975,-0.023715
24091,-5.300763,-0.871489,-5.877765,0.057556,-0.011458,-0.017453
24106,-5.351041,-0.758962,-5.961562,0.078740,0.012257,-0.035306
24121,-5.556942,-1.036689,-5.846641,0.073810,0.037704,-0.040502
24136,-5.379771,-1.134852,-5.913678,0.021983,0.047164,-0.023582
24151,-5.269638,-1.244985,-5.813122,-0.056623,0.086734,0.007861
24166,-5.422867,-1.316811,-5.798757,-0.145222,0.072211,0.055025
24181,-5.114015,-1.098939,-5.731719,-0.215968,0.095394,0.083802
24196,-5.044583,-0.720655,-5.726930,-0.186257,0.066482,0.067948
24211,-4.891354,-0.342371,-5.645527,-0.092862,0.025447,0.022383
24226,-4.905719,-0.500388,-5.707777,0.016387,-0.019985,-0.023182
24241,-5.130774,-0.735020,-5.595249,0.056490,-0.039703,-0.040902
24256,-5.267244,-0.713472,-5.647922,0.067948,-0.033841,-0.037704
24271,-5.360618,-0.826000,-5.837064,0.075409,-0.013190,-0.038504
24286,-5.310339,-0.859518,-5.906496,0.081804,0.012257,-0.036372
24301,-5.370194,-0.960075,-5.911284,0.088066,0.045032,-0.046498
24316,-5.415684,-1.249773,-5.880159,0.075142,0.041968,-0.045432
24331,-5.145139,-1.319205,-5.844246,-0.007461,0.069547,-0.015855
24346,-5.200206,-1.369483,-5.755661,-0.087133,0.048363,0.023449
24361,-5.279215,-1.364695,-5.750873,-0.198115,0.062352,0.077407
24376,-5.121197,-0.758962,-5.595249,-0.224894,0.046631,0.097525
24391,-5.111620,-0.409408,-5.523423,-0.151617,0.032508,0.067548
24406,-5.003881,-0.184354,-5.597643,-0.037571,0.019185,0.015988
24421,-5.257667,-0.577003,-5.628768,0.048763,0.004530,-0.007061
24436,-5.276821,-0.821211,-5.604826,0.056890,-0.001332,-0.002931
24451,-5.183446,-0.883460,-5.700594,0.049828,0.012257,0.006795
24466,-5.099649,-1.084573,-5.753267,0.051294,0.018919,-0.009459
24481,-5.097255,-1.098939,-5.719748,0.059421,0.013456,-0.030377
24496,-5.269638,-1.177947,-5.741296,0.054758,-0.001466,-0.047164
24511,-5.236119,-1.412579,-5.767632,0.002798,0.007594,-0.029977
24526,-5.166687,-1.422156,-5.781997,-0.089798,0.025714,0.012790
24541,-5.382165,-1.448492,-5.856217,-0.198248,0.042501,0.077541
24556,-5.341464,-1.130063,-5.659893,-0.281384,0.045165,0.125371
24571,-5.188235,-0.629675,-5.738902,-0.256204,0.057556,0.122173
24586,-5.114015,-0.395043,-5.784391,-0.164940,0.031443,0.075276
24601,-4.982334,-0.258574,-5.734113,-0.037438,0.011058,0.003464
24616,-5.181052,-0.660800,-5.736507,0.057423,-0.009193,-0.049828
24631,-4.994305,-0.742203,-5.609614,0.090198,-0.025314,-0.076208
24646,-5.147533,-0.871489,-5.770026,0.101256,-0.045965,-0.077274
24661,-5.202600,-0.974440,-5.731719,0.071945,-0.030243,-0.068481
24676,-5.358223,-0.873884,-5.940014,0.081271,-0.013590,-0.069680
24691,-5.523423,-1.098939,-5.947197,0.057289,0.017320,-0.053559
24706,-5.398925,-1.374272,-5.956774,-0.019185,0.039037,-0.013590
24721,-5.252879,-1.321599,-5.968745,-0.091263,0.072211,0.018253
24736,-5.224148,-1.165976,-5.851429,-0.125371,0.051161,0.027046
24751,-5.046977,-0.995988,-5.777209,-0.148553,0.057156,0.032508
24766,-5.102044,-0.754174,-5.710171,-0.133364,0.045032,0.025447
24781,-5.018247,-0.593762,-5.647922,-0.079273,0.020384,0.003997
24796,-5.001487,-0.636858,-5.726930,-0.013723,-0.010259,-0.018652
24811,-5.056554,-0.658405,-5.647922,0.022916,-0.036772,-0.034374
24826,-5.183446,-0.830788,-5.832275,0.028911,-0.029711,-0.036905
24841,-5.327099,-0.921768,-5.781997,0.014522,-0.015322,-0.036505
24856,-5.372589,-0.890643,-5.832275,0.008660,0.017986,-0.043433
24871,-5.281609,-0.797269,-5.774815,0.014789,0.036639,-0.064084
24886,-5.236119,-0.895431,-5.851429,0.013723,0.048896,-0.060221
24901,-5.264850,-1.122881,-5.805939,-0.047564,0.041968,-0.023715
24916,-5.078102,-0.943315,-5.592855,-0.098858,0.039037,0.026646
24931,-5.133168,-0.974440,-5.635951,-0.147887,0.031043,0.081138
24946,-4.900931,-0.711078,-5.707777,-0.168271,0.007727,0.100856
24961,-5.001487,-0.593762,-5.640739,-0.100989,-0.013856,0.076475
24976,-5.169081,-0.509965,-5.774815,-0.020651,-0.024648,0.022250
24991,-5.159504,-0.706289,-5.877765,0.035440,-0.023582,-0.020784
25006,-5.058948,-0.814029,-5.762844,0.041968,-0.023582,-0.038237
25021,-5.121197,-0.900220,-5.729324,0.043167,-0.026513,-0.037971
25036,-5.281609,-0.924162,-5.839458,0.032908,-0.018919,-0.039436
25051,-5.274426,-0.919373,-5.784391,0.032242,-0.003597,-0.035706
25066,-5.197812,-0.938527,-5.779603,0.021450,0.014922,-0.030510
25081,-5.300763,-1.041478,-5.865794,0.001599,0.025980,-0.019452
25096,-5.343858,-1.180341,-5.872977,-0.047297,0.034773,0.004397
25111,-5.331887,-1.046266,-5.815516,-0.105519,0.026247,0.047164
25126,-5.279215,-1.043872,-5.827487,-0.151351,0.037971,0.078606
25141,-5.166687,-0.907402,-5.985504,-0.164674,0.035839,0.087133
25156,-5.207388,-0.691924,-5.894525,-0.119775,0.027979,0.058089
25171,-5.262455,-0.495600,-5.827487,-0.028778,0.010792,0.009459
25186,-5.195417,-0.636858,-5.808333,0.032109,0.006129,-0.021184
25201,-5.185841,-0.876278,-5.839458,0.045299,0.008394,-0.033974
25216,-5.298368,-0.974440,-5.779603,0.042501,0.013989,-0.041968
25231,-5.305551,-1.046266,-5.640739,0.025847,0.029044,-0.038371
25246,-5.149928,-0.782904,-5.633556,0.032375,0.023715,-0.039436
25261,-5.104438,-0.773327,-5.741296,0.055025,0.027712,-0.047963
25276,-5.219359,-0.866701,-5.602432,0.073677,0.007061,-0.035173
25291,-5.410896,-1.249773,-5.676652,-0.014123,0.043300,0.027579
25306,-5.178658,-1.266533,-5.686229,-0.073943,0.007861,0.071812
25321,-5.216965,-1.367089,-5.767632,-0.174000,0.089798,0.110049
25336,-5.090073,-1.065420,-5.743690,-0.178530,0.053692,0.096992
25351,-5.130774,-0.859518,-5.614403,-0.132698,0.032109,0.043700
25366,-4.970363,-0.632069,-5.516241,-0.045032,-0.002398,-0.016387
25381,-5.001487,-0.847547,-5.621585,0.005862,-0.028378,-0.045832
25396,-5.011064,-0.943315,-5.719748,0.013723,-0.054225,-0.047564
25411,-5.288792,-0.940921,-5.762844,0.019851,-0.072078,-0.045565
25426,-5.379771,-0.900220,-5.904101,0.013323,-0.036372,-0.043433
25441,-5.279215,-0.770933,-5.880159,0.022116,0.008660,-0.053959
25456,-5.518635,-0.991199,-5.951985,0.003730,0.050495,-0.044499
25471,-5.396531,-1.134852,-5.920861,-0.072611,0.082337,-0.002265
25486,-5.157110,-0.895431,-5.844246,-0.111381,0.049162,0.042501
25501,-5.212177,-1.070208,-5.808333,-0.186657,0.071012,0.085268
25516,-4.876989,-0.667982,-5.741296,-0.176798,0.017187,0.085401
25531,-5.082890,-0.545878,-5.731719,-0.112047,0.004397,0.044899
25546,-5.104438,-0.543484,-5.695806,-0.027312,-0.030643,-0.010925
25561,-5.070919,-0.617704,-5.770026,0.023848,-0.035306,-0.041168
25576,-5.094861,-0.720655,-5.698200,0.034640,-0.039969,-0.042501
25591,-5.212177,-0.749385,-5.832275,0.046631,-0.037038,-0.035706
25606,-5.372589,-0.857124,-5.961562,0.039436,-0.014922,-0.018919
25621,-5.312734,-0.811634,-5.810728,0.031043,0.008926,-0.012257
25636,-5.207388,-0.854730,-5.961562,0.035573,0.039170,-0.016387
25651,-5.185841,-0.974440,-5.944803,0.047830,0.039436,-0.024648
25666,-5.425261,-1.233014,-5.887342,-0.000666,0.044899,0.001599
25681,-5.169081,-1.156399,-5.707777,-0.069280,0.026779,0.040236
25696,-5.317522,-1.268927,-5.743690,-0.172268,0.051694,0.091130
25711,-5.075707,-0.849942,-5.683835,-0.199047,0.019452,0.117643
25726,-5.250484,-0.636858,-5.724536,-0.152816,0.026913,0.101922
25741,-5.243302,-0.617704,-5.717353,-0.090331,0.016254,0.062619
25756,-5.061342,-0.526724,-5.705382,-0.005995,-0.011591,0.010925
25771,-5.288792,-0.869095,-5.861006,0.039436,0.010392,-0.030110
25786,-5.327099,-1.154005,-5.947197,0.027312,0.013057,-0.041835
25801,-5.341464,-1.027112,-5.808333,0.020651,0.029444,-0.051294
25816,-5.260061,-1.022324,-5.875371,0.018652,0.052493,-0.063152
25831,-5.042189,-0.885855,-5.631162,0.033974,0.031443,-0.071279
25846,-5.212177,-0.957681,-5.607220,0.048496,0.010925,-0.071012
25861,-5.319916,-1.173159,-5.712565,-0.010259,0.001732,-0.029711
25876,-5.013458,-1.101333,-5.578490,-0.061286,-0.016254,0.009726
25891,-5.329493,-1.110910,-5.834670,-0.102588,-0.012657,0.034374
25906,-5.406107,-1.096544,-5.784391,-0.156680,0.027712,0.047031
25921,-5.324705,-0.845153,-5.896919,-0.143357,0.048896,0.027712
25936,-5.099649,-0.639252,-5.944803,-0.090331,0.049029,-0.005196
25951,-4.920084,-0.596156,-5.779603,-0.011858,0.008926,-0.041435
25966,-5.092467,-0.761356,-5.813122,0.022383,-0.019185,-0.052493
25981,-5.106832,-0.766145,-5.700594,0.037704,-0.037971,-0.045165
25996,-5.415684,-0.869095,-5.827487,0.040369,-0.035306,-0.037438
26011,-5.317522,-0.811634,-5.856217,0.030377,0.010126,-0.039570
26026,-5.389348,-0.780510,-5.870583,0.046231,0.032375,-0.051294
26041,-5.561730,-1.134852,-5.961562,0.002398,0.055158,-0.027712
26056,-5.233725,-1.024718,-5.793968,-0.073544,0.081138,0.020518
26071,-5.181052,-1.053449,-5.851429,-0.112447,0.054225,0.053825
26086,-5.090073,-1.094150,-5.858612,-0.159345,0.072345,0.071945
26101,-5.118803,-0.866701,-5.674258,-0.151351,0.051560,0.056623
26116,-5.015852,-0.560243,-5.743690,-0.098858,0.018786,0.021450
26131,-4.912902,-0.545878,-5.724536,-0.020251,-0.003597,-0.028378
26146,-5.054160,-0.708684,-5.691017,0.028645,-0.024515,-0.060354
26161,-5.149928,-0.818817,-5.791574,0.030643,-0.023449,-0.063551
26176,-5.204994,-0.859518,-5.702988,0.034240,-0.032375,-0.063685
26191,-5.300763,-0.768539,-5.882554,0.027845,-0.012257,-0.055424
26206,-5.159504,-0.766145,-5.889736,0.040769,-0.000666,-0.052893
26221,-5.260061,-0.636858,-5.801151,0.058089,0.027979,-0.054891
26236,-5.293580,-0.881066,-5.817910,0.111781,0.011591,-0.072078
26251,-5.303157,-1.335965,-5.971139,0.036505,0.031576,-0.028378
26266,-5.066131,-1.300051,-5.714959,-0.100723,0.070080,0.039303
26281,-5.317522,-1.300051,-5.722142,-0.207974,0.085401,0.104453
26296,-5.011064,-0.799663,-5.731719,-0.219565,0.040769,0.115511
26311,-4.977545,-0.610521,-5.600038,-0.154015,0.049962,0.081271
26326,-4.884171,-0.452504,-5.729324,-0.054758,0.003064,0.025314
26341,-5.128380,-0.691924,-5.829881,0.024381,-0.016920,-0.010925
26356,-5.339070,-0.933739,-5.853823,0.028245,-0.009726,-0.017320
26371,-5.374983,-0.912191,-5.865794,0.013190,0.013989,-0.010525
26386,-5.252879,-0.869095,-5.980716,0.009593,0.039170,-0.011058
26401,-5.204994,-0.837971,-5.880159,0.015322,0.057822,-0.018919
26416,-5.250484,-0.964863,-5.796362,0.035972,0.035839,-0.028911
26431,-5.284003,-1.216254,-5.770026,-0.013057,0.046231,-0.002398
26446,-5.025429,-1.077391,-5.738902,-0.077008,0.041835,0.038904
26461,-5.204994,-1.197101,-5.760449,-0.154548,0.061553,0.079006
26476,-5.068525,-0.993594,-5.734113,-0.190654,0.035839,0.098991
26491,-4.977545,-0.651223,-5.621585,-0.148953,0.033041,0.077407
26506,-4.857835,-0.330400,-5.671864,-0.049962,0.005329,0.023049
26521,-4.944026,-0.507571,-5.643133,0.038770,-0.022250,-0.013190
26536,-5.090073,-0.859518,-5.645527,0.044499,-0.022250,-0.016121
26551,-5.209783,-0.924162,-5.774815,0.034107,-0.016920,-0.015055
26566,-5.173870,-0.864307,-5.815516,0.023848,0.001865,-0.012923
26581,-5.102044,-0.787692,-5.758055,0.037971,0.010792,-0.024914
26596,-5.082890,-0.787692,-5.770026,0.066882,0.006795,-0.039170
26611,-5.391742,-1.072602,-5.736507,0.055957,-0.003198,-0.026113
26626,-5.305551,-1.278504,-5.633556,-0.035972,0.008793,0.034773
26641,-5.336676,-1.371878,-5.868188,-0.139626,-0.011591,0.108184
26656,-5.260061,-1.283292,-5.765238,-0.263931,0.056623,0.162142
26671,-5.310339,-0.826000,-5.784391,-0.266862,0.049162,0.156680
26686,-5.085284,-0.454898,-5.849035,-0.186257,0.037838,0.094461
26701,-4.884171,-0.311246,-5.621585,-0.057956,0.022250,0.017587
26716,-5.008670,-0.574608,-5.619191,0.037172,-0.025447,-0.026247
26731,-5.025429,-0.763750,-5.808333,0.058622,-0.044632,-0.031709
26746,-5.240908,-0.876278,-5.942409,0.090464,-0.069413,-0.043700
26761,-5.300763,-0.962469,-6.050148,0.081005,-0.012124,-0.058622
26776,-5.331887,-0.957681,-6.083666,0.085135,-0.005462,-0.085268
26791,-5.506664,-1.096544,-6.071695,0.069280,0.009726,-0.095127
26806,-5.616797,-1.127669,-6.052542,0.029577,0.034773,-0.070213
26821,-5.489904,-1.300051,-6.047753,-0.073144,0.066882,-0.000799
26836,-5.573701,-1.455675,-6.059724,-0.215968,0.071279,0.096326
26851,-5.240908,-1.022324,-5.815516,-0.317757,0.123239,0.160943
26866,-5.236119,-0.445322,-5.820304,-0.262332,0.108850,0.141225
26881,-4.982334,-0.215478,-5.693411,-0.137095,0.083936,0.066749
26896,-4.663905,-0.258574,-5.420473,0.004263,0.054758,-0.021184
26911,-4.833893,-0.588974,-5.458780,0.071279,0.022783,-0.065683
26926,-4.699818,-0.663194,-5.394136,0.100057,-0.025580,-0.084335
26941,-4.977545,-0.799663,-5.518635,0.115378,-0.072345,-0.090198
26956,-5.135562,-0.823605,-5.750873,0.088199,-0.047963,-0.073011
26971,-5.451597,-1.225831,-6.007052,0.022783,0.001199,-0.027446
26986,-5.324705,-1.189918,-5.877765,-0.079139,0.037704,0.028245
27001,-5.442020,-1.168370,-6.016629,-0.190121,0.099257,0.084069
27016,-4.984728,-0.732626,-5.894525,-0.202778,0.065550,0.098858
27031,-4.869806,-0.521936,-5.801151,-0.168138,0.064884,0.080605
27046,-5.049371,-0.464475,-5.774815,-0.063951,0.021051,0.026913
27061,-4.996699,-0.596156,-5.702988,0.012524,-0.010658,-0.023449
27076,-5.099649,-0.790087,-5.655104,0.029444,-0.005862,-0.044632
27091,-4.879383,-0.782904,-5.722142,0.033974,-0.032109,-0.057689
27106,-5.015852,-0.636858,-5.808333,0.057289,-0.044766,-0.071812
27121,-4.944026,-0.447716,-5.738902,0.107384,-0.080605,-0.082737
27136,-5.102044,-0.567426,-5.691017,0.150018,-0.102721,-0.085268
27151,-5.509058,-1.163582,-5.930438,0.073544,-0.081271,-0.024781
27166,-5.480328,-1.108515,-5.884948,-0.054758,-0.018652,0.055291
27181,-5.729324,-1.312023,-6.138733,-0.179596,0.101389,0.111381
27196,-5.049371,-0.864307,-5.870583,-0.208240,0.077141,0.125904
27211,-4.948815,-0.562637,-5.999869,-0.164407,0.077141,0.092862
27226,-4.991910,-0.483629,-5.884948,-0.068881,0.025447,0.040769
27241,-5.104438,-0.641646,-5.937620,0.023848,-0.001332,-0.007994
27256,-5.221754,-0.873884,-5.880159,0.055557,0.009992,-0.031043
27271,-5.058948,-0.857124,-5.870583,0.069147,-0.009593,-0.049296
27286,-5.276821,-1.094150,-5.884948,0.045432,0.010126,-0.046498
27301,-5.379771,-0.940921,-5.935226,0.037305,0.010259,-0.048629
27316,-5.353435,-0.986411,-5.856217,0.018386,0.029311,-0.037704
27331,-5.236119,-1.089362,-5.793968,-0.050095,0.068614,0.001332
27346,-5.209783,-1.010353,-5.717353,-0.104986,0.059021,0.042634
27361,-5.267244,-0.914585,-5.643133,-0.149885,0.062619,0.078207
27376,-5.073313,-0.677559,-5.434838,-0.166406,0.047564,0.097792
27391,-4.867412,-0.471658,-5.518635,-0.111781,0.005329,0.076741
27406,-4.821922,-0.416591,-5.628768,-0.019452,-0.028378,0.028112
27421,-5.106832,-0.778116,-5.801151,0.041302,-0.034507,-0.019185
27436,-5.231330,-0.931344,-5.906496,0.051427,-0.017853,-0.047164
27451,-5.135562,-0.986411,-5.916072,0.049962,-0.007461,-0.061553
27466,-5.149928,-1.007959,-5.925649,0.017453,0.012657,-0.058489
27481,-5.257667,-0.900220,-5.765238,0.008926,0.007727,-0.054891
27496,-5.250484,-0.792481,-5.911284,0.027312,0.018786,-0.052893
27511,-5.346252,-0.991199,-5.853823,0.022649,0.022383,-0.039170
27526,-5.178658,-1.254562,-5.738902,-0.069946,0.059288,0.017187
27541,-5.183446,-1.144428,-5.820304,-0.133897,0.045565,0.063018
27556,-5.178658,-1.175553,-5.679046,-0.209573,0.071545,0.092329
27571,-4.862624,-0.653617,-5.588067,-0.221830,0.020651,0.093928
27586,-4.730942,-0.366313,-5.564125,-0.138560,-0.031576,0.054758
27601,-4.939238,-0.270545,-5.628768,-0.013723,-0.084868,-0.015855
27616,-5.406107,-0.605733,-5.815516,0.066349,-0.104054,-0.064750
27631,-5.413290,-0.715866,-5.978322,0.072211,-0.061686,-0.093795
27646,-5.501875,-0.768539,-6.059724,0.056090,-0.010525,-0.095926
27661,-5.322310,-0.833182,-6.030994,0.021450,0.031975,-0.077407
27676,-5.269638,-0.624887,-5.975927,0.038371,0.019052,-0.075809
27691,-5.147533,-0.500388,-5.808333,0.087533,-0.011191,-0.082070
27706,-5.442020,-1.082179,-5.990293,0.059688,-0.025980,-0.038637
27721,-5.224148,-1.180341,-5.884948,-0.060087,0.046498,0.032775
27736,-5.588067,-1.359907,-6.057330,-0.143890,0.049828,0.082603
27751,-5.116409,-1.010353,-5.913678,-0.208773,0.065816,0.098058
27766,-5.023035,-0.560243,-5.815516,-0.168804,0.067015,0.059821
27781,-4.951209,-0.294487,-5.805939,-0.058489,0.025714,-0.007194
27796,-5.104438,-0.474052,-5.681440,0.043433,0.010392,-0.053292
27811,-5.114015,-0.799663,-5.679046,0.063418,0.017587,-0.056357
27826,-4.975151,-0.761356,-5.674258,0.062086,-0.009060,-0.047164
27841,-5.035006,-0.897826,-5.643133,0.057289,0.003730,-0.041701
27856,-4.987122,-0.952892,-5.604826,0.046098,0.015055,-0.032508
27871,-5.176264,-1.039083,-5.667075,0.039303,-0.005063,-0.017453
27886,-4.994305,-1.197101,-5.674258,-0.028645,0.014389,0.010392
27901,-4.953603,-1.115698,-5.561730,-0.057689,-0.023449,0.022116
27916,-5.109226,-1.142034,-5.623980,-0.104986,-0.019851,0.028645
27931,-5.334281,-1.084573,-5.667075,-0.144289,-0.013456,0.030377
27946,-5.063736,-0.756568,-5.870583,-0.117110,-0.039703,0.007727
27961,-5.106832,-0.679953,-5.920861,-0.062752,-0.040636,-0.023848
27976,-5.298368,-0.677559,-6.019023,-0.009326,-0.061686,-0.043700
27991,-5.499481,-0.835576,-5.949591,0.003997,-0.043966,-0.032775
28006,-5.480328,-0.799663,-5.975927,-0.002531,-0.001732,-0.015588
28021,-5.430049,-0.775721,-5.916072,-0.003997,0.041168,-0.011724
28036,-5.145139,-0.835576,-5.813122,-0.005063,0.058622,-0.016654
28051,-5.111620,-0.821211,-5.722142,0.008660,0.043433,-0.027446
28066,-5.082890,-0.919373,-5.619191,0.007328,0.009060,-0.025181
