T,AX,AY,AZ,GX,GY,GZ
46,-4.022259,-0.325611,-6.713341,0.123505,0.053292,-0.072611
61,-4.067749,-0.579397,-6.706159,0.123905,0.069014,-0.054625
76,-3.715801,-0.864307,-6.579266,0.081538,0.038904,-0.032375
91,-3.763685,-1.268927,-6.612785,-0.034773,0.043433,0.014522
106,-3.811569,-0.694318,-6.574478,-0.102855,-0.010925,0.019185
121,-3.960010,-0.720655,-6.727706,-0.119242,-0.001066,0.013723
136,-3.804386,-0.246603,-6.517017,-0.069280,-0.011058,0.000400
151,-3.761291,-0.440533,-6.500257,-0.004530,0.003597,-0.010392
166,-3.933673,-0.639252,-6.531382,0.013057,0.022516,0.003864
181,-3.881001,-0.893037,-6.488286,-0.001466,0.063418,0.013590
196,-3.665523,-0.984017,-6.438008,-0.017853,0.077940,0.011858
211,-3.632004,-0.799663,-6.385336,-0.024648,0.069680,-0.003064
226,-3.722984,-0.632069,-6.246472,0.009992,0.030243,-0.035040
241,-3.703830,-0.854730,-6.198588,0.011458,-0.029044,-0.044233
256,-3.746926,-0.945710,-6.169858,-0.059688,-0.072611,-0.015322
271,-3.933673,-0.787692,-6.493075,-0.129234,-0.076608,0.034107
286,-4.134786,-0.572214,-6.390124,-0.178663,-0.015721,0.092063
301,-4.108450,-0.442927,-6.531382,-0.177331,0.014123,0.142824
316,-3.876213,-0.392649,-6.517017,-0.149219,0.042501,0.157746
331,-3.603273,-0.584185,-6.366182,-0.094594,0.057289,0.112314
346,-3.495534,-0.857124,-6.227318,-0.023715,0.035040,0.024381
361,-3.521871,-0.984017,-6.306327,0.037305,-0.026779,-0.059554
376,-3.679888,-0.979228,-6.306327,0.054225,-0.103521,-0.111515
391,-3.854665,-0.964863,-6.390124,0.036505,-0.120308,-0.125504
406,-4.082114,-0.936133,-6.481104,-0.015322,-0.096726,-0.091130
421,-4.065354,-1.005565,-6.435614,-0.068614,-0.087400,-0.034374
436,-4.244920,-0.888249,-6.801927,-0.166406,-0.055691,0.039303
451,-4.096479,-0.404620,-6.715735,-0.201579,-0.049162,0.099524
466,-4.053383,-0.114922,-6.727706,-0.140559,-0.032642,0.109516
481,-4.230554,-0.110133,-6.842628,-0.046897,-0.017720,0.091663
496,-4.209006,-0.349553,-6.739678,0.024115,0.011991,0.070613
511,-4.041412,-0.737414,-6.720524,0.032109,0.027979,0.032375
526,-3.926491,-0.893037,-6.545747,0.024914,0.021717,-0.025047
541,-4.046201,-0.955286,-6.526594,0.003331,0.006395,-0.062619
556,-4.012682,-0.818817,-6.512228,-0.009593,-0.041835,-0.083536
571,-4.053383,-0.912191,-6.617573,-0.067815,-0.075942,-0.056757
586,-4.204218,-0.718261,-6.722918,-0.150285,-0.038904,0.003864
601,-4.252102,-0.514753,-6.751649,-0.184525,-0.021184,0.059688
616,-4.276044,-0.225055,-6.708553,-0.174266,0.022250,0.101922
631,-4.151546,-0.062249,-6.603208,-0.117910,0.038237,0.122040
646,-4.029441,-0.067038,-6.708553,-0.047430,0.073544,0.109116
661,-4.024653,-0.414197,-6.603208,0.020384,0.094727,0.061953
676,-3.926491,-0.667982,-6.567295,0.056224,0.100856,-0.008793
691,-3.912126,-0.878672,-6.440403,0.061286,0.093795,-0.076342
706,-3.720589,-1.106121,-6.495469,0.009193,0.075276,-0.109383
721,-3.727772,-1.300051,-6.347029,-0.069014,0.028511,-0.114579
736,-3.746926,-1.041478,-6.459556,-0.145355,-0.013456,-0.099657
751,-3.746926,-0.538695,-6.306327,-0.179462,-0.080205,-0.057556
766,-3.881001,-0.174777,-6.277597,-0.185591,-0.091796,0.012657
781,-4.048595,0.107739,-6.514623,-0.159744,-0.078207,0.083536
796,-4.259285,0.225055,-6.634333,-0.060487,-0.018919,0.100590
811,-4.165911,-0.067038,-6.691793,0.042368,0.024648,0.069547
826,-3.900155,-0.407014,-6.600814,0.096060,0.036772,0.006528
841,-3.897760,-0.787692,-6.655880,0.099657,0.014389,-0.049029
856,-4.010288,-1.072602,-6.665457,0.046764,-0.018253,-0.071145
871,-4.134786,-0.907402,-6.481104,-0.010925,-0.030510,-0.068214
886,-4.058172,-0.691924,-6.526594,-0.050228,-0.041435,-0.042101
901,-4.039018,-0.462081,-6.643909,-0.060221,-0.045565,-0.002798
916,-4.254497,-0.507571,-6.672640,-0.059021,-0.025714,0.045032
931,-4.402937,-0.351948,-6.663063,-0.052493,0.002398,0.069547
946,-4.235343,-0.627281,-6.730101,-0.051960,0.044499,0.062086
961,-3.950433,-0.936133,-6.579266,-0.054891,0.071412,0.001332
976,-3.847482,-1.072602,-6.485892,-0.057023,0.070213,-0.080338
991,-3.746926,-1.110910,-6.301539,-0.054758,0.019851,-0.148686
1006,-3.739743,-0.811634,-6.323087,-0.013590,-0.056224,-0.208240
1021,-3.813963,-0.775721,-6.335058,0.026646,-0.101655,-0.234354
1036,-4.137180,-0.823605,-6.435614,0.019585,-0.126703,-0.204910
1051,-4.371812,-0.696713,-6.493075,-0.043167,-0.094194,-0.117243
1066,-4.541800,-0.395043,-6.667851,-0.112980,-0.042368,0.002931
1081,-4.383783,-0.016759,-6.670246,-0.106585,0.036505,0.091130
1096,-4.321534,0.088585,-6.619967,-0.050095,0.078473,0.138960
1111,-4.240131,0.114922,-6.545747,0.009459,0.076075,0.154548
1126,-4.118027,-0.172383,-6.500257,0.052360,0.066216,0.155614
1141,-3.902549,-0.696713,-6.397307,0.042767,0.068214,0.106585
1156,-3.773262,-1.137246,-6.193799,0.037172,0.042634,0.004930
1171,-3.758897,-1.419762,-6.258443,0.005329,0.005862,-0.078740
1186,-3.866636,-1.163582,-6.373365,-0.029577,-0.044100,-0.114712
1201,-4.000711,-0.972046,-6.394913,-0.065550,-0.056623,-0.111781
1216,-4.082114,-0.696713,-6.512228,-0.083936,-0.047963,-0.078340
1231,-4.197035,-0.622492,-6.624756,-0.088998,-0.021717,-0.037172
1246,-4.187459,-0.356736,-6.591237,-0.086734,-0.014256,0.005462
1261,-4.108450,-0.237026,-6.562507,-0.083669,-0.009593,0.048629
1276,-4.125209,-0.134075,-6.416461,-0.074876,0.005462,0.088066
1291,-4.146757,-0.256180,-6.373365,-0.062885,0.024914,0.112047
1306,-4.043807,-0.454898,-6.277597,-0.045432,0.029444,0.085401
1321,-3.794810,-0.593762,-6.186617,-0.001332,0.028378,-0.003064
1336,-3.816357,-0.823605,-6.272809,0.038504,-0.039303,-0.083136
1351,-3.888184,-0.952892,-6.370971,0.012391,-0.077807,-0.105652
1366,-4.175488,-0.859518,-6.519411,-0.029044,-0.100856,-0.102322
1381,-4.278439,-0.761356,-6.598420,-0.073677,-0.076608,-0.066216
1396,-4.309563,-0.490811,-6.655880,-0.114446,-0.019718,-0.003064
1411,-4.347870,-0.150835,-6.643909,-0.110315,0.012257,0.059688
1426,-4.299986,0.057461,-6.593631,-0.064217,0.022516,0.100456
1441,-4.242526,-0.047884,-6.548141,-0.003198,0.012124,0.113779
1456,-4.053383,-0.328006,-6.452374,0.029444,0.018253,0.091530
1471,-4.194641,-0.931344,-6.507440,0.026380,0.015588,0.045565
1486,-3.988740,-1.271321,-6.406884,-0.021583,0.038504,-0.038637
1501,-4.019865,-1.290475,-6.320693,-0.037438,-0.001865,-0.120574
1516,-3.888184,-1.086968,-6.411672,-0.052760,-0.050761,-0.183326
1531,-4.137180,-1.000776,-6.533776,-0.050894,-0.080605,-0.217833
1546,-4.266468,-0.766145,-6.543353,-0.073410,-0.078340,-0.195051
1561,-4.402937,-0.536301,-6.560112,-0.108317,-0.070879,-0.115511
1576,-4.369418,-0.138864,-6.646304,-0.160144,-0.042900,0.005063
1591,-4.520253,0.229843,-6.540959,-0.153349,0.017187,0.111914
1606,-4.582502,0.488417,-6.550536,-0.088732,0.065283,0.178796
1621,-4.448427,0.679953,-6.473921,0.029444,0.110582,0.201979
1636,-4.180276,0.304064,-6.200982,0.116844,0.112847,0.223162
1651,-3.873818,-0.615310,-6.246472,0.082470,0.127902,0.228891
1666,-3.653552,-1.079785,-6.052542,0.062752,0.078873,0.138294
1681,-3.598485,-1.477222,-6.098032,0.070746,0.003997,0.000400
1696,-3.670311,-1.570596,-6.248867,0.036639,-0.105119,-0.119508
1711,-3.837905,-1.620875,-6.241684,-0.047830,-0.156946,-0.184525
1726,-4.218583,-1.297657,-6.406884,-0.138827,-0.146821,-0.177597
1741,-4.537012,-0.859518,-6.505046,-0.212237,-0.087133,-0.102721
1756,-4.469975,-0.148441,-6.598420,-0.238617,-0.009726,0.004397
1771,-4.350265,0.385466,-6.576872,-0.194784,0.021983,0.102588
1786,-4.283227,0.632069,-6.562507,-0.087133,0.024248,0.171335
1801,-4.390966,0.565032,-6.526594,0.041302,0.029844,0.199714
1816,-4.357447,-0.172383,-6.459556,0.101256,0.069413,0.202112
1831,-4.065354,-0.744597,-6.291962,0.090464,0.074876,0.159345
1846,-3.861847,-1.192312,-6.244078,0.080871,0.081404,0.053559
1861,-3.916914,-1.352724,-6.279991,0.078473,-0.014655,-0.044632
1876,-4.053383,-1.271321,-6.442797,0.035040,-0.071412,-0.102322
1891,-4.115633,-1.074997,-6.363788,-0.018253,-0.115511,-0.107651
1906,-4.417302,-0.797269,-6.627150,-0.074876,-0.085801,-0.058622
1921,-4.647145,-0.670376,-6.703764,-0.108450,-0.015455,0.014256
1936,-4.532224,-0.320823,-6.663063,-0.120175,0.029977,0.072611
1951,-4.261679,-0.119710,-6.536170,-0.096859,0.058489,0.099257
1966,-4.192247,-0.217872,-6.335058,-0.056490,0.041168,0.100456
1981,-4.201824,-0.562637,-6.303933,-0.027446,0.038371,0.069680
1996,-4.091691,-0.835576,-6.342240,-0.002665,0.036639,-0.008660
2011,-3.900155,-1.125275,-6.184223,0.013590,-0.008127,-0.094061
2026,-3.948039,-1.209072,-6.351817,-0.018652,-0.051560,-0.155747
2041,-4.144363,-0.964863,-6.284780,-0.049562,-0.084069,-0.193185
2056,-4.352659,-0.677559,-6.272809,-0.055291,-0.094061,-0.191187
2071,-4.429273,-0.378284,-6.536170,-0.065949,-0.069813,-0.132165
2086,-4.525041,-0.016759,-6.675034,-0.070080,-0.019585,-0.040636
2101,-4.654328,0.134075,-6.691793,-0.067415,0.019319,0.053292
2116,-4.505888,0.210690,-6.536170,-0.042501,0.062485,0.114845
2131,-4.407725,0.177171,-6.603208,-0.019718,0.083669,0.150818
2146,-4.295198,-0.131681,-6.359000,-0.006928,0.104853,0.161743
2161,-4.048595,-0.505177,-6.287174,0.006129,0.090730,0.119242
2176,-3.687071,-0.778116,-6.155492,0.035972,0.049695,0.020518
2191,-3.825934,-1.055843,-6.212953,0.047963,-0.010792,-0.078074
2206,-3.986346,-1.146823,-6.306327,0.035573,-0.074609,-0.154149
2221,-4.242526,-1.015141,-6.366182,-0.001998,-0.081538,-0.172534
2236,-4.378995,-0.830788,-6.452374,-0.065283,-0.068881,-0.121640
2251,-4.467580,-0.605733,-6.627150,-0.140026,0.011591,-0.021184
2266,-4.532224,-0.260968,-6.655880,-0.171335,0.060753,0.072478
2281,-4.546589,-0.014365,-6.497863,-0.134031,0.078606,0.123372
2296,-4.295198,0.146046,-6.421249,-0.071279,0.067681,0.138294
2311,-4.089296,0.124498,-6.275203,0.018253,0.053292,0.127502
2326,-4.168305,-0.308852,-6.241684,0.066616,0.016920,0.108583
2341,-4.084508,-0.797269,-6.287174,0.061819,0.025980,0.040769
2356,-3.991134,-1.074997,-6.114791,0.045965,-0.014256,-0.048363
2371,-3.909731,-1.285686,-6.155492,-0.002398,-0.045432,-0.105386
2386,-4.125209,-0.984017,-6.260838,-0.048363,-0.073943,-0.124038
2401,-4.333505,-0.732626,-6.390124,-0.062219,-0.092196,-0.105386
2416,-4.438850,-0.562637,-6.538565,-0.069014,-0.063285,-0.057423
2431,-4.515464,-0.423774,-6.610391,-0.088332,-0.017587,0.017720
2446,-4.513070,-0.375890,-6.785168,-0.109383,0.036905,0.093262
2461,-4.541800,-0.186748,-6.598420,-0.114312,0.071279,0.133231
2476,-4.388572,-0.035913,-6.512228,-0.070479,0.089665,0.134430
2491,-4.180276,0.035913,-6.359000,-0.014389,0.082603,0.118443
2506,-4.096479,-0.304064,-6.189011,0.021450,0.057956,0.094328
2521,-4.029441,-0.694318,-6.162675,0.033974,0.031443,0.026380
2536,-3.907337,-0.895431,-6.155492,0.040636,-0.021850,-0.052760
2551,-3.955221,-0.924162,-6.227318,0.023049,-0.084602,-0.103387
2566,-4.122815,-0.799663,-6.370971,-0.002665,-0.119375,-0.119775
2581,-4.419696,-0.754174,-6.517017,-0.019319,-0.107118,-0.103387
2596,-4.671087,-0.596156,-6.545747,-0.059421,-0.041302,-0.040369
2611,-4.534618,-0.380678,-6.629544,-0.109916,0.041435,0.048230
2626,-4.388572,-0.208296,-6.569689,-0.127103,0.078340,0.125104
2641,-4.307169,0.016759,-6.593631,-0.087799,0.067948,0.156014
2656,-4.419696,0.055067,-6.416461,-0.014389,0.057289,0.145355
2671,-4.314352,-0.052672,-6.397307,0.052626,0.060087,0.122706
2686,-4.328717,-0.505177,-6.404490,0.043833,0.067149,0.113646
2701,-4.058172,-0.976834,-6.277597,-0.003331,0.064750,0.069147
2716,-3.962404,-1.115698,-6.177040,-0.029311,0.050628,-0.017986
2731,-3.818752,-1.074997,-6.148310,-0.022116,-0.029711,-0.120974
2746,-3.957615,-1.039083,-6.260838,-0.015188,-0.080871,-0.193052
2761,-4.173093,-0.864307,-6.402095,-0.013190,-0.132165,-0.217567
2776,-4.604050,-0.751779,-6.519411,-0.036639,-0.113513,-0.184392
2791,-4.723760,-0.519542,-6.514623,-0.102988,-0.025314,-0.082337
2806,-4.594473,0.007183,-6.629544,-0.134963,0.037305,0.038371
2821,-4.592079,0.265756,-6.619967,-0.101522,0.087133,0.131899
2836,-4.484340,0.325611,-6.382942,-0.042634,0.092596,0.185991
2851,-4.378995,0.330400,-6.414066,0.041968,0.082603,0.204643
2866,-4.211401,0.069432,-6.291962,0.074343,0.080338,0.211172
2881,-4.204218,-0.445322,-6.150704,0.082470,0.069413,0.191853
2896,-4.082114,-1.280898,-6.138733,0.035440,0.071145,0.109250
2911,-3.610456,-1.644817,-5.954380,-0.013190,0.023715,-0.031443
2926,-3.660734,-1.587356,-6.105214,-0.028511,-0.063951,-0.167738
2941,-3.995923,-1.412579,-6.186617,-0.046897,-0.119775,-0.261799
2956,-4.410120,-1.182736,-6.265626,-0.067149,-0.144156,-0.279786
2971,-4.745308,-1.039083,-6.524199,-0.129368,-0.058089,-0.215168
2986,-4.534618,-0.452504,-6.555324,-0.198781,0.014123,-0.094194
3001,-4.438850,0.153229,-6.466739,-0.192519,0.035972,0.025447
3016,-4.362236,0.577003,-6.284780,-0.136828,0.019319,0.119775
3031,-4.647145,0.639252,-6.495469,-0.041968,0.021850,0.175599
3046,-4.450821,0.675165,-6.404490,0.083403,0.020118,0.190387
3061,-4.455609,-0.009577,-6.435614,0.122440,0.069280,0.186391
3076,-4.285621,-0.828394,-6.320693,0.100190,0.072877,0.128035
3091,-3.948039,-1.185130,-6.153098,0.060221,0.064217,0.012257
3106,-3.859453,-1.307234,-6.141127,0.029444,-0.029711,-0.073410
3121,-3.940856,-1.058237,-6.327875,-0.014123,-0.084868,-0.112847
3136,-4.204218,-0.761356,-6.315904,-0.035972,-0.110582,-0.112847
3151,-4.560954,-0.651223,-6.538565,-0.053426,-0.098458,-0.071012
3166,-4.661510,-0.411803,-6.591237,-0.094861,-0.026646,0.003864
3181,-4.656722,-0.131681,-6.651092,-0.121374,0.013057,0.079672
3196,-4.592079,-0.059855,-6.689399,-0.106985,0.056357,0.120574
3211,-4.527435,-0.280122,-6.569689,-0.078207,0.080605,0.113913
3226,-4.386178,-0.574608,-6.433220,-0.041701,0.090997,0.059021
3241,-3.964798,-0.758962,-6.332664,-0.012257,0.080472,-0.031576
3256,-4.065354,-1.005565,-6.210559,0.020518,0.014123,-0.117776
3271,-4.141969,-1.022324,-6.248867,0.015322,-0.046231,-0.175199
3286,-4.340688,-0.787692,-6.397307,0.011458,-0.079273,-0.209440
3301,-4.374207,-0.629675,-6.347029,-0.008260,-0.073011,-0.180928
3316,-4.546589,-0.409408,-6.442797,-0.038104,-0.048496,-0.107518
3331,-4.680664,-0.174777,-6.605602,-0.073277,-0.012391,0.002531
3346,-4.814740,-0.050278,-6.581660,-0.094194,0.056224,0.104853
3361,-4.572925,0.098162,-6.476315,-0.072611,0.113380,0.156680
3376,-4.381389,0.213084,-6.440403,-0.005596,0.132698,0.161610
3391,-4.335899,-0.172383,-6.461950,0.028645,0.142158,0.151617
3406,-4.161122,-0.617704,-6.251261,0.037038,0.111914,0.105519
3421,-3.971981,-0.969652,-6.021417,0.044899,0.094861,0.016654
3436,-3.811569,-0.981623,-6.019023,0.039037,0.026247,-0.058489
3451,-3.945644,-1.031901,-6.074090,0.009060,-0.030643,-0.099391
3466,-4.122815,-0.883460,-6.110003,-0.012391,-0.080472,-0.101922
3481,-4.225766,-0.723049,-6.279991,-0.025047,-0.096593,-0.083669
3496,-4.309563,-0.565032,-6.457162,-0.041035,-0.075009,-0.043433
3511,-4.627992,-0.402226,-6.521805,-0.085135,0.000266,0.019585
3526,-4.467580,-0.390255,-6.531382,-0.101522,0.034773,0.071812
3541,-4.436456,-0.117316,-6.531382,-0.072611,0.078740,0.083536
3556,-4.168305,-0.045490,-6.411672,-0.025580,0.056890,0.085801
3571,-4.235343,-0.292093,-6.138733,0.009060,0.043300,0.079273
3586,-4.043807,-0.677559,-6.272809,0.014655,0.029444,0.041701
3601,-4.118027,-0.902614,-6.174646,0.019585,-0.012790,-0.008527
3616,-4.094085,-0.878672,-6.275203,0.015988,-0.051827,-0.067681
3631,-4.338294,-0.792481,-6.382942,0.009593,-0.059554,-0.102455
3646,-4.434062,-0.797269,-6.414066,-0.005329,-0.064084,-0.108717
3661,-4.695029,-0.718261,-6.428432,-0.041435,-0.032908,-0.071145
3676,-4.525041,-0.524330,-6.500257,-0.093928,0.018519,0.001998
3691,-4.546589,-0.325611,-6.433220,-0.124038,0.053292,0.069946
3706,-4.539406,-0.277727,-6.483498,-0.110182,0.061553,0.110582
3721,-4.414908,-0.193930,-6.423643,-0.064750,0.053426,0.117243
3736,-4.319140,-0.205901,-6.308722,-0.014389,0.043966,0.108184
3751,-4.170699,-0.620098,-6.275203,0.003064,0.058888,0.070346
3766,-4.046201,-0.924162,-6.208165,0.027579,0.038504,-0.011058
3781,-4.108450,-1.048660,-6.265626,0.017054,0.024515,-0.091796
3796,-4.046201,-0.967257,-6.227318,-0.006928,-0.026247,-0.137095
3811,-4.065354,-0.703895,-6.239290,-0.034640,-0.059155,-0.144956
3826,-4.319140,-0.541090,-6.301539,-0.056490,-0.058888,-0.114179
3841,-4.484340,-0.433351,-6.363788,-0.079406,-0.011325,-0.047164
3856,-4.481946,-0.177171,-6.390124,-0.105253,0.017587,0.032109
3871,-4.357447,-0.098162,-6.526594,-0.100723,0.041168,0.092995
3886,-4.395754,-0.011971,-6.361394,-0.083536,0.038237,0.128568
3901,-4.455609,-0.079009,-6.416461,-0.036239,0.039570,0.128701
3916,-4.386178,-0.019154,-6.409278,0.015188,0.047430,0.122173
3931,-4.302381,-0.146046,-6.351817,0.051694,0.042900,0.108051
3946,-4.192247,-0.778116,-6.339846,0.033974,0.064084,0.080338
3961,-3.940856,-1.019930,-6.107608,0.009593,0.033308,0.005862
3976,-3.928885,-1.233014,-6.155492,-0.006928,-0.018519,-0.064351
3991,-3.955221,-1.003170,-6.220136,-0.044499,-0.086201,-0.104587
4006,-4.194641,-0.768539,-6.294356,-0.044100,-0.118709,-0.129634
4021,-4.553771,-0.737414,-6.490681,-0.044233,-0.105919,-0.123106
4036,-4.759673,-0.622492,-6.619967,-0.083536,-0.017853,-0.063152
4051,-4.608838,-0.270545,-6.689399,-0.125904,0.040502,0.017453
4066,-4.458004,-0.057461,-6.528988,-0.111115,0.079273,0.082070
4081,-4.424485,0.023942,-6.385336,-0.060620,0.073277,0.109649
4096,-4.395754,0.057461,-6.363788,0.023049,0.060620,0.101789
4111,-4.297592,-0.148441,-6.382942,0.090730,0.037038,0.078873
4126,-4.235343,-0.658405,-6.320693,0.089132,0.034240,0.046764
4141,-4.077325,-1.036689,-6.251261,0.052227,0.014789,-0.008660
4156,-4.168305,-1.113304,-6.325481,0.016254,-0.033708,-0.072345
4171,-4.223372,-0.905008,-6.296751,-0.021450,-0.058089,-0.095793
4186,-4.343082,-0.656011,-6.449979,-0.052493,-0.065550,-0.094727
4201,-4.541800,-0.567426,-6.531382,-0.080472,-0.023715,-0.051161
4216,-4.656722,-0.404620,-6.569689,-0.110182,0.029444,0.019585
4231,-4.534618,-0.191536,-6.526594,-0.104587,0.059954,0.073011
4246,-4.314352,-0.074220,-6.569689,-0.061953,0.059288,0.091130
4261,-4.290410,-0.141258,-6.428432,-0.019718,0.055691,0.091930
4276,-4.441244,-0.155623,-6.428432,0.017986,0.054492,0.075142
4291,-4.398149,-0.426168,-6.189011,0.033308,0.058222,0.064750
4306,-4.199430,-0.711078,-6.222530,0.013723,0.066083,0.021717
4321,-4.000711,-0.849942,-6.040571,0.016521,0.033041,-0.046631
4336,-4.108450,-0.974440,-6.222530,0.002531,-0.014123,-0.085801
4351,-4.189853,-0.727837,-6.196194,-0.007461,-0.063685,-0.106185
4366,-4.271256,-0.605733,-6.378153,0.001332,-0.068481,-0.101522
4381,-4.469975,-0.574608,-6.335058,-0.009193,-0.048629,-0.077407
4396,-4.639963,-0.526724,-6.528988,-0.052227,0.008793,-0.012391
4411,-4.649539,-0.383072,-6.378153,-0.097659,0.050894,0.074609
4426,-4.417302,-0.093374,-6.361394,-0.105119,0.083802,0.129368
4441,-4.283227,-0.057461,-6.275203,-0.054625,0.076075,0.142158
4456,-4.266468,-0.272939,-6.282385,0.004130,0.052360,0.133498
4471,-4.235343,-0.677559,-6.143521,0.032908,0.038371,0.097925
4486,-4.005499,-0.998382,-6.112397,0.027579,0.025447,0.022783
4501,-3.928885,-1.137246,-6.160281,0.006129,-0.013856,-0.051960
4516,-4.232948,-1.029507,-6.212953,-0.025714,-0.042368,-0.091930
4531,-4.398149,-0.840365,-6.306327,-0.046764,-0.067415,-0.105652
4546,-4.352659,-0.562637,-6.244078,-0.046631,-0.066349,-0.087400
4561,-4.405331,-0.452504,-6.433220,-0.047297,-0.057956,-0.041968
4576,-4.671087,-0.339977,-6.459556,-0.065683,-0.027845,0.025580
4591,-4.697423,-0.251391,-6.658275,-0.075942,0.035306,0.082204
4606,-4.632780,-0.246603,-6.617573,-0.065283,0.072611,0.105786
4621,-4.422091,-0.282516,-6.579266,-0.041701,0.112047,0.096593
4636,-4.259285,-0.567426,-6.409278,-0.017187,0.110848,0.050361
4651,-4.252102,-0.732626,-6.251261,0.005196,0.069147,-0.006129
4666,-4.067749,-0.976834,-6.246472,-0.004130,0.040769,-0.066349
4681,-3.991134,-0.845153,-6.124368,0.005063,-0.033308,-0.121107
4696,-4.120421,-0.849942,-6.244078,0.008793,-0.066882,-0.153349
4711,-4.407725,-0.737414,-6.337452,0.011858,-0.086201,-0.167472
4726,-4.544195,-0.679953,-6.421249,-0.004796,-0.076208,-0.150152
4741,-4.592079,-0.533907,-6.390124,-0.055691,-0.040769,-0.091663
4756,-4.687847,-0.399832,-6.464345,-0.127236,0.033708,0.011724
4771,-4.548983,-0.076614,-6.500257,-0.151617,0.068214,0.096326
4786,-4.592079,0.071826,-6.466739,-0.100989,0.086600,0.130167
4801,-4.271256,0.110133,-6.366182,-0.019585,0.066749,0.133098
4816,-4.314352,-0.069432,-6.349423,0.043167,0.068214,0.122306
4831,-4.390966,-0.672771,-6.253655,0.048230,0.066482,0.109116
4846,-4.046201,-0.988805,-6.136339,0.008793,0.067415,0.047963
4861,-3.809175,-1.113304,-6.093243,-0.001599,0.024248,-0.051560
4876,-3.864241,-1.146823,-6.224924,-0.023582,-0.027312,-0.128035
4891,-4.204218,-1.027112,-6.296751,-0.052093,-0.061686,-0.163075
4906,-4.381389,-0.830788,-6.356606,-0.070613,-0.069547,-0.167472
4921,-4.517859,-0.588974,-6.275203,-0.089398,-0.035173,-0.119109
4936,-4.462792,-0.304064,-6.495469,-0.117643,0.010259,-0.034773
4951,-4.448427,-0.126893,-6.366182,-0.121374,0.025980,0.049828
4966,-4.510676,-0.031125,-6.428432,-0.100590,0.031842,0.111248
4981,-4.481946,0.045490,-6.306327,-0.046631,0.026779,0.131766
4996,-4.484340,0.019154,-6.308722,0.022916,0.046631,0.111115
5011,-4.316746,-0.208296,-6.368577,0.067681,0.034640,0.093395
5026,-4.359841,-0.646434,-6.284780,0.060354,0.043966,0.063951
5041,-4.086902,-0.974440,-6.145916,0.036372,0.011991,0.007194
5056,-3.969586,-1.158794,-6.191405,0.017453,-0.011591,-0.076342
5071,-4.127604,-1.161188,-6.426037,0.001066,-0.059288,-0.136429
5086,-4.431667,-1.084573,-6.464345,-0.022783,-0.085668,-0.153349
5101,-4.596867,-0.926556,-6.588843,-0.048496,-0.076475,-0.142557
5116,-4.745308,-0.770933,-6.643909,-0.095394,-0.007461,-0.094328
5131,-4.704606,-0.454898,-6.751649,-0.137361,0.068481,-0.016254
5146,-4.671087,-0.119710,-6.569689,-0.134430,0.103787,0.062219
5161,-4.438850,0.055067,-6.390124,-0.087933,0.127902,0.118842
5176,-4.256891,0.100556,-6.318298,-0.012524,0.112980,0.136695
5191,-4.141969,0.050278,-6.282385,0.058089,0.080871,0.137628
5206,-4.268862,-0.239420,-6.177040,0.089265,0.056490,0.130433
5221,-4.273650,-0.778116,-6.169858,0.071279,0.055824,0.104054
5236,-3.931279,-1.072602,-5.995081,0.029844,0.029577,0.018652
5251,-3.797204,-1.206678,-5.975927,0.003864,-0.014655,-0.085668
5266,-4.110844,-1.077391,-6.277597,-0.030910,-0.064750,-0.145355
5281,-4.378995,-0.797269,-6.390124,-0.063418,-0.082603,-0.153882
5296,-4.539406,-0.572214,-6.399701,-0.086467,-0.048496,-0.117377
5311,-4.525041,-0.366313,-6.612785,-0.122972,0.022916,-0.041968
5326,-4.553771,-0.016759,-6.471527,-0.128701,0.060487,0.054891
5341,-4.355053,0.179565,-6.445191,-0.091530,0.067415,0.136695
5356,-4.268862,0.253785,-6.409278,-0.017320,0.051694,0.177997
5371,-4.283227,0.165200,-6.294356,0.059421,0.046231,0.178930
5386,-4.364630,-0.380678,-6.387730,0.085002,0.057023,0.172135
5401,-4.220977,-0.919373,-6.368577,0.063018,0.071945,0.117377
5416,-4.108450,-1.347936,-6.222530,0.032642,0.057289,0.021717
5431,-3.785233,-1.254562,-6.198588,-0.003064,-0.003997,-0.075276
5446,-4.110844,-1.237802,-6.241684,-0.023315,-0.048763,-0.137361
5461,-4.333505,-0.916979,-6.363788,-0.035040,-0.096859,-0.158678
5476,-4.584896,-0.780510,-6.447585,-0.047697,-0.071012,-0.132832
5491,-4.711789,-0.624887,-6.545747,-0.098325,-0.016521,-0.053426
5506,-4.639963,-0.323217,-6.574478,-0.145489,0.043567,0.043300
5521,-4.618415,-0.040701,-6.538565,-0.129101,0.091530,0.120708
5536,-4.424485,0.105345,-6.524199,-0.064617,0.083936,0.149619
5551,-4.314352,0.100556,-6.394913,0.023715,0.074609,0.140026
5566,-4.280833,-0.110133,-6.416461,0.093662,0.061686,0.115511
5581,-4.417302,-0.545878,-6.248867,0.100989,0.043966,0.096726
5596,-4.359841,-0.950498,-6.461950,0.048096,0.067548,0.055957
5611,-4.122815,-1.120486,-6.291962,-0.002132,0.062752,-0.016121
5626,-3.964798,-1.185130,-6.306327,-0.047297,0.050361,-0.069147
5641,-4.168305,-0.998382,-6.311116,-0.094727,0.027179,-0.079406
5656,-4.311957,-0.778116,-6.335058,-0.110182,0.018519,-0.062219
5671,-4.261679,-0.507571,-6.222530,-0.105652,0.026380,-0.029178
5686,-4.134786,-0.397437,-6.256049,-0.098991,0.035706,0.011724
5701,-4.204218,-0.344765,-6.296751,-0.084469,0.042501,0.052093
5716,-4.204218,-0.258574,-6.066907,-0.057023,0.032109,0.089665
5731,-4.211401,-0.191536,-6.157887,-0.002931,0.050628,0.093395
5746,-4.079720,-0.229843,-6.145916,0.047031,0.038237,0.087666
5761,-4.115633,-0.339977,-6.074090,0.088466,0.029178,0.075809
5776,-4.247314,-0.768539,-6.148310,0.064484,0.013723,0.080871
5791,-3.967192,-1.086968,-6.074090,0.009726,0.028245,0.031576
5806,-3.792415,-1.185130,-5.959168,-0.007061,-0.015055,-0.048363
5821,-3.912126,-1.197101,-6.224924,-0.050628,-0.061020,-0.097659
5836,-4.141969,-0.936133,-6.289568,-0.095394,-0.083669,-0.108184
5851,-4.290410,-0.727837,-6.385336,-0.126703,-0.081671,-0.096992
5866,-4.261679,-0.500388,-6.330269,-0.160677,-0.061553,-0.063685
5881,-4.292804,-0.079009,-6.430826,-0.164008,-0.061420,-0.016787
5896,-4.522647,0.129287,-6.543353,-0.140959,-0.053426,0.044499
5911,-4.644751,0.280122,-6.641515,-0.103254,-0.035839,0.101389
5926,-4.632780,0.275333,-6.684611,-0.043833,0.005329,0.127236
5941,-4.568137,0.174777,-6.677428,0.016920,0.030510,0.132165
5956,-4.752491,-0.232238,-6.761226,0.026646,0.074476,0.130300
5971,-4.479551,-0.440533,-6.591237,0.031043,0.073144,0.107784
5986,-4.182670,-0.701501,-6.392519,0.008926,0.084202,0.069680
6001,-4.074931,-0.665588,-6.349423,-0.007461,0.025447,0.022383
6016,-4.223372,-0.672771,-6.385336,-0.009459,-0.010126,-0.010392
6031,-4.393360,-0.689530,-6.303933,-0.015055,-0.045965,-0.025847
6046,-4.481946,-0.598550,-6.454768,-0.051161,-0.044899,-0.008527
6061,-4.551377,-0.442927,-6.509834,-0.090864,-0.026646,0.030643
6076,-4.637568,-0.366313,-6.550536,-0.114046,0.016787,0.080072
6091,-4.616021,-0.155623,-6.514623,-0.099391,0.045832,0.106851
6106,-4.412514,-0.155623,-6.500257,-0.049162,0.063285,0.097525
6121,-4.510676,-0.263362,-6.457162,0.006395,0.081404,0.064351
6136,-4.450821,-0.526724,-6.284780,0.035972,0.094061,0.025447
6151,-4.053383,-0.780510,-6.141127,0.024248,0.091130,-0.013723
6166,-3.976769,-0.809240,-6.098032,0.009459,0.050628,-0.037838
6181,-4.070143,-0.835576,-6.129156,-0.024248,0.009726,-0.034907
6196,-4.247314,-0.708684,-6.239290,-0.054891,0.002531,-0.024115
6211,-4.168305,-0.466869,-6.191405,-0.047830,0.001998,-0.018119
6226,-4.120421,-0.497994,-6.392519,-0.038504,0.001732,-0.014655
6241,-4.182670,-0.466869,-6.311116,-0.044632,0.003997,-0.009060
6256,-4.345476,-0.421380,-6.193799,-0.047297,0.003198,-0.005196
6271,-4.316746,-0.277727,-6.200982,-0.048363,0.002132,0.003730
6286,-4.180276,-0.258574,-6.212953,-0.031842,-0.018919,0.010925
6301,-4.352659,-0.296881,-6.433220,-0.006928,-0.023449,0.006928
6316,-4.388572,-0.421380,-6.430826,0.001599,-0.019452,0.002931
6331,-4.376601,-0.632069,-6.562507,-0.017853,0.013856,-0.011724
6346,-4.252102,-0.790087,-6.363788,-0.046631,0.024515,-0.042234
6361,-4.206612,-0.847547,-6.325481,-0.083270,0.029711,-0.074476
6376,-4.201824,-0.723049,-6.313510,-0.100190,0.000799,-0.084735
6391,-4.137180,-0.464475,-6.184223,-0.093262,-0.031576,-0.093395
6406,-4.067749,-0.275333,-6.191405,-0.047031,-0.081271,-0.104720
6421,-4.352659,-0.248997,-6.284780,-0.009726,-0.108850,-0.103787
6436,-4.716577,-0.347159,-6.402095,-0.020118,-0.100590,-0.068348
6451,-4.774038,-0.313640,-6.572083,-0.068081,-0.061020,-0.015188
6466,-4.802769,-0.143652,-6.730101,-0.104720,0.011325,0.037704
6481,-4.733336,-0.009577,-6.665457,-0.100856,0.072744,0.073410
6496,-4.630386,-0.124498,-6.682217,-0.085135,0.100190,0.094461
6511,-4.424485,-0.270545,-6.473921,-0.071012,0.097925,0.096459
6526,-4.220977,-0.421380,-6.373365,-0.055025,0.078606,0.075009
6541,-4.139575,-0.687136,-6.155492,-0.054092,0.042767,0.045432
6556,-4.240131,-0.782904,-6.320693,-0.071145,0.030110,0.003997
6571,-4.285621,-0.667982,-6.208165,-0.046897,0.008260,-0.039436
6586,-4.153940,-0.636858,-6.397307,-0.033041,0.006795,-0.067548
6601,-4.182670,-0.617704,-6.402095,-0.034507,0.000133,-0.067815
6616,-4.252102,-0.610521,-6.313510,-0.052626,0.015055,-0.059021
6631,-4.328717,-0.450110,-6.260838,-0.057556,0.004663,-0.047031
6646,-4.338294,-0.316035,-6.284780,-0.065949,0.015055,-0.007594
6661,-4.285621,-0.131681,-6.291962,-0.074876,0.013057,0.034107
6676,-4.331111,-0.174777,-6.342240,-0.068881,0.033841,0.066482
6691,-4.443638,-0.105345,-6.375759,-0.048096,0.019052,0.091930
6706,-4.331111,-0.026336,-6.229712,-0.031309,0.029844,0.109649
6721,-4.168305,0.023942,-6.373365,-0.006395,0.026380,0.122306
6736,-4.252102,-0.184354,-6.299145,0.002398,0.026779,0.126969
6751,-4.163517,-0.538695,-6.308722,-0.026646,0.060087,0.103787
6766,-3.890578,-0.677559,-6.189011,-0.035839,0.018519,0.038770
6781,-3.799598,-0.952892,-6.301539,-0.067015,-0.001066,-0.047963
6796,-3.857059,-0.775721,-6.284780,-0.080605,-0.059954,-0.119242
6811,-4.201824,-0.718261,-6.318298,-0.086067,-0.085002,-0.162409
6826,-4.460398,-0.538695,-6.368577,-0.096859,-0.080738,-0.165207
6841,-4.560954,-0.371101,-6.610391,-0.124038,-0.044766,-0.124438
6856,-4.568137,-0.119710,-6.488286,-0.134164,0.015055,-0.064617
6871,-4.513070,0.114922,-6.500257,-0.130300,0.033841,0.011858
6886,-4.501099,0.268151,-6.505046,-0.105919,0.043433,0.090730
6901,-4.376601,0.407014,-6.349423,-0.067815,0.026779,0.145089
6916,-4.448427,0.354342,-6.335058,-0.017986,0.023449,0.158945
6931,-4.455609,0.225055,-6.315904,0.003464,0.028778,0.169870
6946,-4.472369,-0.385466,-6.363788,-0.040769,0.036639,0.168138
6961,-4.118027,-0.383072,-6.160281,-0.057156,0.035306,0.105386
6976,-3.998317,-0.620098,-6.212953,-0.014123,0.018786,-0.021983
6991,-4.039018,-0.921768,-6.325481,0.010925,-0.050761,-0.125904
7006,-4.285621,-1.031901,-6.411672,-0.011325,-0.099790,-0.181328
7021,-4.410120,-0.826000,-6.449979,-0.050095,-0.121907,-0.201179
7036,-4.738125,-0.703895,-6.490681,-0.102588,-0.071545,-0.166672
7051,-4.869806,-0.347159,-6.658275,-0.167338,0.008926,-0.080605
7066,-4.797980,0.117316,-6.655880,-0.178930,0.070613,0.014655
7081,-4.685452,0.550666,-6.655880,-0.112047,0.076208,0.082603
7096,-4.587290,0.543484,-6.574478,-0.021583,0.075542,0.113113
7111,-4.644751,0.402226,-6.512228,0.062752,0.077008,0.117776
7126,-4.680664,-0.143652,-6.457162,0.070213,0.085668,0.124305
7141,-4.309563,-0.624887,-6.270414,0.019585,0.115911,0.087133
7156,-4.074931,-0.617704,-6.153098,0.016387,0.069014,0.003331
7171,-3.986346,-0.802058,-6.294356,0.001199,0.003198,-0.075942
7186,-4.211401,-0.605733,-6.181828,-0.007461,-0.041835,-0.129767
7201,-4.309563,-0.586579,-6.354211,-0.017986,-0.056757,-0.141492
7216,-4.335899,-0.395043,-6.399701,-0.048763,-0.036772,-0.105919
7231,-4.434062,-0.284910,-6.416461,-0.095260,0.012790,-0.033441
7246,-4.501099,-0.057461,-6.344635,-0.134297,0.050361,0.052893
7261,-4.429273,0.208296,-6.289568,-0.122706,0.093928,0.115911
7276,-4.223372,0.330400,-6.327875,-0.055025,0.083136,0.145222
7291,-4.127604,0.287304,-6.253655,0.018786,0.066349,0.147620
7306,-4.297592,-0.031125,-6.354211,0.055957,0.048763,0.146155
7321,-4.316746,-0.639252,-6.299145,0.027446,0.077008,0.116444
7336,-3.955221,-1.029507,-6.071695,-0.023449,0.044100,0.029577
7351,-3.720589,-1.367089,-6.126762,-0.084868,0.041302,-0.086334
7366,-3.754108,-1.261744,-6.054936,-0.105386,-0.054625,-0.207574
7381,-4.027047,-0.924162,-6.155492,-0.110848,-0.120974,-0.294041
7396,-4.311957,-0.548272,-6.368577,-0.106585,-0.176265,-0.320155
7411,-4.604050,-0.308852,-6.631938,-0.151217,-0.146021,-0.262066
7426,-4.941632,0.141258,-6.718130,-0.199980,-0.053159,-0.128568
7441,-5.003881,0.706289,-6.789956,-0.202645,0.054092,0.022649
7456,-4.745308,0.981623,-6.660669,-0.146021,0.097659,0.149086
7471,-4.489128,1.216254,-6.445191,-0.046631,0.110449,0.226493
7486,-4.527435,1.120486,-6.356606,0.085401,0.090730,0.245012
7501,-4.472369,0.567426,-6.380548,0.147753,0.085534,0.251940
7516,-4.386178,-0.160412,-6.301539,0.127636,0.087933,0.233821
7531,-3.995923,-0.799663,-6.129156,0.059421,0.108450,0.138694
7546,-3.706224,-0.900220,-6.014235,0.029977,0.034240,0.018386
7561,-3.928885,-0.936133,-6.181828,0.002531,-0.028378,-0.055691
7576,-4.055778,-0.603339,-6.256049,-0.021184,-0.085135,-0.079672
7591,-4.113238,-0.445322,-6.248867,-0.024248,-0.096193,-0.069547
7606,-4.352659,-0.407014,-6.387730,-0.055025,-0.073943,-0.024515
7621,-4.565742,-0.189142,-6.414066,-0.095793,-0.010925,0.043700
7636,-4.546589,0.095768,-6.399701,-0.107118,0.027845,0.100323
7651,-4.417302,0.165200,-6.325481,-0.068348,0.051960,0.119775
7666,-4.232948,-0.095768,-6.236896,-0.037704,0.062885,0.093395
7681,-4.266468,-0.246603,-6.186617,-0.000533,0.025181,0.052493
7696,-4.290410,-0.328006,-6.179434,0.010792,-0.020118,0.026113
7711,-4.331111,-0.339977,-6.191405,0.021983,-0.050761,0.004530
7726,-4.304775,-0.392649,-6.205770,0.031576,-0.078473,-0.008394
7741,-4.448427,-0.727837,-6.327875,0.015055,-0.039836,-0.031709
7756,-4.424485,-0.634463,-6.342240,-0.004930,-0.051294,-0.038237
7771,-4.486734,-0.615310,-6.428432,-0.042634,-0.026646,-0.026913
7786,-4.517859,-0.495600,-6.488286,-0.096726,-0.017320,-0.007727
7801,-4.568137,-0.344765,-6.466739,-0.123639,-0.002265,0.009193
7816,-4.572925,-0.098162,-6.435614,-0.117377,0.009992,0.021450
7831,-4.575319,-0.023942,-6.406884,-0.114446,0.027046,0.044632
7846,-4.405331,-1.110910,-6.466739,-0.261799,0.014256,0.112047
7861,-4.611232,-0.282516,-6.528988,-0.448590,0.083802,0.186923
7876,-4.656722,0.002394,-6.600814,-0.455118,0.047830,0.203711
7891,-4.343082,0.366313,-6.440403,-0.378244,0.109116,0.155348
7906,-4.235343,0.553061,-6.294356,-0.221697,0.111248,0.075409
7921,-4.086902,0.656011,-6.246472,-0.011058,0.081804,-0.019185
7936,-4.074931,0.069432,-6.071695,0.120974,0.057689,-0.104187
7951,-4.039018,-0.459687,-6.007052,0.109116,-0.002531,-0.129634
7966,-3.998317,-0.478840,-6.062119,0.000933,-0.047963,-0.111515
7981,-4.163517,-0.090980,-6.181828,-0.065017,-0.081937,-0.085934
7996,-4.489128,0.227449,-6.337452,-0.089132,-0.077008,-0.050894
8011,-4.637568,0.454898,-6.394913,-0.074210,-0.024248,-0.014256
8026,-4.584896,0.653617,-6.397307,-0.039969,0.019319,0.027446
8041,-4.362236,0.521936,-6.399701,-0.009859,0.036239,0.063152
8056,-4.414908,0.323217,-6.323087,0.003198,0.032508,0.086867
8071,-4.352659,0.047884,-6.287174,0.003064,0.028378,0.079273
8086,-4.165911,-0.158017,-6.224924,0.009326,0.036772,0.029444
8101,-4.053383,-0.344765,-6.251261,0.004796,0.015988,-0.026913
8116,-4.153940,-0.418985,-6.256049,-0.027046,0.009459,-0.069946
8131,-4.220977,-0.316035,-6.277597,-0.043167,-0.013323,-0.095793
8146,-4.187459,-0.141258,-6.179434,-0.038637,-0.024515,-0.113380
8161,-4.175488,-0.023942,-6.186617,-0.036905,-0.051427,-0.101922
8176,-4.319140,0.102951,-6.227318,-0.043167,-0.065017,-0.067015
8191,-4.434062,0.304064,-6.303933,-0.037704,-0.084469,-0.005462
8206,-4.505888,0.435745,-6.289568,-0.032109,-0.076208,0.061686
8221,-4.520253,0.392649,-6.363788,-0.041168,-0.047430,0.124438
8236,-4.570531,0.387861,-6.461950,-0.036106,-0.025580,0.166539
8251,-4.716577,0.409408,-6.543353,-0.023049,0.002798,0.187456
8266,-4.596867,0.177171,-6.426037,-0.013856,0.018652,0.192386
8281,-4.383783,0.076614,-6.421249,-0.005995,0.043700,0.147354
8296,-4.297592,-0.253785,-6.375759,0.031842,0.047963,0.053692
8311,-4.228160,-0.665588,-6.272809,0.050495,0.031176,-0.050495
8326,-4.173093,-0.746991,-6.212953,0.015988,-0.021051,-0.114845
8341,-4.192247,-0.636858,-6.315904,-0.044233,-0.062752,-0.135629
8356,-4.374207,-0.375890,-6.339846,-0.084335,-0.088466,-0.140292
8371,-4.630386,-0.083797,-6.323087,-0.086734,-0.075276,-0.139093
8386,-4.721365,0.229843,-6.239290,-0.060487,-0.071145,-0.123505
8401,-4.697423,0.469264,-6.191405,-0.043167,-0.056490,-0.064217
8416,-4.702212,0.524330,-6.289568,-0.042634,-0.027979,0.028645
8431,-4.786009,0.670376,-6.275203,-0.015988,-0.007861,0.098058
8446,-4.723760,0.560243,-6.315904,0.038371,0.003730,0.133764
8461,-4.651934,0.474052,-6.471527,0.073810,0.008394,0.141758
8476,-4.599261,0.160412,-6.330269,0.069147,0.010658,0.148420
8491,-4.618415,-0.272939,-6.373365,0.033175,0.064884,0.124172
8506,-4.407725,-0.514753,-6.244078,0.026913,0.079006,0.033308
8521,-4.170699,-0.775721,-6.236896,0.026779,0.065283,-0.075009
8536,-4.120421,-0.893037,-6.162675,-0.002398,0.001865,-0.159078
8551,-4.249708,-0.909797,-6.119579,-0.055824,-0.044766,-0.212237
8566,-4.544195,-0.612916,-6.196194,-0.086201,-0.086334,-0.226626
8581,-4.606444,-0.263362,-6.224924,-0.097126,-0.077940,-0.212237
8596,-4.580108,0.057461,-6.356606,-0.111781,-0.053159,-0.146421
8611,-4.766856,0.421380,-6.258443,-0.108983,-0.019851,-0.043700
8626,-4.793192,0.708684,-6.291962,-0.090597,0.007861,0.069280
8641,-4.685452,0.828394,-6.215347,-0.028511,0.013323,0.140159
8656,-4.599261,0.811634,-6.251261,0.035306,0.018519,0.180795
8671,-4.560954,0.569820,-6.189011,0.061819,0.024914,0.210772
8686,-4.627992,0.095768,-6.332664,0.044100,0.034640,0.214902
8701,-4.381389,-0.270545,-6.222530,0.041435,0.066882,0.123772
8716,-4.079720,-0.572214,-6.224924,0.069147,0.055025,-0.017054
8731,-4.146757,-0.775721,-6.160281,0.069946,0.020118,-0.132432
8746,-4.355053,-0.881066,-6.323087,0.013989,-0.023049,-0.182394
8761,-4.465186,-0.689530,-6.351817,-0.059688,-0.061953,-0.174000
8776,-4.517859,-0.359130,-6.227318,-0.116044,-0.068481,-0.133631
8791,-4.673481,0.122104,-6.337452,-0.138960,-0.047830,-0.068481
8806,-4.759673,0.466869,-6.282385,-0.134031,-0.022383,0.023848
8821,-4.678270,0.677559,-6.337452,-0.092196,-0.004796,0.103654
8836,-4.599261,0.627281,-6.387730,-0.037971,0.002398,0.150818
8851,-4.589684,0.634463,-6.330269,0.018652,-0.001466,0.171202
8866,-4.699818,0.514753,-6.359000,0.049429,0.023715,0.174000
8881,-4.831499,-0.057461,-6.382942,0.039303,0.051827,0.156813
8896,-4.264073,-0.663194,-6.208165,0.019185,0.101522,0.053825
8911,-3.986346,-0.871489,-5.923255,0.025847,0.059021,-0.082870
8926,-4.141969,-1.077391,-6.179434,-0.017320,-0.010259,-0.178263
8941,-4.352659,-0.837971,-6.198588,-0.067015,-0.081671,-0.221164
8956,-4.616021,-0.450110,-6.277597,-0.086067,-0.109383,-0.226760
8971,-4.740520,-0.179565,-6.342240,-0.102188,-0.073011,-0.178663
8986,-4.853047,0.268151,-6.347029,-0.109783,-0.036239,-0.089265
9001,-5.020641,0.610521,-6.366182,-0.112047,0.012124,0.039170
9016,-4.862624,0.782904,-6.332664,-0.093262,0.035573,0.149485
9031,-4.661510,0.897826,-6.296751,-0.028645,0.055691,0.205976
9046,-4.707000,0.857124,-6.186617,0.055691,0.050495,0.224628
9061,-4.829105,0.679953,-6.224924,0.121773,0.061420,0.231423
9076,-4.683058,-0.165200,-6.229712,0.101522,0.088865,0.219965
9091,-4.120421,-0.689530,-6.076484,0.039303,0.081271,0.148553
9106,-3.945644,-1.261744,-6.026206,-0.019585,0.075409,0.017720
9121,-3.957615,-1.278504,-5.956774,-0.047564,-0.017587,-0.132299
9136,-4.355053,-1.084573,-6.217741,-0.061020,-0.085801,-0.253273
9151,-4.467580,-0.861913,-6.313510,-0.085401,-0.125770,-0.311894
9166,-4.764462,-0.533907,-6.404490,-0.130300,-0.091663,-0.301769
9181,-4.953603,-0.165200,-6.485892,-0.183593,-0.037971,-0.224628
9196,-5.013458,0.531513,-6.359000,-0.216767,0.019185,-0.083003
9211,-4.812346,1.058237,-6.306327,-0.177997,0.053426,0.071545
9226,-4.740520,1.300051,-6.186617,-0.084202,0.074476,0.182527
9241,-4.704606,1.197101,-6.129156,0.035173,0.062885,0.238750
9256,-4.730942,0.852336,-6.088455,0.101522,0.074210,0.272325
9271,-4.692635,0.316035,-6.110003,0.098724,0.058355,0.282583
9286,-4.321534,-0.438139,-6.064513,0.035839,0.135363,0.213436
9301,-3.957615,-0.926556,-5.791574,0.028511,0.093129,0.049029
9316,-3.902549,-1.209072,-5.999869,0.011325,0.025181,-0.116444
9331,-4.084508,-1.132457,-6.030994,-0.033708,-0.061953,-0.214502
9346,-4.206612,-0.799663,-6.035782,-0.097525,-0.119642,-0.249409
9361,-4.570531,-0.529119,-6.253655,-0.146421,-0.119242,-0.225560
9376,-4.855441,-0.019154,-6.406884,-0.195317,-0.065949,-0.140292
9391,-4.824317,0.639252,-6.325481,-0.191320,0.011858,-0.028378
9406,-4.663905,0.967257,-6.289568,-0.139227,0.027712,0.074876
9421,-4.627992,0.859518,-6.289568,-0.068348,0.037571,0.145622
9436,-4.709394,0.727837,-6.081272,0.011858,0.024515,0.168538
9451,-4.654328,0.098162,-6.145916,0.041568,0.047963,0.144289
9466,-4.182670,-0.215478,-5.928043,0.055025,0.046098,0.039836
9481,-4.189853,-0.823605,-6.119579,0.056357,0.010658,-0.083270
9496,-4.345476,-0.900220,-6.093243,0.007061,-0.060087,-0.174799
9511,-4.584896,-0.727837,-6.112397,-0.053959,-0.075675,-0.216501
9526,-4.651934,-0.371101,-6.359000,-0.105786,-0.090730,-0.219432
9541,-4.690241,-0.023942,-6.464345,-0.134031,-0.046897,-0.172401
9556,-4.893748,0.332794,-6.378153,-0.162276,-0.020518,-0.065283
9571,-4.929661,0.792481,-6.366182,-0.173734,0.012391,0.069014
9586,-4.752491,1.005565,-6.382942,-0.137628,0.028245,0.168538
9601,-4.623203,1.170765,-6.268020,-0.048096,0.037172,0.211438
9616,-4.735731,0.878672,-6.251261,0.036239,0.040103,0.228891
9631,-4.874595,0.270545,-6.356606,0.053026,0.059021,0.227692
9646,-4.469975,-0.344765,-6.208165,0.034907,0.094061,0.152017
9661,-4.022259,-0.914585,-5.992687,0.019851,0.082603,0.006662
9676,-4.118027,-1.154005,-6.093243,-0.004663,0.009992,-0.134830
9691,-4.314352,-1.101333,-6.193799,-0.061286,-0.048763,-0.225827
9706,-4.393360,-0.634463,-6.143521,-0.095260,-0.090864,-0.253939
9721,-4.649539,-0.366313,-6.263232,-0.117110,-0.082204,-0.233421
9736,-4.896142,0.088585,-6.284780,-0.155614,-0.031709,-0.147487
9751,-5.078102,0.600945,-6.375759,-0.174266,0.027046,-0.029977
9766,-4.795586,0.988805,-6.165069,-0.143090,0.029311,0.079539
9781,-4.644751,1.079785,-6.196194,-0.077008,0.036905,0.155614
9796,-4.726154,1.137246,-6.162675,0.019985,0.017986,0.179462
9811,-4.908113,0.847547,-6.205770,0.104587,0.023715,0.188922
9826,-4.826711,0.292093,-6.193799,0.110982,0.034507,0.193585
9841,-4.467580,-0.404620,-6.040571,0.061286,0.067815,0.143090
9856,-4.156334,-1.024718,-5.973533,0.006795,0.055025,0.034374
9871,-4.103662,-1.103727,-6.033388,-0.053559,0.008394,-0.078873
9886,-4.276044,-0.878672,-6.119579,-0.087933,-0.060087,-0.158812
9901,-4.326323,-0.497994,-6.212953,-0.111115,-0.103654,-0.191320
9916,-4.709394,-0.248997,-6.354211,-0.133897,-0.098191,-0.173734
9931,-4.989516,0.079009,-6.361394,-0.175466,-0.045165,-0.099391
9946,-5.051765,0.684742,-6.445191,-0.181194,0.008660,0.003198
9961,-5.001487,1.000776,-6.409278,-0.155481,0.058489,0.100590
9976,-4.790798,1.072602,-6.260838,-0.090464,0.101256,0.169870
9991,-4.754885,1.051054,-6.217741,0.004397,0.095793,0.185458
10006,-4.752491,0.859518,-6.208165,0.072744,0.091130,0.192386
10021,-4.604050,0.476446,-6.155492,0.085135,0.064217,0.190121
10036,-4.431667,-0.016759,-6.160281,0.056090,0.057689,0.153882
10051,-4.323928,-0.201113,-6.145916,0.039703,0.011858,0.073277
10066,-4.486734,-0.402226,-6.155492,0.023182,-0.012124,0.002132
10081,-4.580108,-0.363919,-6.339846,-0.017453,-0.028645,-0.027845
10096,-4.563348,-0.181959,-6.373365,-0.062752,-0.016787,-0.025181
10111,-4.740520,-0.105345,-6.366182,-0.099524,0.008793,0.005995
10126,-4.704606,0.126893,-6.363788,-0.116311,0.040103,0.046631
10141,-4.515464,0.280122,-6.387730,-0.103787,0.072078,0.069547
10156,-4.654328,0.330400,-6.332664,-0.064217,0.079006,0.064884
10171,-4.568137,0.203507,-6.145916,-0.031842,0.078740,0.041035
10186,-4.395754,0.093374,-6.033388,-0.007727,0.066882,0.000400
10201,-4.264073,0.102951,-6.035782,0.026247,0.019052,-0.045299
10216,-4.446033,-0.102951,-6.119579,0.032908,-0.014922,-0.069413
10231,-4.596867,-0.129287,-6.088455,0.009326,-0.029178,-0.075409
10246,-4.580108,-0.134075,-6.212953,-0.027712,-0.014256,-0.066349
10261,-4.381389,-0.057461,-6.220136,-0.055158,-0.003331,-0.069014
10276,-4.448427,-0.021548,-6.244078,-0.066216,-0.010525,-0.055291
10291,-4.520253,0.095768,-6.112397,-0.072744,-0.026113,-0.041302
10306,-4.486734,0.301669,-6.102820,-0.080605,-0.028511,-0.012923
10321,-4.458004,0.392649,-6.112397,-0.068214,-0.019851,0.016521
10336,-4.623203,0.569820,-6.212953,-0.049029,0.003864,0.045299
10351,-4.697423,0.495600,-6.093243,-0.022250,0.003997,0.074210
10366,-4.630386,0.538695,-6.138733,-0.014655,-0.005995,0.099790
10381,-4.532224,0.411803,-6.217741,-0.017587,-0.014522,0.130567
10396,-4.467580,0.330400,-6.126762,-0.019585,-0.005862,0.132032
10411,-4.548983,0.062249,-6.265626,-0.012790,0.018786,0.078873
10426,-4.548983,-0.131681,-6.121974,0.012790,0.010925,0.004130
10441,-4.371812,-0.402226,-6.059724,-0.004663,0.011191,-0.062619
10456,-4.314352,-0.438139,-6.093243,-0.029577,-0.039836,-0.116844
10471,-4.355053,-0.325611,-6.155492,-0.036905,-0.073677,-0.151884
10486,-4.527435,-0.136469,-6.241684,-0.031842,-0.103521,-0.163075
10501,-4.685452,0.076614,-6.378153,-0.037571,-0.104587,-0.136429
10516,-4.745308,0.124498,-6.411672,-0.062352,-0.063285,-0.085668
10531,-5.102044,0.328006,-6.342240,-0.074609,-0.011858,-0.031043
10546,-5.123591,0.579397,-6.421249,-0.071945,0.034773,0.018119
10561,-4.996699,0.715866,-6.277597,-0.036372,0.050095,0.055824
10576,-4.826711,0.699107,-6.251261,0.018253,0.056090,0.072611
10591,-4.896142,0.521936,-6.277597,0.045698,0.048763,0.087133
10606,-4.855441,0.347159,-6.114791,0.042368,0.042501,0.105919
10621,-4.771644,0.153229,-6.064513,0.004796,0.039703,0.124038
10636,-4.491522,0.114922,-5.968745,-0.011191,0.024115,0.090331
10651,-4.592079,-0.148441,-6.071695,-0.003997,0.008260,0.031842
10666,-4.707000,-0.169988,-6.124368,-0.010658,-0.008127,-0.020384
10681,-4.714183,-0.158017,-6.189011,-0.027446,-0.017320,-0.047963
10696,-4.687847,-0.129287,-6.337452,-0.062619,0.002265,-0.034640
10711,-4.807557,0.043096,-6.315904,-0.091263,0.028645,0.007594
10726,-4.888960,0.210690,-6.442797,-0.093129,0.068481,0.051294
10741,-4.788404,0.375890,-6.279991,-0.069147,0.090198,0.083536
10756,-4.498705,0.368707,-6.186617,-0.039836,0.096326,0.105919
10771,-4.484340,0.260968,-5.992687,-0.009193,0.077008,0.101655
10786,-4.378995,0.143652,-5.920861,0.017986,0.045698,0.091263
10801,-4.441244,0.059855,-5.916072,0.030910,0.022516,0.081404
10816,-4.292804,0.043096,-5.925649,0.036372,-0.001199,0.051294
10831,-4.283227,-0.222661,-5.884948,0.029977,-0.017720,0.009992
10846,-4.412514,-0.277727,-6.026206,0.020784,-0.040902,-0.033574
10861,-4.522647,-0.308852,-5.971139,0.004263,-0.052626,-0.067015
10876,-4.441244,-0.378284,-6.215347,-0.037571,-0.056090,-0.068747
10891,-4.527435,-0.193930,-6.248867,-0.073144,-0.041302,-0.055291
10906,-4.659116,-0.026336,-6.265626,-0.087266,-0.020651,-0.044632
10921,-4.733336,0.162806,-6.330269,-0.073544,-0.011724,-0.042234
10936,-4.594473,0.186748,-6.186617,-0.048629,-0.015721,-0.046364
10951,-4.525041,0.237026,-6.210559,-0.037971,-0.023449,-0.050361
10966,-4.577713,0.272939,-6.169858,-0.017187,-0.043833,-0.052360
10981,-4.666299,0.280122,-6.260838,-0.002531,-0.044899,-0.044766
10996,-4.678270,0.177171,-6.378153,-0.012657,-0.026513,-0.032375
11011,-4.764462,0.177171,-6.483498,-0.037571,0.003198,-0.018519
11026,-4.764462,0.248997,-6.426037,-0.051161,0.037571,-0.014123
11041,-4.836287,0.275333,-6.325481,-0.049962,0.040769,-0.017187
11056,-4.836287,0.306458,-6.347029,-0.059021,0.028911,-0.014655
11071,-4.738125,0.392649,-6.234501,-0.074210,0.018253,-0.007727
11086,-4.790798,0.423774,-6.287174,-0.081404,0.016521,0.004263
11101,-5.001487,0.505177,-6.253655,-0.081671,0.020917,0.019585
11116,-4.970363,0.584185,-6.203376,-0.070346,0.038371,0.035839
11131,-4.683058,0.699107,-6.124368,-0.050628,0.035173,0.067681
11146,-4.613626,0.689530,-6.030994,-0.030643,0.034907,0.096859
11161,-4.726154,0.624887,-6.093243,0.018386,0.013456,0.117776
11176,-4.774038,0.454898,-6.150704,0.058222,0.026646,0.122839
11191,-4.596867,0.100556,-6.138733,0.057689,0.041968,0.123106
11206,-4.577713,-0.181959,-6.193799,0.019185,0.052227,0.119375
11221,-4.599261,-0.220267,-6.009446,-0.008926,0.046364,0.106851
11236,-4.568137,-0.191536,-6.143521,-0.016121,0.028245,0.080338
11251,-4.496311,-0.146046,-5.875371,-0.003864,0.006662,0.057689
11266,-4.383783,-0.325611,-5.949591,0.000133,-0.013989,0.045165
11281,-4.532224,-0.318429,-6.026206,-0.006928,-0.020917,0.027845
11296,-4.620809,-0.380678,-6.112397,-0.012657,-0.024248,0.002132
11311,-4.537012,-0.251391,-6.172252,-0.014389,-0.028645,-0.022383
11326,-4.443638,-0.227449,-6.033388,-0.015721,-0.028778,-0.041568
11341,-4.563348,-0.229843,-6.014235,-0.025447,-0.020917,-0.053159
11356,-4.556166,-0.160412,-6.095637,-0.052093,-0.019052,-0.056224
11371,-4.589684,0.052672,-6.107608,-0.063951,-0.037172,-0.052893
11386,-4.635174,0.205901,-6.107608,-0.070879,-0.059688,-0.050628
11401,-4.786009,0.356736,-6.246472,-0.074476,-0.045832,-0.040769
11416,-5.063736,0.430956,-6.306327,-0.069280,-0.030910,-0.029311
11431,-5.051765,0.567426,-6.550536,-0.052227,-0.007994,-0.024248
11446,-4.888960,0.608127,-6.440403,-0.034640,0.022250,-0.024648
11461,-4.929661,0.471658,-6.593631,-0.045032,0.030510,-0.017054
11476,-5.030218,0.397437,-6.569689,-0.063285,0.047297,0.010126
11491,-4.932055,0.531513,-6.464345,-0.071945,0.069547,0.043433
11506,-4.805163,0.598550,-6.473921,-0.062086,0.072744,0.073943
11521,-4.654328,0.562637,-6.387730,-0.051960,0.085135,0.102721
11536,-4.733336,0.524330,-6.258443,-0.029577,0.081271,0.118842
11551,-4.695029,0.409408,-6.203376,-0.005063,0.077940,0.121907
11566,-4.479551,0.208296,-6.095637,0.006662,0.086067,0.098858
11581,-4.237737,-0.208296,-5.894525,0.004930,0.073943,0.053426
11596,-4.232948,-0.359130,-5.892130,0.008394,0.026646,-0.004930
11611,-4.381389,-0.450110,-6.026206,-0.007194,-0.006528,-0.041035
11626,-4.364630,-0.430956,-5.901707,-0.040769,-0.011991,-0.066083
11641,-4.520253,-0.311246,-5.849035,-0.074343,-0.018519,-0.068081
11656,-4.592079,-0.213084,-5.935226,-0.082337,-0.023582,-0.077008
11671,-4.702212,0.043096,-5.935226,-0.087400,-0.015188,-0.074476
11686,-4.757279,0.287304,-5.827487,-0.070080,-0.029977,-0.060753
11701,-4.774038,0.447716,-5.932832,-0.054891,-0.039836,-0.039037
11716,-4.955997,0.545878,-6.086061,-0.039170,-0.046231,-0.017986
11731,-5.140351,0.560243,-6.265626,-0.025047,-0.022649,0.012923
11746,-5.082890,0.462081,-6.390124,-0.049429,0.015455,0.049828
11761,-4.860229,0.488417,-6.495469,-0.078740,0.033175,0.077940
11776,-4.953603,0.593762,-6.402095,-0.074609,0.046498,0.100989
11791,-4.824317,0.486023,-6.416461,-0.061020,0.055691,0.104587
11806,-4.572925,0.318429,-6.203376,-0.056890,0.107118,0.086600
11821,-4.316746,0.119710,-6.150704,-0.038504,0.055424,0.052760
11836,-4.288015,0.086191,-6.244078,-0.005862,0.016521,0.014522
11851,-4.544195,0.069432,-6.234501,0.028378,-0.012790,-0.027179
11866,-4.627992,-0.055067,-6.351817,0.043034,-0.007328,-0.062619
11881,-4.647145,-0.239420,-6.272809,-0.005862,0.021850,-0.052893
11896,-4.596867,-0.239420,-6.253655,-0.096992,0.045832,-0.027046
11911,-4.778827,-0.174777,-6.186617,-0.193052,0.092862,0.028378
11926,-4.335899,0.442927,-5.942409,-0.120708,-0.046764,0.030243
11941,-4.668693,0.380678,-6.074090,-0.150818,0.104187,0.035173
11956,-4.256891,0.907402,-5.729324,-0.073544,0.003997,0.011191
11971,-4.845864,0.464475,-6.064513,0.004530,-0.025580,-0.002931
11986,-4.805163,0.567426,-6.093243,-0.007594,-0.037971,-0.018386
12001,-4.917690,0.560243,-6.179434,0.005196,-0.040502,-0.018919
12016,-4.812346,0.572214,-6.275203,-0.011991,-0.012257,-0.003730
12031,-4.967968,0.471658,-6.363788,-0.027179,0.027312,0.027046
12046,-4.960786,0.409408,-6.473921,-0.035573,0.060887,0.058222
12061,-4.826711,0.296881,-6.428432,-0.060221,0.094061,0.087533
12076,-4.558560,0.308852,-6.548141,-0.073810,0.090864,0.103121
12091,-4.582502,0.217872,-6.344635,-0.066749,0.095926,0.096060
12106,-4.699818,0.146046,-6.373365,-0.035306,0.079939,0.075942
12121,-4.527435,0.239420,-6.145916,0.006528,0.066749,0.043167
12136,-4.395754,0.112527,-6.059724,0.034107,0.067681,0.010392
12151,-4.503493,-0.023942,-6.030994,0.047830,0.047963,-0.012124
12166,-4.481946,-0.043096,-5.942409,0.047697,0.031043,-0.036905
12181,-4.491522,-0.186748,-5.942409,0.028378,0.021184,-0.050495
12196,-4.410120,-0.213084,-6.062119,-0.017453,0.021983,-0.057689
12211,-4.556166,-0.191536,-6.035782,-0.072211,0.022516,-0.046498
12226,-4.469975,-0.007183,-6.014235,-0.114979,0.028378,-0.033175
12241,-4.596867,0.117316,-6.004658,-0.144956,0.011325,-0.017720
12256,-4.340688,0.514753,-5.942409,-0.134697,-0.021184,-0.012790
12271,-4.398149,0.727837,-5.935226,-0.074210,-0.039436,-0.023049
12286,-4.745308,0.682347,-6.282385,-0.036772,-0.015188,-0.034374
12301,-4.853047,0.577003,-6.251261,-0.006662,-0.026113,-0.042767
12316,-4.738125,0.565032,-6.387730,-0.003331,0.001599,-0.047963
12331,-4.769250,0.416591,-6.390124,-0.014256,0.015588,-0.030776
12346,-4.843470,0.253785,-6.521805,-0.047963,0.047164,-0.009060
12361,-4.795586,0.292093,-6.394913,-0.071545,0.066349,0.017853
12376,-4.594473,0.328006,-6.227318,-0.079006,0.071545,0.035040
12391,-4.477157,0.347159,-6.289568,-0.085135,0.080738,0.048496
12406,-4.371812,0.378284,-6.157887,-0.061953,0.050628,0.042767
12421,-4.398149,0.366313,-6.066907,-0.025181,0.024914,0.033974
12436,-4.271256,0.366313,-6.011840,0.005196,-0.002531,0.024648
12451,-4.228160,0.399832,-5.959168,0.033708,-0.018519,0.021450
12466,-4.414908,0.203507,-5.999869,0.048496,-0.016920,0.020384
12481,-4.539406,0.184354,-6.040571,0.031043,-0.011724,0.039436
12496,-4.496311,0.055067,-6.095637,-0.009859,0.013323,0.049828
12511,-4.412514,0.002394,-6.047753,-0.043167,0.031975,0.036106
12526,-4.474763,-0.019154,-5.944803,-0.047830,0.023315,-0.010792
12541,-4.532224,-0.028730,-5.990293,-0.057689,0.011325,-0.048496
12556,-4.544195,0.079009,-6.052542,-0.070346,-0.034240,-0.074743
12571,-4.527435,0.148441,-6.066907,-0.087133,-0.064750,-0.078873
12586,-4.695029,0.277727,-6.143521,-0.103387,-0.082070,-0.063685
12601,-4.762067,0.438139,-6.212953,-0.111515,-0.068481,-0.034507
12616,-4.867412,0.627281,-6.248867,-0.106452,-0.062619,0.013057
12631,-4.671087,0.632069,-6.294356,-0.109116,-0.040369,0.075009
12646,-4.723760,0.725443,-6.404490,-0.106452,-0.018119,0.131499
12661,-4.680664,0.696713,-6.449979,-0.067681,0.002665,0.147487
12676,-4.774038,0.677559,-6.457162,-0.009726,0.016254,0.138028
12691,-4.625597,0.378284,-6.473921,0.026913,0.054891,0.106718
12706,-4.527435,0.184354,-6.229712,0.044233,0.061686,0.058355
12721,-4.541800,-0.169988,-6.272809,0.036772,0.050361,0.005995
12736,-4.438850,-0.265756,-6.102820,0.019585,0.020251,-0.054225
12751,-4.412514,-0.141258,-6.014235,-0.000799,-0.029577,-0.107518
12766,-4.532224,-0.050278,-6.047753,-0.025580,-0.063818,-0.137228
12781,-4.843470,0.079009,-6.093243,-0.054492,-0.073277,-0.140026
12796,-4.982334,0.169988,-6.208165,-0.080871,-0.075942,-0.125371
12811,-5.140351,0.332794,-6.306327,-0.131499,-0.025314,-0.068747
12826,-4.944026,0.706289,-6.282385,-0.175732,0.017054,0.007594
12841,-5.018247,0.979228,-6.380548,-0.161476,0.064351,0.077541
12856,-4.881777,1.127669,-6.315904,-0.107518,0.073144,0.124305
12871,-4.726154,1.209072,-6.232107,-0.029044,0.062485,0.142291
12886,-4.606444,1.194707,-6.181828,0.063685,0.039170,0.142424
12901,-4.570531,0.871489,-6.246472,0.122173,0.041568,0.129368
12916,-4.575319,0.395043,-6.277597,0.140692,0.040369,0.103121
12931,-4.467580,0.052672,-6.229712,0.133897,0.041968,0.044499
12946,-4.414908,-0.323217,-6.169858,0.087400,0.042501,-0.014256
12961,-4.474763,-0.493206,-6.138733,0.012657,0.035573,-0.049695
12976,-4.548983,-0.251391,-6.064513,-0.038504,0.015988,-0.071145
12991,-4.546589,-0.035913,-5.935226,-0.058355,-0.007861,-0.075009
13006,-4.541800,0.162806,-5.932832,-0.050628,-0.033574,-0.078340
13021,-4.671087,0.153229,-6.100426,-0.055957,-0.046764,-0.057289
13036,-4.905719,0.229843,-6.145916,-0.074743,-0.023715,-0.020917
13051,-4.975151,0.454898,-6.186617,-0.083936,0.007061,0.020118
13066,-4.826711,0.679953,-6.155492,-0.063951,0.049695,0.049162
13081,-4.659116,0.749385,-6.220136,-0.005196,0.062219,0.063285
13096,-4.644751,0.550666,-6.258443,0.049695,0.090597,0.072877
13111,-4.556166,0.184354,-6.121974,0.036239,0.084469,0.084069
13126,-4.331111,-0.014365,-6.162675,0.007727,0.074210,0.072078
13141,-4.242526,-0.239420,-5.973533,-0.017853,0.043300,0.032775
13156,-4.378995,-0.277727,-6.002264,-0.043167,0.015188,-0.019585
13171,-4.378995,-0.112527,-6.052542,-0.065283,-0.029311,-0.058622
13186,-4.352659,0.026336,-6.045359,-0.077674,-0.046631,-0.072611
13201,-4.309563,0.349553,-5.949591,-0.080605,-0.073677,-0.064217
13216,-4.606444,0.469264,-6.112397,-0.078740,-0.070479,-0.028911
13231,-4.797980,0.577003,-6.208165,-0.070613,-0.067415,0.017853
13246,-4.924873,0.787692,-6.265626,-0.040636,-0.053825,0.051694
13261,-5.125986,0.665588,-6.471527,-0.037571,0.024381,0.080871
13276,-4.944026,0.723049,-6.473921,-0.043167,0.072877,0.103387
13291,-4.903325,0.763750,-6.373365,-0.011058,0.116044,0.115911
13306,-4.762067,0.560243,-6.277597,0.007328,0.125104,0.121374
13321,-4.333505,0.292093,-6.212953,-0.002665,0.094194,0.100590
13336,-4.197035,0.023942,-6.100426,-0.005729,0.069147,0.042101
13351,-4.302381,-0.011971,-5.937620,-0.020917,-0.010658,-0.024515
13366,-4.441244,0.047884,-5.975927,-0.037838,-0.057023,-0.067015
13381,-4.560954,0.292093,-6.023811,-0.050628,-0.094194,-0.085534
13396,-4.867412,0.531513,-6.196194,-0.069946,-0.071412,-0.057023
13411,-5.128380,0.617704,-6.380548,-0.073410,-0.022250,-0.006129
13426,-5.147533,0.859518,-6.521805,-0.065949,0.039703,0.050228
13441,-5.106832,0.854730,-6.612785,-0.047697,0.075809,0.099257
13456,-4.944026,0.677559,-6.452374,-0.053159,0.130167,0.136296
13471,-4.783615,0.828394,-6.323087,-0.033441,0.146688,0.156813
13486,-4.616021,0.679953,-6.227318,0.009459,0.130966,0.146021
13501,-4.340688,0.304064,-6.098032,0.043167,0.114046,0.089265
13516,-4.103662,-0.045490,-5.868188,0.076608,0.052760,-0.007994
13531,-4.232948,-0.368707,-6.023811,0.077674,-0.015855,-0.110182
13546,-4.529830,-0.483629,-6.045359,0.031443,-0.090997,-0.173734
13561,-4.678270,-0.169988,-6.189011,-0.015855,-0.124438,-0.201979
13576,-4.908113,-0.148441,-6.505046,-0.060887,-0.105386,-0.187856
13591,-5.169081,-0.011971,-6.631938,-0.143357,-0.003064,-0.120574
13606,-5.142745,0.486023,-6.727706,-0.171868,0.077008,-0.047430
13621,-4.960786,0.857124,-6.734890,-0.118576,0.120708,0.001466
13636,-4.721365,1.048660,-6.426037,-0.036772,0.124838,0.040369
13651,-4.709394,0.979228,-6.303933,0.040902,0.126836,0.064351
13666,-4.683058,0.715866,-6.210559,0.101256,0.112314,0.071279
13681,-4.474763,0.148441,-6.119579,0.102055,0.121907,0.051294
13696,-4.072537,-0.213084,-6.009446,0.073144,0.109383,-0.011058
13711,-4.074931,-0.251391,-5.983110,0.046764,0.059554,-0.084069
13726,-4.261679,-0.280122,-6.110003,-0.001732,0.018519,-0.114579
13741,-4.350265,0.055067,-5.947197,-0.038904,-0.009326,-0.116711
13756,-4.424485,0.308852,-6.030994,-0.042501,-0.030510,-0.095793
13771,-4.596867,0.335188,-6.301539,-0.064351,0.022916,-0.049029
13786,-4.711789,0.591368,-6.361394,-0.072478,0.027446,0.006262
13801,-4.821922,0.720655,-6.414066,-0.046098,0.077807,0.040769
13816,-4.668693,0.837971,-6.330269,-0.013456,0.108583,0.062885
13831,-4.520253,0.849942,-6.289568,0.038637,0.113779,0.073544
13846,-4.393360,0.790087,-6.169858,0.089132,0.090064,0.080738
13861,-4.532224,0.591368,-6.203376,0.119242,0.065417,0.095926
13876,-4.434062,0.184354,-6.066907,0.097259,0.039570,0.106185
13891,-4.285621,-0.090980,-6.076484,0.065283,0.062752,0.060620
13906,-4.242526,-0.308852,-5.935226,0.056890,0.025847,-0.019452
13921,-4.393360,-0.397437,-6.069301,0.014922,-0.006395,-0.063685
13936,-4.503493,-0.239420,-6.136339,-0.031576,-0.040636,-0.082337
13951,-4.481946,0.035913,-6.251261,-0.047164,-0.056757,-0.092329
13966,-4.683058,0.095768,-6.394913,-0.032508,-0.045965,-0.087000
13981,-5.056554,0.158017,-6.576872,-0.058222,0.029577,-0.026913
13996,-4.836287,0.265756,-6.464345,-0.093262,0.111381,0.045032
14011,-4.678270,0.450110,-6.392519,-0.087533,0.129368,0.086334
14026,-4.527435,0.567426,-6.347029,-0.032508,0.147620,0.076342
14041,-4.491522,0.519542,-6.311116,0.034773,0.133498,0.051827
14056,-4.472369,0.306458,-6.272809,0.070213,0.109250,0.040769
14071,-4.304775,0.074220,-6.265626,0.053692,0.082603,0.036905
14086,-4.168305,-0.150835,-6.227318,0.030910,0.061420,0.011458
14101,-4.156334,-0.287304,-6.193799,0.003997,0.056757,-0.034773
14116,-4.170699,-0.280122,-6.198588,-0.030643,0.037571,-0.069547
14131,-4.252102,-0.198719,-6.284780,-0.059821,0.024115,-0.081404
14146,-4.410120,-0.009577,-6.258443,-0.073144,0.031975,-0.084602
14161,-4.388572,0.208296,-6.368577,-0.076608,0.022516,-0.075142
14176,-4.374207,0.392649,-6.306327,-0.084602,0.015322,-0.049029
14191,-4.390966,0.476446,-6.421249,-0.094727,0.004930,0.002132
14206,-4.647145,0.629675,-6.387730,-0.096726,0.040769,0.065816
14221,-4.635174,0.699107,-6.584054,-0.081538,0.079939,0.111914
14236,-4.302381,0.682347,-6.359000,-0.054225,0.100989,0.131766
14251,-4.151546,0.665588,-6.253655,-0.016787,0.079939,0.138827
14266,-4.211401,0.615310,-6.212953,0.010925,0.039303,0.144822
14281,-4.259285,0.464475,-6.153098,0.028245,0.031975,0.143890
14296,-4.137180,0.189142,-6.215347,0.054225,0.057289,0.100723
14311,-3.976769,-0.229843,-6.124368,0.057822,0.068481,0.032375
14326,-4.098873,-0.577003,-6.107608,0.022649,0.070213,-0.037571
14341,-3.993528,-0.591368,-6.136339,-0.030377,0.026513,-0.074343
14356,-4.039018,-0.426168,-6.030994,-0.093795,-0.023315,-0.083536
14371,-4.079720,-0.225055,-6.143521,-0.122706,-0.049828,-0.087000
14386,-4.352659,0.002394,-6.217741,-0.112047,-0.054891,-0.083936
14401,-4.596867,0.193930,-6.150704,-0.099257,-0.026779,-0.062086
14416,-4.450821,0.395043,-6.102820,-0.079539,-0.015588,-0.036639
14431,-4.503493,0.536301,-6.126762,-0.039303,-0.004796,-0.027312
14446,-4.556166,0.545878,-6.258443,-0.003864,-0.013723,-0.021717
14461,-4.647145,0.560243,-6.251261,0.025714,-0.022250,-0.019319
14476,-4.613626,0.569820,-6.291962,0.054092,-0.033841,-0.025447
14491,-4.637568,0.488417,-6.449979,0.045299,-0.033841,-0.017320
14506,-4.695029,0.371101,-6.598420,0.019718,-0.007994,-0.004930
14521,-4.644751,0.035913,-6.658275,-0.007861,0.023315,-0.013190
14536,-4.350265,0.026336,-6.605602,-0.032242,0.017720,-0.032109
14551,-4.343082,-0.059855,-6.607996,-0.055025,0.017320,-0.034107
14566,-4.355053,0.038307,-6.636727,-0.071145,0.006662,-0.026646
14581,-4.474763,0.062249,-6.517017,-0.071812,0.005596,-0.027312
14596,-4.541800,0.150835,-6.493075,-0.073011,0.027979,-0.017853
14611,-4.419696,0.275333,-6.442797,-0.068481,0.059288,-0.004796
14626,-4.405331,0.311246,-6.380548,-0.056757,0.059554,0.005063
14641,-4.455609,0.330400,-6.224924,-0.037438,0.065949,0.014789
14656,-4.393360,0.428562,-6.184223,-0.016787,0.059688,0.012257
14671,-4.359841,0.404620,-6.193799,0.005596,0.052760,0.009060
14686,-4.194641,0.282516,-6.148310,0.011591,0.047297,0.006129
14701,-4.292804,0.162806,-6.155492,-0.003064,0.050095,0.011858
14716,-4.290410,0.079009,-6.062119,-0.030910,0.022116,0.018652
14731,-4.137180,0.210690,-6.117185,-0.061953,0.009326,0.029044
14746,-4.165911,0.330400,-6.177040,-0.062219,-0.007994,0.033974
14761,-4.321534,0.359130,-6.244078,-0.045698,-0.019585,0.036372
14776,-4.381389,0.213084,-6.325481,-0.030776,-0.010925,0.032375
14791,-4.299986,0.129287,-6.517017,-0.038770,0.006528,0.033708
14806,-4.295198,0.129287,-6.318298,-0.046764,0.017054,0.037305
14821,-4.288015,0.081403,-6.337452,-0.037038,0.023449,0.023982
14836,-4.335899,0.081403,-6.263232,-0.025980,0.006928,0.012391
14851,-4.218583,0.052672,-6.212953,-0.023848,-0.013590,-0.004930
14866,-4.278439,-0.016759,-6.236896,-0.046231,-0.024781,-0.007727
14881,-4.264073,0.035913,-6.212953,-0.067015,-0.049695,-0.006528
14896,-4.448427,0.143652,-6.291962,-0.072744,-0.074077,-0.011991
14911,-4.520253,0.289698,-6.208165,-0.073544,-0.088865,-0.012790
14926,-4.570531,0.368707,-6.351817,-0.069680,-0.062219,-0.007861
14941,-4.644751,0.474052,-6.454768,-0.051028,-0.001865,-0.003198
14956,-4.718971,0.495600,-6.452374,-0.009193,0.063818,-0.017720
14971,-4.697423,0.507571,-6.564901,0.053292,0.113247,-0.045432
14986,-4.438850,0.270545,-6.588843,0.076208,0.130167,-0.056490
15001,-4.302381,-0.009577,-6.454768,0.026513,0.103654,-0.041035
15016,-4.434062,-0.090980,-6.385336,-0.049429,0.060887,-0.014123
15031,-4.429273,0.086191,-6.270414,-0.083936,0.034907,0.006395
15046,-4.357447,0.289698,-6.308722,-0.081404,0.029977,0.014123
15061,-4.402937,0.292093,-6.390124,-0.071812,0.057822,0.018519
15076,-4.510676,0.248997,-6.447585,-0.044233,0.082337,0.001599
15091,-4.484340,0.275333,-6.397307,-0.019319,0.106585,-0.021983
15106,-4.264073,0.272939,-6.318298,-0.003064,0.104320,-0.038904
15121,-3.962404,0.318429,-6.086061,-0.004530,0.063285,-0.042634
15136,-4.089296,0.351948,-6.105214,-0.010925,0.015322,-0.027845
15151,-4.247314,0.435745,-6.023811,-0.017853,-0.033041,-0.001199
15166,-4.261679,0.596156,-5.923255,-0.011591,-0.067015,0.028911
15181,-4.283227,0.438139,-6.217741,-0.013989,-0.078207,0.069946
15196,-4.319140,0.339977,-6.198588,-0.027446,-0.075809,0.108317
15211,-4.367024,0.363919,-6.478710,-0.021051,-0.043567,0.107917
15226,-4.434062,0.181959,-6.466739,-0.015588,0.018253,0.085002
15241,-4.266468,0.193930,-6.368577,0.007594,0.027446,0.049029
15256,-4.292804,-0.067038,-6.404490,0.011325,0.032109,0.019718
15271,-4.307169,-0.160412,-6.385336,-0.012391,-0.004663,0.012524
15286,-4.398149,-0.069432,-6.277597,-0.034773,-0.021184,0.011325
15301,-4.369418,0.000000,-6.320693,-0.043833,-0.018386,0.009992
15316,-4.467580,0.055067,-6.485892,-0.049162,0.002265,0.015322
15331,-4.627992,-0.124498,-6.426037,-0.072611,0.043833,0.026646
15346,-4.422091,-0.114922,-6.378153,-0.089931,0.060620,0.025047
15361,-4.323928,-0.095768,-6.349423,-0.100057,0.102588,0.001998
15376,-4.225766,0.023942,-6.311116,-0.088865,0.072611,-0.031176
15391,-4.264073,0.172383,-6.208165,-0.068348,0.037305,-0.054625
15406,-4.410120,0.296881,-6.088455,-0.043700,0.005329,-0.061686
15421,-4.378995,0.375890,-6.143521,-0.038504,-0.026247,-0.040502
15436,-4.371812,0.390255,-6.205770,-0.051560,-0.047031,0.000666
15451,-4.517859,0.421380,-6.356606,-0.055824,-0.045432,0.038371
15466,-4.668693,0.440533,-6.545747,-0.062619,-0.024381,0.071279
15481,-4.472369,0.335188,-6.485892,-0.067548,0.023315,0.089398
15496,-4.299986,0.423774,-6.469133,-0.066482,0.036106,0.093928
15511,-4.225766,0.414197,-6.397307,-0.048096,0.029711,0.082603
15526,-4.220977,0.289698,-6.370971,-0.038371,0.007328,0.055824
15541,-4.039018,0.086191,-6.418855,-0.028778,-0.014123,0.010658
15556,-4.103662,0.021548,-6.169858,-0.030776,-0.032242,-0.037305
15571,-4.271256,-0.021548,-6.270414,-0.041435,-0.047164,-0.075942
15586,-4.553771,0.129287,-6.368577,-0.037038,-0.038904,-0.104320
15601,-4.570531,0.311246,-6.332664,-0.017853,-0.013590,-0.117643
15616,-4.479551,0.275333,-6.517017,-0.010658,0.024914,-0.103121
15631,-4.431667,0.222661,-6.581660,-0.040369,0.049162,-0.066083
15646,-4.525041,0.308852,-6.481104,-0.089132,0.027979,-0.005196
15661,-4.441244,0.488417,-6.337452,-0.125770,0.019718,0.049162
15676,-4.493917,0.735020,-6.222530,-0.109916,0.011058,0.083802
15691,-4.467580,0.802058,-6.212953,-0.051560,0.018119,0.088466
15706,-4.455609,0.658405,-6.189011,0.002531,0.026380,0.081404
15721,-4.359841,0.450110,-6.277597,0.028245,0.015855,0.068881
15736,-4.323928,0.239420,-6.215347,0.027046,0.005196,0.045832
15751,-4.345476,0.062249,-6.351817,0.026513,0.026779,0.002931
15766,-4.434062,-0.339977,-6.337452,0.005995,0.035706,-0.046364
15781,-4.378995,-0.349553,-6.442797,-0.052493,0.046631,-0.065949
15796,-4.338294,-0.229843,-6.363788,-0.105519,0.027979,-0.067282
15811,-4.290410,0.009577,-6.323087,-0.128435,0.025447,-0.071145
15826,-4.378995,0.126893,-6.277597,-0.107917,0.020384,-0.085135
15841,-4.410120,0.256180,-6.177040,-0.092462,0.015322,-0.088732
15856,-4.158728,0.392649,-6.117185,-0.075809,-0.002531,-0.073810
15871,-4.163517,0.502782,-6.155492,-0.055158,-0.035440,-0.044632
15886,-4.194641,0.521936,-6.083666,-0.041701,-0.071145,-0.011591
15901,-4.414908,0.641646,-6.177040,-0.011991,-0.091796,0.010525
15916,-4.491522,0.550666,-6.253655,0.002398,-0.097525,0.024248
15931,-4.469975,0.550666,-6.387730,-0.005995,-0.088066,0.045165
15946,-4.551377,0.438139,-6.481104,-0.023982,-0.046098,0.051427
15961,-4.762067,0.435745,-6.402095,-0.016787,0.002265,0.043167
15976,-4.704606,0.349553,-6.442797,-0.022250,0.075142,0.029311
15991,-4.422091,0.426168,-6.279991,0.005729,0.121640,0.007328
16006,-4.177882,0.090980,-6.272809,0.011058,0.140159,-0.018919
16021,-4.144363,0.019154,-6.248867,-0.016654,0.076208,-0.027845
16036,-4.220977,0.088585,-6.083666,-0.046231,-0.000266,-0.035839
16051,-4.328717,0.289698,-6.133945,-0.065417,-0.041968,-0.032775
16066,-4.446033,0.404620,-6.361394,-0.062885,-0.043700,-0.015588
16081,-4.563348,0.390255,-6.507440,-0.061153,-0.032109,0.015455
16096,-4.647145,0.536301,-6.490681,-0.047164,-0.013723,0.043167
16111,-4.572925,0.521936,-6.576872,-0.040236,0.030110,0.068747
16126,-4.520253,0.471658,-6.445191,-0.028911,0.066482,0.071012
16141,-4.467580,0.488417,-6.461950,0.000666,0.084868,0.053426
16156,-4.429273,0.373495,-6.363788,0.018519,0.062352,0.039570
16171,-4.206612,0.318429,-6.291962,0.016121,0.028645,0.035573
16186,-4.139575,0.198719,-6.303933,0.018519,-0.003597,0.007594
16201,-4.314352,-0.002394,-6.301539,0.020784,-0.032375,-0.035040
16216,-4.443638,-0.158017,-6.418855,-0.010658,-0.031975,-0.069680
16231,-4.307169,-0.138864,-6.323087,-0.058222,-0.031309,-0.088332
16246,-4.338294,0.000000,-6.351817,-0.087133,-0.031709,-0.089931
16261,-4.460398,0.256180,-6.454768,-0.090597,0.005329,-0.087799
16276,-4.426879,0.351948,-6.380548,-0.052626,0.011591,-0.086334
16291,-4.517859,0.363919,-6.378153,-0.027845,0.044233,-0.086734
16306,-4.378995,0.466869,-6.148310,-0.018786,0.017853,-0.064884
16321,-4.498705,0.531513,-6.145916,-0.030910,0.004530,-0.023049
16336,-4.604050,0.591368,-6.110003,-0.051161,0.000400,0.036505
16351,-4.635174,0.675165,-6.268020,-0.054492,0.002798,0.097792
16366,-4.438850,0.658405,-6.167463,-0.051294,0.011991,0.139760
16381,-4.419696,0.790087,-6.179434,-0.011991,0.015455,0.159478
16396,-4.402937,0.502782,-6.279991,0.021717,0.027579,0.162542
16411,-4.376601,0.332794,-6.390124,0.043300,0.033175,0.138960
16426,-4.292804,-0.014365,-6.287174,0.052760,0.048230,0.087000
16441,-4.185064,-0.289698,-6.138733,0.012524,0.053159,0.035173
16456,-4.170699,-0.265756,-6.083666,-0.025847,0.015188,-0.012124
16471,-4.326323,-0.148441,-6.112397,-0.031842,-0.022916,-0.046364
16486,-4.280833,0.038307,-6.148310,-0.031975,-0.059954,-0.059554
16501,-4.400543,0.107739,-6.131550,-0.035040,-0.065683,-0.056623
16516,-4.723760,0.007183,-6.275203,-0.081138,-0.049695,-0.013323
16531,-4.721365,0.177171,-6.256049,-0.139760,-0.041035,0.044366
16546,-4.474763,0.294487,-6.320693,-0.186391,-0.035706,0.096193
16561,-4.568137,0.426168,-6.366182,-0.185724,-0.029311,0.118975
16576,-4.537012,0.706289,-6.368577,-0.123505,-0.034240,0.106052
16591,-4.800375,0.754174,-6.452374,-0.024248,0.001865,0.057423
16606,-4.762067,0.644040,-6.713341,0.088332,0.083669,-0.018652
16621,-4.474763,0.198719,-6.655880,0.163874,0.149219,-0.100323
16636,-4.299986,-0.359130,-6.454768,0.115911,0.142424,-0.130700
16651,-4.220977,-0.318429,-6.229712,0.018119,0.075009,-0.124571
16666,-4.134786,-0.055067,-6.138733,-0.044766,-0.005063,-0.104453
16681,-4.096479,0.325611,-6.023811,-0.038637,-0.052093,-0.101256
16696,-4.345476,0.423774,-6.162675,0.008260,-0.064617,-0.103521
16711,-4.620809,0.304064,-6.217741,0.020251,-0.041302,-0.088066
16726,-4.726154,0.136469,-6.488286,-0.040636,0.011325,-0.044499
16741,-4.580108,0.241814,-6.318298,-0.120841,0.055824,-0.010392
16756,-4.400543,0.428562,-6.284780,-0.148286,0.082870,0.003864
16771,-4.493917,0.715866,-6.284780,-0.148420,0.074609,0.015055
16786,-4.378995,0.828394,-6.138733,-0.111115,0.024515,0.027312
16801,-4.369418,0.907402,-6.177040,-0.065150,0.011591,0.047297
16816,-4.295198,0.873884,-6.121974,-0.034507,-0.016920,0.072078
16831,-4.383783,0.742203,-6.256049,-0.010925,-0.034907,0.096726
16846,-4.412514,0.529119,-6.318298,-0.004930,-0.038904,0.113513
16861,-4.206612,0.418985,-6.270414,0.010658,-0.043966,0.097259
16876,-4.314352,0.150835,-6.327875,0.029711,-0.021583,0.045299
16891,-4.462792,-0.021548,-6.442797,0.049962,-0.028112,-0.008394
16906,-4.620809,-0.237026,-6.385336,0.040369,0.000133,-0.038237
16921,-4.699818,-0.368707,-6.426037,-0.030776,0.028778,-0.027712
16936,-4.489128,-0.280122,-6.368577,-0.104853,0.044366,-0.002398
16951,-4.611232,-0.102951,-6.378153,-0.144956,0.060354,0.019851
16966,-4.527435,0.067038,-6.277597,-0.157213,0.059954,0.027712
16981,-4.355053,0.246603,-6.191405,-0.132698,0.048230,0.020651
16996,-4.213795,0.373495,-6.160281,-0.103121,0.029444,0.004263
17011,-4.335899,0.378284,-6.141127,-0.065550,0.006262,-0.024914
17026,-4.448427,0.395043,-6.110003,-0.035306,-0.008660,-0.062219
17041,-4.501099,0.421380,-6.198588,-0.019985,-0.016521,-0.088332
17056,-4.422091,0.495600,-6.308722,-0.005329,-0.030110,-0.108583
17071,-4.534618,0.577003,-6.411672,0.008660,-0.005729,-0.113113
17086,-4.589684,0.600945,-6.519411,0.024381,0.011058,-0.092729
17101,-4.479551,0.548272,-6.421249,0.026513,0.010658,-0.060087
17116,-4.498705,0.275333,-6.363788,-0.039436,0.031975,0.007594
17131,-4.369418,0.359130,-6.301539,-0.120708,0.030510,0.073144
17146,-4.714183,0.342371,-6.363788,-0.186257,0.037971,0.131632
17161,-4.601655,0.363919,-6.435614,-0.252473,0.073277,0.163075
17176,-4.338294,0.876278,-6.294356,-0.227959,0.051427,0.158012
17191,-4.177882,1.331176,-6.363788,-0.107651,0.098458,0.079139
17206,-5.092467,0.459687,-6.648698,-0.002931,0.120708,0.050628
17221,-4.311957,0.478840,-6.306327,0.062752,0.043700,0.009992
17236,-4.247314,0.227449,-6.253655,0.064750,0.078340,-0.028112
17251,-4.106056,0.162806,-6.189011,0.100989,-0.001998,-0.079806
17266,-4.338294,0.083797,-6.141127,0.129234,-0.026113,-0.129634
17281,-4.450821,0.102951,-6.098032,0.145489,-0.050228,-0.157213
17296,-4.390966,0.119710,-6.150704,0.145888,-0.046764,-0.165473
17311,-4.620809,-0.102951,-6.215347,0.080472,-0.043300,-0.127103
17326,-4.594473,-0.227449,-6.253655,-0.077541,0.009060,-0.041035
17341,-4.654328,0.129287,-6.215347,-0.185724,0.011458,0.041302
17356,-4.493917,0.574608,-6.198588,-0.210239,0.025181,0.099790
17371,-4.321534,0.924162,-6.143521,-0.148020,0.008527,0.112181
17386,-4.309563,0.926556,-6.162675,-0.047963,-0.003997,0.100190
17401,-4.505888,0.754174,-6.138733,0.036372,-0.007727,0.084069
17416,-4.400543,0.378284,-6.081272,0.059554,-0.000799,0.063818
17431,-4.201824,0.081403,-6.167463,0.067282,0.005462,0.025714
17446,-4.185064,-0.215478,-6.162675,0.055158,0.018652,-0.029977
17461,-4.304775,-0.248997,-6.253655,0.042900,-0.007727,-0.077807
17476,-4.352659,-0.241814,-6.306327,0.020118,-0.023182,-0.098724
17491,-4.355053,-0.395043,-6.294356,-0.073943,-0.017320,-0.076608
17506,-4.412514,-0.256180,-6.200982,-0.178130,-0.012257,-0.037704
17521,-4.541800,-0.019154,-6.279991,-0.261933,-0.004796,-0.007194
17536,-4.537012,0.565032,-6.244078,-0.282450,-0.028645,0.015322
17551,-4.345476,0.940921,-6.222530,-0.223162,-0.052893,0.022116
17566,-4.580108,1.168370,-6.351817,-0.110315,-0.057156,0.015721
17581,-4.661510,1.096544,-6.354211,-0.008394,-0.031443,0.014256
17596,-4.707000,0.835576,-6.442797,0.063685,-0.009992,0.014922
17611,-4.560954,0.725443,-6.387730,0.106052,-0.003864,0.000000
17626,-4.537012,0.440533,-6.390124,0.129900,-0.003464,-0.035306
17641,-4.582502,0.296881,-6.497863,0.149219,-0.019185,-0.073943
17656,-4.853047,-0.079009,-6.517017,0.104853,-0.004930,-0.073011
17671,-4.853047,-0.328006,-6.607996,-0.040502,0.051694,-0.020917
17686,-4.829105,-0.172383,-6.581660,-0.176132,0.046364,0.045965
17701,-4.860229,-0.100556,-6.706159,-0.291243,0.095260,0.112447
17716,-4.436456,0.670376,-6.390124,-0.299237,0.109383,0.095527
17731,-4.805163,0.581791,-6.531382,-0.226227,0.132832,0.080605
17746,-4.345476,0.809240,-6.306327,-0.108051,0.085401,0.023182
17761,-4.503493,0.536301,-6.330269,0.012524,0.052227,-0.012923
17776,-4.187459,0.641646,-6.157887,0.052360,0.055025,-0.061819
17791,-4.417302,0.414197,-6.277597,0.090198,0.044766,-0.092862
17806,-4.299986,0.538695,-6.210559,0.141358,0.014922,-0.114046
17821,-4.395754,0.452504,-6.222530,0.169204,0.030377,-0.130833
17836,-4.637568,0.160412,-6.279991,0.165207,0.020384,-0.119508
17851,-4.534618,-0.294487,-6.382942,0.018386,0.075809,-0.054358
17866,-4.283227,0.117316,-6.318298,-0.098458,0.032508,0.000799
17881,-4.508282,0.153229,-6.289568,-0.185058,0.083403,0.043833
17896,-4.481946,0.569820,-6.265626,-0.189455,0.066083,0.052893
17911,-4.237737,0.909797,-6.189011,-0.121107,0.060487,0.037438
17926,-4.197035,0.799663,-6.143521,-0.025181,0.036639,0.013323
17941,-4.129998,0.739808,-6.112397,0.062352,0.000533,-0.012391
17956,-4.345476,0.428562,-6.217741,0.101922,0.001732,-0.028511
17971,-4.443638,0.320823,-6.227318,0.112181,-0.015188,-0.035040
17986,-4.453215,0.308852,-6.284780,0.113646,0.005462,-0.044632
18001,-4.326323,0.390255,-6.196194,0.142557,0.005862,-0.059155
18016,-4.577713,0.028730,-6.198588,0.152816,0.012124,-0.053959
18031,-4.572925,-0.536301,-6.399701,0.031975,0.044766,0.004930
18046,-4.412514,-0.600945,-6.330269,-0.161077,0.068214,0.088732
18061,-4.350265,-0.450110,-6.378153,-0.312028,0.077940,0.156014
18076,-4.098873,0.193930,-6.253655,-0.387436,0.126303,0.165074
18091,-4.436456,0.325611,-6.438008,-0.298038,0.053292,0.117910
18106,-3.900155,1.127669,-6.071695,-0.132165,0.038104,0.024914
18121,-4.754885,0.248997,-6.457162,-0.052493,0.065150,-0.014655
18136,-3.801992,0.708684,-6.050148,0.028911,-0.035573,-0.067415
18151,-4.347870,0.407014,-6.256049,0.058222,-0.002398,-0.102188
18166,-4.182670,0.658405,-6.265626,0.122972,-0.104187,-0.136828
18181,-4.529830,0.720655,-6.323087,0.189588,-0.057822,-0.168538
18196,-4.807557,0.620098,-6.380548,0.240616,-0.083136,-0.171735
18211,-4.984728,-0.067038,-6.543353,0.130567,0.016121,-0.103387
18226,-4.704606,-0.217872,-6.612785,-0.068481,0.046631,0.003331
18241,-4.812346,-0.081403,-6.531382,-0.244213,0.099524,0.112314
18256,-4.575319,0.237026,-6.421249,-0.344003,0.124571,0.175998
18271,-4.213795,0.888249,-6.332664,-0.289112,0.106185,0.163741
18286,-4.070143,1.125275,-6.308722,-0.137095,0.055025,0.112714
18301,-4.225766,0.940921,-6.246472,0.002265,0.039037,0.055424
18316,-4.264073,0.490811,-6.330269,0.070613,0.024248,0.018386
18331,-4.194641,0.371101,-6.256049,0.104320,-0.001066,-0.006795
18346,-4.201824,0.385466,-6.179434,0.132832,0.010126,-0.029844
18361,-4.220977,0.462081,-6.215347,0.196783,0.009992,-0.066482
18376,-4.577713,-0.050278,-6.256049,0.210639,0.040236,-0.064484
18391,-4.644751,-0.723049,-6.224924,0.034907,0.098191,-0.000266
18406,-4.180276,-0.505177,-6.184223,-0.138694,0.053292,0.067681
18421,-4.314352,-0.466869,-6.287174,-0.305899,0.100190,0.121374
18436,-4.027047,0.265756,-6.119579,-0.313093,0.029178,0.110182
18451,-4.017470,0.691924,-6.045359,-0.196383,-0.007461,0.053426
18466,-4.046201,0.818817,-6.141127,-0.048763,-0.041835,-0.010126
18481,-4.058172,0.545878,-6.253655,0.052893,-0.072211,-0.060221
18496,-4.328717,0.316035,-6.236896,0.094061,-0.072078,-0.088732
18511,-4.491522,0.124498,-6.447585,0.102455,-0.041835,-0.110715
18526,-4.319140,0.318429,-6.572083,0.120041,-0.039969,-0.138028
18541,-4.714183,0.067038,-6.658275,0.104720,-0.004397,-0.129634
18556,-4.843470,-0.289698,-6.572083,-0.049029,0.074343,-0.072478
18571,-4.680664,-0.045490,-6.488286,-0.175865,0.072478,-0.000933
18586,-4.364630,0.167594,-6.502652,-0.265530,0.080338,0.050894
18601,-4.244920,0.665588,-6.359000,-0.276588,0.068481,0.066083
18616,-4.285621,0.988805,-6.294356,-0.193985,0.022649,0.051028
18631,-4.402937,1.089362,-6.296751,-0.083802,0.018386,0.031842
18646,-4.307169,1.022324,-6.222530,0.014123,0.011058,0.029711
18661,-4.098873,0.794875,-6.220136,0.060221,0.006262,0.027446
18676,-4.240131,0.653617,-6.382942,0.095394,-0.007861,0.020518
18691,-4.223372,0.354342,-6.299145,0.111248,-0.005462,0.006528
18706,-4.398149,0.088585,-6.270414,0.095527,0.012391,-0.001466
18721,-4.273650,-0.220267,-6.373365,0.027446,0.033974,0.007061
18736,-4.106056,-0.191536,-6.215347,-0.049828,0.017853,0.010126
18751,-4.381389,-0.167594,-6.177040,-0.108450,0.015588,0.013190
18766,-4.244920,-0.009577,-6.148310,-0.162942,-0.008926,0.015188
18781,-4.187459,0.349553,-6.102820,-0.167871,-0.015322,0.008394
18796,-4.338294,0.572214,-6.186617,-0.116178,-0.028645,-0.011191
18811,-4.458004,0.679953,-6.148310,-0.048763,-0.034773,-0.027979
18826,-4.424485,0.763750,-6.272809,0.014123,-0.036639,-0.029977
18841,-4.256891,0.758962,-6.327875,0.058089,-0.053825,-0.027179
18856,-4.450821,0.718261,-6.359000,0.090331,-0.059421,-0.018386
18871,-4.548983,0.596156,-6.452374,0.119908,-0.069147,-0.004796
18886,-4.963180,0.047884,-6.720524,0.067015,-0.023848,0.035440
18901,-4.532224,-0.047884,-6.718130,-0.049695,0.042900,0.073144
18916,-4.395754,0.100556,-6.619967,-0.090064,0.062619,0.061420
18931,-4.460398,0.055067,-6.543353,-0.100057,0.064617,0.040369
18946,-4.402937,0.174777,-6.447585,-0.091930,0.054225,0.011724
18961,-4.216189,0.287304,-6.402095,-0.056224,0.028511,-0.025314
18976,-4.278439,0.296881,-6.385336,-0.029444,0.007194,-0.047031
18991,-4.374207,0.380678,-6.347029,-0.006129,-0.015055,-0.055025
19006,-4.611232,0.371101,-6.375759,-0.004130,0.004130,-0.048629
19021,-4.434062,0.533907,-6.318298,-0.000666,-0.005196,-0.027579
19036,-4.498705,0.691924,-6.399701,0.031309,0.011191,-0.013723
19051,-4.431667,0.773327,-6.303933,0.075809,0.026646,0.000533
19066,-4.589684,0.588974,-6.325481,0.115778,0.030110,0.017587
19081,-4.637568,0.050278,-6.375759,0.052493,0.078340,0.068348
19096,-4.192247,0.062249,-6.315904,-0.046764,0.079406,0.115645
19111,-4.367024,-0.079009,-6.347029,-0.114845,0.080338,0.135896
19126,-4.407725,-0.225055,-6.318298,-0.211038,0.108317,0.148686
19141,-4.072537,0.172383,-6.248867,-0.219432,0.095926,0.113646
19156,-3.931279,0.418985,-6.086061,-0.124172,0.055824,0.042501
19171,-4.065354,0.335188,-6.057330,-0.040769,0.023982,-0.022116
19186,-4.094085,0.311246,-6.155492,0.020384,-0.025847,-0.063551
19201,-4.223372,0.292093,-6.090849,0.052893,-0.064351,-0.081538
19216,-4.292804,0.325611,-6.081272,0.076208,-0.064084,-0.084069
19231,-4.376601,0.423774,-6.189011,0.104453,-0.059688,-0.085934
19246,-4.661510,0.198719,-6.327875,0.106985,-0.040369,-0.064484
19261,-4.769250,-0.234632,-6.438008,-0.015988,0.036239,-0.007727
19276,-4.371812,0.021548,-6.359000,-0.098991,0.030377,0.031043
19291,-4.474763,0.026336,-6.404490,-0.170802,0.094594,0.036905
19306,-4.364630,0.244209,-6.342240,-0.180129,0.037838,0.029044
19321,-4.187459,0.486023,-6.325481,-0.146688,0.012124,0.009326
19336,-4.242526,0.703895,-6.315904,-0.075542,-0.017986,-0.023049
19351,-4.314352,0.691924,-6.409278,-0.006395,-0.044766,-0.047697
19366,-4.527435,0.490811,-6.488286,0.018519,-0.027712,-0.051960
19381,-4.635174,0.426168,-6.531382,0.020917,-0.006395,-0.051694
19396,-4.537012,0.565032,-6.524199,0.029577,0.028378,-0.045032
19411,-4.304775,0.622492,-6.461950,0.055691,0.031309,-0.045299
19426,-4.527435,0.505177,-6.581660,0.060887,0.051960,-0.029977
19441,-4.541800,0.268151,-6.445191,0.037172,0.053825,0.003864
19456,-4.307169,0.222661,-6.244078,-0.028245,0.086734,0.039570
19471,-4.367024,0.186748,-6.212953,-0.085668,0.069813,0.079539
19486,-4.228160,0.234632,-6.136339,-0.142957,0.066482,0.103920
19501,-4.189853,0.433351,-6.064513,-0.131632,0.047297,0.087000
19516,-4.012682,0.550666,-5.947197,-0.067015,0.015055,0.043700
19531,-3.950433,0.536301,-5.966351,0.006795,-0.024381,-0.008394
19546,-4.079720,0.335188,-6.095637,0.050761,-0.049695,-0.048763
19561,-4.264073,0.251391,-6.189011,0.061420,-0.082470,-0.064084
19576,-4.446033,0.193930,-6.433220,0.065949,-0.057423,-0.063018
19591,-4.316746,0.306458,-6.452374,0.081138,-0.043034,-0.065683
19606,-4.400543,0.280122,-6.476315,0.124305,-0.039570,-0.073011
19621,-4.774038,-0.122104,-6.399701,0.098058,-0.016521,-0.042234
19636,-4.584896,-0.289698,-6.236896,-0.029844,0.021583,0.019985
19651,-4.393360,-0.155623,-6.301539,-0.141092,0.025314,0.081404
19666,-4.539406,-0.141258,-6.416461,-0.238351,0.026380,0.133897
19681,-4.412514,0.165200,-6.284780,-0.280718,0.044766,0.132565
19696,-4.268862,0.555455,-6.282385,-0.206642,0.014789,0.073544
19711,-4.266468,0.727837,-6.289568,-0.083669,0.006262,-0.019718
19726,-4.242526,0.581791,-6.303933,-0.001998,0.002265,-0.086734
19741,-4.383783,0.553061,-6.308722,0.044366,-0.011991,-0.114046
19756,-4.505888,0.579397,-6.363788,0.072078,-0.052093,-0.099657
19771,-4.474763,0.677559,-6.476315,0.091530,-0.046897,-0.073410
19786,-4.410120,0.730232,-6.485892,0.147753,-0.050628,-0.051427
19801,-4.915296,0.294487,-6.619967,0.169603,-0.029711,-0.007194
19816,-4.915296,-0.265756,-6.665457,0.015322,0.084735,0.079939
19831,-4.786009,-0.215478,-6.495469,-0.159478,0.124838,0.171735
19846,-4.467580,-0.232238,-6.476315,-0.312028,0.179063,0.239949
19861,-4.074931,0.390255,-6.244078,-0.343737,0.183859,0.238750
19876,-3.943250,0.804452,-6.059724,-0.213170,0.110982,0.172668
19891,-4.077325,0.823605,-5.999869,-0.036905,0.054092,0.071945
19906,-3.828328,0.548272,-5.851429,0.081271,0.035173,-0.025714
19921,-3.785233,0.277727,-6.009446,0.136562,-0.058489,-0.094461
19936,-4.019865,0.150835,-6.076484,0.150285,-0.113380,-0.126969
19951,-4.244920,0.256180,-6.193799,0.158545,-0.120041,-0.146688
19966,-4.127604,0.464475,-6.165069,0.212904,-0.154282,-0.159877
19981,-4.663905,0.162806,-6.440403,0.251541,-0.121240,-0.156014
19996,-4.946421,-0.323217,-6.512228,0.154815,-0.074077,-0.095127
20011,-5.006276,-0.809240,-6.576872,-0.086201,0.004796,0.021450
20026,-4.678270,-0.414197,-6.418855,-0.298038,0.051161,0.129767
20041,-4.534618,-0.040701,-6.423643,-0.447124,0.141891,0.186391
20056,-4.285621,0.869095,-6.268020,-0.379443,0.086600,0.149219
20071,-4.273650,1.204283,-6.251261,-0.203977,0.050095,0.070613
20086,-4.285621,1.161188,-6.251261,-0.030910,0.007861,-0.005995
20101,-4.110844,0.948104,-6.174646,0.091663,-0.039436,-0.057956
20116,-4.276044,0.660800,-6.332664,0.136162,-0.060087,-0.074343
20131,-4.580108,0.459687,-6.380548,0.131899,-0.061819,-0.053159
20146,-4.388572,0.758962,-6.323087,0.148020,-0.053426,-0.037172
20161,-4.455609,0.627281,-6.387730,0.220897,-0.067681,-0.030776
20176,-4.498705,0.390255,-6.208165,0.218499,0.007994,-0.002531
20191,-4.649539,-0.110133,-6.461950,0.148286,0.001732,0.041835
20206,-4.843470,-0.878672,-6.588843,-0.071012,0.066882,0.123239
20221,-4.450821,-0.866701,-6.536170,-0.302302,0.096459,0.189988
20236,-3.995923,-0.615310,-6.248867,-0.435000,0.154681,0.154415
20251,-3.904943,0.186748,-6.090849,-0.329881,0.078606,0.023449
20266,-4.039018,0.378284,-6.150704,-0.137228,-0.038504,-0.124971
20281,-4.400543,0.201113,-6.296751,-0.007727,-0.063685,-0.208107
20296,-4.539406,0.040701,-6.320693,0.070213,-0.138427,-0.255271
20311,-4.862624,-0.031125,-6.387730,0.055957,-0.067282,-0.246744
20326,-4.862624,0.292093,-6.423643,0.030776,-0.035972,-0.201579
20341,-4.783615,0.660800,-6.325481,0.049828,-0.018253,-0.143757
20356,-5.061342,0.339977,-6.567295,-0.016654,0.007061,-0.034773
20371,-4.917690,0.390255,-6.452374,-0.132965,0.076208,0.074077
20386,-4.905719,0.565032,-6.459556,-0.178397,0.101789,0.142557
20401,-4.649539,0.591368,-6.473921,-0.207308,0.117510,0.177597
20416,-4.197035,1.031901,-6.339846,-0.183326,0.118709,0.185724
20431,-4.199430,0.905008,-6.320693,-0.099923,0.064217,0.152683
20446,-3.986346,0.672771,-6.136339,0.016254,0.059155,0.051560
20461,-3.919308,0.179565,-6.071695,0.111381,-0.006662,-0.046498
20476,-3.931279,0.028730,-6.244078,0.126836,-0.072345,-0.101123
20491,-4.340688,0.019154,-6.306327,0.115511,-0.076342,-0.121507
20506,-4.529830,0.241814,-6.442797,0.138694,-0.071012,-0.144423
20521,-4.668693,0.253785,-6.478710,0.154415,-0.021317,-0.135096
20536,-4.848258,-0.299275,-6.564901,0.013989,0.065283,-0.045832
20551,-4.577713,-0.179565,-6.426037,-0.198781,0.102055,0.085002
20566,-4.757279,0.083797,-6.215347,-0.346401,0.126836,0.200513
20581,-4.199430,0.809240,-6.088455,-0.371182,0.123372,0.227026
20596,-3.713407,1.149217,-5.930438,-0.216101,0.032242,0.176398
20611,-4.036624,0.507571,-5.899313,-0.057556,0.054492,-0.009459
20626,-3.900155,0.114922,-5.971139,0.073544,-0.011858,-0.179729
20641,-4.101267,-0.435745,-6.165069,0.101922,-0.082603,-0.305766
20656,-4.436456,-0.311246,-6.330269,0.087799,-0.160943,-0.361989
20671,-4.642357,-0.158017,-6.605602,0.060354,-0.112047,-0.371449
20686,-4.874595,0.342371,-6.677428,0.092862,-0.083403,-0.348400
20701,-5.312734,0.189142,-6.787562,0.057423,0.020651,-0.230623
20716,-4.556166,0.632069,-6.521805,-0.069014,0.085534,-0.037571
20731,-4.836287,0.600945,-6.584054,-0.202511,0.150152,0.159345
20746,-4.505888,1.151611,-6.454768,-0.212904,0.119242,0.279519
20761,-4.604050,1.118092,-6.196194,-0.142957,0.150818,0.301502
20776,-4.163517,0.871489,-5.973533,-0.043966,0.140292,0.215701
20791,-3.864241,0.541090,-5.822699,0.083136,0.079539,0.068081
20806,-4.005499,-0.081403,-6.069301,0.139760,-0.018253,-0.058489
20821,-4.146757,-0.131681,-6.045359,0.124172,-0.090331,-0.132965
20836,-4.378995,0.016759,-6.320693,0.094461,-0.097259,-0.146554
20851,-4.326323,0.284910,-6.330269,0.079672,-0.081804,-0.119508
20866,-4.563348,0.404620,-6.435614,0.098591,-0.050761,-0.066216
20881,-5.054160,-0.107739,-6.579266,0.049828,0.006795,0.027579
20896,-4.247314,0.435745,-6.339846,-0.000666,0.015988,0.098724
20911,-4.678270,-0.292093,-6.442797,-0.144289,0.113513,0.173867
20926,-4.268862,-0.045490,-6.256049,-0.241282,0.102455,0.189188
20941,-4.292804,0.105345,-6.169858,-0.211438,0.111914,0.123372
20956,-4.101267,0.265756,-6.143521,-0.127236,0.065550,0.023848
20971,-4.115633,0.450110,-6.071695,-0.018919,0.001199,-0.064617
20986,-4.232948,0.335188,-6.121974,0.071678,-0.046498,-0.113513
21001,-4.498705,0.234632,-6.083666,0.111248,-0.070746,-0.114712
21016,-4.532224,0.148441,-6.337452,0.101522,-0.048230,-0.070346
21031,-4.450821,0.356736,-6.354211,0.089931,-0.036505,-0.028245
21046,-4.647145,0.433351,-6.368577,0.118709,-0.021184,-0.006129
21061,-4.843470,0.174777,-6.524199,0.116311,0.024781,0.009326
21076,-4.795586,-0.375890,-6.610391,0.016521,0.079806,0.058622
21091,-4.723760,-1.036689,-6.457162,-0.211305,0.163608,0.102988
21106,-4.161122,-1.127669,-6.143521,-0.422610,0.208507,0.099923
21121,-3.818752,-0.423774,-6.093243,-0.491623,0.207841,0.009193
21136,-3.852270,-0.009577,-6.136339,-0.339074,-0.018519,-0.120441
21151,-4.000711,0.387861,-6.088455,-0.142691,-0.068481,-0.275123
21166,-4.264073,0.442927,-6.119579,-0.024115,-0.087266,-0.342937
21181,-4.462792,0.454898,-6.282385,-0.003730,-0.084602,-0.298038
21196,-4.814740,0.828394,-6.442797,-0.023715,-0.053026,-0.170003
21211,-4.620809,1.532289,-6.485892,0.018652,-0.000799,-0.033708
21226,-4.699818,1.553837,-6.557718,0.123372,0.019319,0.069014
21241,-4.458004,1.546654,-6.244078,0.185991,0.076874,0.154548
21256,-4.805163,0.569820,-6.426037,0.153083,0.066749,0.229424
21271,-4.374207,0.280122,-6.339846,0.011058,0.109516,0.303501
21286,-4.299986,-0.387861,-6.270414,-0.152816,0.162942,0.314959
21301,-3.849876,-0.323217,-6.119579,-0.226093,0.157879,0.219032
21316,-3.790021,-0.237026,-6.162675,-0.149485,0.041835,0.063951
21331,-4.103662,-0.059855,-6.215347,-0.049029,-0.045565,-0.064084
21346,-3.909731,0.196325,-6.179434,0.039037,-0.136162,-0.136296
21361,-4.278439,0.165200,-6.342240,0.067815,-0.123772,-0.156147
21376,-4.644751,0.119710,-6.521805,0.046231,-0.126170,-0.118576
21391,-4.534618,0.421380,-6.514623,0.023449,-0.038637,-0.068481
21406,-4.637568,0.701501,-6.519411,0.057556,-0.033441,-0.024515
21421,-4.462792,0.849942,-6.313510,0.069946,0.080871,0.000133
21436,-4.920084,-0.102951,-6.574478,0.037571,0.046364,0.038371
21451,-4.400543,-0.055067,-6.200982,-0.091263,0.099923,0.077940
21466,-4.498705,-0.210690,-6.337452,-0.200779,0.096060,0.119775
21481,-4.211401,0.167594,-6.263232,-0.267528,0.065949,0.119375
21496,-4.096479,0.605733,-6.203376,-0.196516,-0.005596,0.075942
21511,-4.458004,0.770933,-6.299145,-0.065417,-0.012391,0.014256
21526,-4.144363,0.921768,-6.234501,0.063152,-0.029577,-0.031309
21541,-4.352659,0.426168,-6.313510,0.106718,-0.023449,-0.032508
21556,-4.441244,0.402226,-6.392519,0.102988,-0.033708,0.001732
21571,-4.484340,0.402226,-6.449979,0.088599,0.003730,0.030643
21586,-4.436456,0.447716,-6.500257,0.118576,0.000799,0.043833
21601,-4.551377,-0.047884,-6.430826,0.092462,0.041968,0.059021
21616,-4.582502,-0.502782,-6.409278,-0.038637,0.099790,0.085668
21631,-4.448427,-0.739808,-6.217741,-0.185325,0.118043,0.100057
21646,-4.161122,-0.418985,-6.165069,-0.285248,0.105386,0.070746
21661,-3.816357,0.234632,-6.121974,-0.257669,0.053692,-0.007328
21676,-4.086902,0.457293,-6.191405,-0.134164,-0.035040,-0.084202
21691,-4.177882,0.612916,-6.107608,-0.011325,-0.058489,-0.149086
21706,-4.378995,0.426168,-6.205770,0.044499,-0.081538,-0.156813
21721,-4.378995,0.608127,-6.332664,0.045698,-0.100590,-0.112447
21736,-4.616021,0.663194,-6.433220,0.037838,-0.033308,-0.049429
21751,-4.656722,0.928950,-6.461950,0.084335,-0.010658,0.000400
21766,-4.666299,0.667982,-6.457162,0.136162,0.036639,0.025847
21781,-4.608838,0.284910,-6.483498,0.105786,0.060887,0.058089
21796,-4.625597,-0.395043,-6.438008,-0.025714,0.077674,0.106585
21811,-4.627992,-0.612916,-6.454768,-0.226227,0.127236,0.156680
21826,-4.273650,-0.100556,-6.337452,-0.329614,0.126570,0.157613
21841,-3.866636,0.409408,-6.138733,-0.280718,0.104853,0.094061
21856,-4.024653,0.493206,-6.186617,-0.142158,0.015721,0.009859
21871,-3.952827,0.615310,-6.016629,-0.024381,-0.006395,-0.065283
21886,-4.218583,0.402226,-5.932832,0.040502,-0.053026,-0.104720
21901,-4.098873,0.428562,-6.133945,0.067415,-0.113513,-0.102322
21916,-4.393360,0.481235,-6.270414,0.060753,-0.071412,-0.077407
21931,-4.297592,0.806846,-6.361394,0.120441,-0.067149,-0.066216
21946,-4.800375,0.531513,-6.476315,0.218499,-0.051028,-0.070879
21961,-4.352659,0.442927,-6.325481,0.240616,-0.027446,-0.048496
21976,-5.039794,-0.718261,-6.682217,0.083136,-0.027979,0.012524
21991,-4.702212,-0.718261,-6.552930,-0.198115,0.064084,0.115511
22006,-4.774038,-0.548272,-6.567295,-0.412084,0.139893,0.169870
22021,-4.333505,0.284910,-6.366182,-0.377844,0.035706,0.129501
22036,-3.782839,1.007959,-5.992687,-0.274190,0.118709,0.040769
22051,-4.216189,0.854730,-6.129156,-0.074476,-0.008127,-0.043433
22066,-4.029441,0.730232,-6.150704,0.062885,-0.056357,-0.098991
22081,-4.302381,0.490811,-6.258443,0.105519,-0.088066,-0.110182
22096,-4.560954,0.459687,-6.359000,0.104320,-0.107384,-0.091263
22111,-4.560954,0.660800,-6.397307,0.115378,-0.060221,-0.073011
22126,-4.735731,0.821211,-6.483498,0.191720,-0.053159,-0.053692
22141,-4.666299,0.770933,-6.485892,0.195051,0.085534,-0.018786
22156,-4.747702,0.131681,-6.670246,0.172401,0.034907,0.013723
22171,-4.544195,-0.272939,-6.493075,-0.005462,0.105386,0.089398
22186,-4.474763,-0.208296,-6.296751,-0.130966,0.082870,0.149885
22201,-4.326323,-0.471658,-6.406884,-0.283783,0.120708,0.181727
22216,-3.933673,-0.196325,-6.141127,-0.349466,0.107384,0.130433
22231,-3.739743,0.478840,-6.016629,-0.209440,-0.019585,0.012391
22246,-4.309563,0.332794,-6.203376,-0.079806,0.007328,-0.113913
22261,-4.065354,0.562637,-6.239290,0.052760,-0.105919,-0.187856
22276,-4.343082,0.349553,-6.212953,0.063685,-0.045432,-0.194384
22291,-4.596867,0.325611,-6.337452,0.059288,-0.058755,-0.153083
22306,-4.568137,0.675165,-6.368577,0.068614,-0.025980,-0.093662
22321,-4.776433,0.531513,-6.363788,0.085401,-0.014256,-0.018919
22336,-4.326323,0.840365,-6.105214,0.123772,0.019585,0.023449
22351,-4.709394,0.289698,-6.421249,0.115511,0.010925,0.067948
22366,-4.400543,0.229843,-6.224924,0.047430,0.007461,0.110982
22381,-4.833893,-0.581791,-6.457162,-0.104187,0.047697,0.161343
22396,-4.338294,-0.651223,-6.359000,-0.290178,0.111115,0.154815
22411,-4.139575,-0.150835,-6.301539,-0.312960,0.082737,0.082737
22426,-4.213795,0.426168,-6.356606,-0.216900,0.022516,-0.016121
22441,-4.153940,0.742203,-6.248867,-0.052360,-0.042767,-0.099124
22456,-4.187459,0.622492,-6.133945,0.046498,-0.039836,-0.136962
22471,-4.489128,0.497994,-6.399701,0.075142,-0.052760,-0.106452
22486,-4.630386,0.421380,-6.442797,0.061420,-0.029444,-0.042368
22501,-4.484340,0.624887,-6.368577,0.049162,-0.010792,0.021717
22516,-4.551377,0.560243,-6.442797,0.064617,0.000266,0.056623
22531,-4.869806,0.205901,-6.533776,0.001998,0.079939,0.088998
22546,-4.668693,0.100556,-6.378153,-0.048496,0.093129,0.119908
22561,-4.560954,-0.246603,-6.351817,-0.160810,0.163741,0.141225
22576,-4.060566,-0.040701,-6.234501,-0.223962,0.115378,0.111914
22591,-4.017470,0.177171,-6.212953,-0.191720,0.063018,0.055691
22606,-3.933673,0.651223,-6.282385,-0.097259,-0.009060,-0.034907
22621,-4.661510,0.272939,-6.610391,-0.007994,-0.062219,-0.071545
22636,-4.412514,0.560243,-6.828263,0.051827,-0.139493,-0.074077
22651,-4.908113,0.313640,-6.938396,0.013190,-0.021184,-0.043567
22666,-5.085284,0.421380,-7.015011,-0.022516,0.059155,-0.007194
22681,-4.757279,0.723049,-6.861782,0.000533,0.118842,-0.001332
22696,-4.716577,0.586579,-6.572083,0.064484,0.150285,-0.016521
22711,-4.481946,0.227449,-6.442797,0.063951,0.190387,-0.027312
22726,-4.050989,0.227449,-6.040571,0.067815,0.142557,-0.041701
22741,-4.477157,-0.421380,-6.052542,-0.049162,0.168804,-0.015322
22756,-4.089296,-0.079009,-5.918467,-0.128968,0.066482,0.013323
22771,-3.993528,-0.040701,-5.913678,-0.210239,0.130966,0.032908
22786,-4.043807,0.399832,-5.760449,-0.193718,0.084868,0.027312
22801,-3.734955,0.646434,-5.772420,-0.101522,0.041302,0.007994
22816,-3.624821,0.799663,-5.765238,0.013057,-0.010126,-0.006395
22831,-3.653552,0.414197,-5.985504,0.071279,-0.034107,-0.000133
22846,-3.682282,0.122104,-6.110003,0.068214,-0.038904,0.007061
22861,-3.821146,0.038307,-6.153098,0.067149,-0.039570,-0.015188
22876,-3.699042,0.246603,-6.141127,0.094061,-0.075675,-0.074210
22891,-4.022259,0.395043,-6.217741,0.160277,-0.098858,-0.144289
22906,-4.613626,0.114922,-6.421249,0.155081,-0.115378,-0.162409
22921,-5.011064,-0.378284,-6.646304,-0.014922,-0.033175,-0.096326
22936,-4.948815,-0.110133,-6.651092,-0.213170,-0.006395,0.020384
22951,-4.841076,0.222661,-6.775591,-0.413283,0.097392,0.145888
22966,-4.378995,1.216254,-6.622362,-0.425008,0.109916,0.189588
22981,-4.673481,1.462857,-6.579266,-0.263798,0.024914,0.183326
22996,-4.407725,1.479617,-6.509834,-0.096726,0.052093,0.153882
23011,-4.187459,0.960075,-6.366182,0.028911,0.033041,0.106985
23026,-4.048595,0.512359,-6.375759,0.090864,0.010658,0.051427
23041,-4.206612,0.225055,-6.263232,0.117110,-0.024648,0.014789
23056,-4.098873,0.282516,-6.227318,0.139760,-0.036772,-0.011591
23071,-4.230554,0.445322,-6.098032,0.206375,-0.065683,-0.031709
23086,-4.283227,0.244209,-6.145916,0.235020,-0.029178,-0.007594
23101,-4.400543,-0.026336,-6.275203,0.280718,-0.117776,-0.024115
23116,-4.467580,-0.653617,-6.308722,0.143090,0.024515,0.009593
23131,-4.374207,-1.034295,-6.466739,-0.003331,-0.027046,0.052360
23146,-4.228160,-0.806846,-6.579266,-0.135496,0.010392,0.051028
23161,-4.604050,-0.842759,-6.703764,-0.210239,0.014123,0.015721
23176,-4.369418,-0.390255,-6.624756,-0.222096,0.049828,-0.057822
23191,-4.299986,-0.047884,-6.493075,-0.164541,0.067948,-0.128168
23206,-4.163517,0.153229,-6.248867,-0.104187,0.067815,-0.183326
23221,-4.319140,0.174777,-6.074090,-0.057689,0.052760,-0.208240
23236,-4.201824,0.280122,-5.829881,-0.054225,0.025314,-0.198248
23251,-4.153940,0.603339,-5.793968,-0.043167,-0.029577,-0.179596
23266,-4.091691,0.902614,-5.748478,-0.010259,-0.086067,-0.161743
23281,-4.247314,1.206678,-5.940014,0.071279,-0.151217,-0.143490
23296,-4.723760,0.940921,-6.282385,0.135096,-0.189055,-0.103521
23311,-4.553771,0.981623,-6.469133,0.142291,-0.177064,-0.044766
23326,-5.494693,-0.146046,-7.010222,-0.096859,-0.031443,0.100590
23341,-4.833893,0.270545,-6.833052,-0.327882,0.030377,0.251674
23356,-4.826711,0.679953,-6.821081,-0.414349,0.093395,0.318556
23371,-4.527435,1.391031,-6.713341,-0.312427,0.146021,0.250741
23386,-4.568137,1.039083,-6.596025,-0.091130,0.114845,0.158412
23401,-3.986346,0.804452,-6.461950,0.085268,0.119109,0.049296
23416,-4.302381,0.004788,-6.426037,0.139227,0.137095,-0.022383
23431,-3.998317,-0.059855,-6.239290,0.138827,0.046498,-0.066882
23446,-3.988740,-0.191536,-6.095637,0.115112,0.045432,-0.097525
23461,-3.976769,0.083797,-6.069301,0.119508,-0.020784,-0.113247
23476,-4.228160,-0.023942,-6.009446,0.115511,-0.023982,-0.101123
23491,-4.467580,-0.507571,-6.028600,-0.025580,-0.013723,-0.012124
23506,-4.345476,-0.351948,-5.956774,-0.227292,0.020384,0.105386
23521,-4.050989,0.165200,-5.959168,-0.311228,-0.000799,0.177064
23536,-4.034230,0.548272,-5.968745,-0.304966,-0.008660,0.184259
23551,-4.115633,0.972046,-5.911284,-0.185858,-0.091930,0.151484
23566,-4.343082,1.039083,-6.275203,-0.029311,-0.137761,0.111248
23581,-4.558560,1.144428,-6.490681,0.116444,-0.131499,0.070346
23596,-5.013458,0.383072,-6.763620,0.168138,-0.035173,0.026513
23611,-4.884171,-0.067038,-6.864176,0.157613,0.028378,-0.045698
23626,-4.582502,-0.201113,-6.720524,0.116711,0.067415,-0.114579
23641,-4.338294,0.002394,-6.526594,0.114712,0.036372,-0.159345
23656,-4.474763,0.090980,-6.598420,0.133631,-0.002265,-0.181328
23671,-4.685452,-0.265756,-6.584054,0.081005,-0.012657,-0.149885
23686,-4.960786,-0.691924,-6.722918,-0.120841,0.001865,-0.048763
23701,-4.635174,-0.294487,-6.653486,-0.343204,0.058755,0.073943
23716,-4.426879,0.253785,-6.639121,-0.476701,0.118975,0.157613
23731,-4.235343,1.297657,-6.344635,-0.381707,0.070346,0.156280
23746,-4.156334,1.762132,-6.253655,-0.134031,0.045432,0.092995
23761,-3.955221,1.644817,-6.045359,0.093795,0.016920,0.032908
23776,-4.525041,0.840365,-6.244078,0.185325,0.014922,0.042368
23791,-4.357447,0.912191,-6.162675,0.245412,-0.051694,0.048096
23806,-4.666299,0.246603,-6.291962,0.221164,0.041302,0.054758
23821,-4.252102,0.189142,-6.102820,0.199980,0.033441,0.009859
23836,-4.185064,-0.021548,-6.009446,0.248476,0.045299,-0.085534
23851,-4.388572,-0.574608,-6.066907,0.209040,0.075409,-0.152683
23866,-4.165911,-0.311246,-5.999869,0.154149,-0.019851,-0.161210
23881,-4.426879,-0.751779,-6.119579,-0.018652,-0.016387,-0.104587
23896,-4.587290,-0.660800,-6.217741,-0.278587,0.051560,0.000933
23911,-4.503493,-0.040701,-6.275203,-0.410619,0.062086,0.102588
23926,-4.027047,0.876278,-6.131550,-0.391034,0.066482,0.138028
23941,-3.888184,1.618480,-5.837064,-0.179729,-0.034240,0.149619
23956,-3.734955,1.551443,-5.853823,0.042900,-0.075009,0.116444
23971,-4.209006,1.091756,-6.088455,0.204910,-0.159744,0.109649
23986,-4.453215,0.744597,-6.289568,0.276588,-0.167472,0.137095
24001,-4.910508,0.368707,-6.605602,0.274323,-0.096992,0.161876
24016,-4.616021,0.213084,-6.701370,0.287247,-0.004530,0.123772
24031,-4.532224,-0.593762,-6.579266,0.289778,0.061420,0.044632
24046,-4.386178,-1.254562,-6.509834,0.204643,0.101522,-0.040636
24061,-4.276044,-1.826776,-6.311116,0.021051,0.069680,-0.101123
24076,-4.443638,-2.090138,-6.406884,-0.278054,0.099524,-0.113779
24091,-4.290410,-1.221043,-6.299145,-0.471772,0.017187,-0.130300
24106,-4.697423,-0.531513,-6.414066,-0.564767,0.040369,-0.150818
24121,-4.730942,0.560243,-6.162675,-0.504946,-0.001732,-0.158145
24136,-4.252102,1.611298,-5.808333,-0.335210,-0.009326,-0.152683
24151,-4.503493,1.731008,-5.784391,-0.156147,-0.018253,-0.094727
24166,-4.467580,1.845930,-5.928043,-0.009726,-0.076208,0.014389
24181,-4.328717,1.838747,-5.983110,0.126570,-0.107384,0.116577
24196,-4.314352,1.716643,-6.090849,0.257936,-0.136562,0.177331
24211,-4.347870,1.498770,-6.306327,0.369051,-0.186524,0.221031
24226,-4.876989,0.931344,-6.567295,0.402358,-0.159877,0.277920
24241,-4.821922,0.179565,-6.588843,0.327083,0.013190,0.283916
24256,-4.944026,-1.453280,-6.775591,0.110049,0.120708,0.214103
24271,-4.173093,-1.699883,-6.617573,-0.131233,0.215568,0.125770
24286,-3.921702,-1.244985,-6.682217,-0.252207,0.158812,-0.009593
24301,-4.122815,-0.660800,-6.569689,-0.247410,0.052360,-0.138960
24316,-4.182670,-0.023942,-6.433220,-0.204377,-0.019319,-0.227292
24331,-4.333505,0.375890,-6.239290,-0.118576,-0.057822,-0.269926
24346,-4.496311,0.617704,-6.196194,-0.065150,-0.067548,-0.241415
24361,-4.862624,0.768539,-6.181828,-0.043167,-0.060354,-0.135096
24376,-4.721365,1.185130,-6.208165,-0.027046,-0.026380,-0.029844
24391,-4.649539,1.594538,-6.229712,0.097525,-0.028778,0.010925
24406,-4.829105,1.189918,-6.320693,0.224095,-0.003331,0.016787
24421,-4.699818,0.605733,-6.289568,0.229957,0.052760,0.009992
24436,-4.908113,-0.481235,-6.315904,0.135896,0.048363,0.023715
24451,-4.441244,-0.696713,-6.124368,-0.076475,0.114712,0.058089
24466,-4.278439,-0.500388,-6.076484,-0.225960,0.102588,0.086600
24481,-4.230554,-0.028730,-6.062119,-0.265930,0.047430,0.078740
24496,-4.103662,0.715866,-6.076484,-0.153616,-0.018253,0.029711
24511,-4.240131,0.888249,-6.220136,0.036772,-0.077940,-0.045432
24526,-4.498705,0.696713,-6.102820,0.180795,-0.075409,-0.088599
24541,-4.795586,0.215478,-6.349423,0.189188,0.006662,-0.070879
24556,-4.580108,-0.416591,-6.315904,0.146688,0.027312,-0.066216
24571,-4.371812,-0.881066,-6.423643,0.011591,0.094727,-0.092196
24586,-4.177882,-0.565032,-6.227318,-0.011591,0.026113,-0.158812
24601,-4.467580,-0.177171,-6.469133,0.022516,-0.026646,-0.221963
24616,-4.797980,-0.210690,-6.600814,0.044100,-0.069280,-0.232089
24631,-4.958392,-0.514753,-6.763620,-0.076608,0.006662,-0.176132
24646,-5.291186,-0.454898,-6.878541,-0.264198,0.124172,-0.057156
24661,-4.951209,0.126893,-6.706159,-0.417946,0.255671,0.060221
24676,-4.484340,0.995988,-6.385336,-0.406089,0.268861,0.115778
24691,-4.091691,1.541866,-5.983110,-0.233288,0.253939,0.098458
24706,-3.744531,1.316811,-5.712565,-0.026113,0.187456,0.047830
24721,-3.584120,0.976834,-5.549759,0.152283,0.045032,-0.000799
24736,-3.622427,0.701501,-5.451597,0.253806,-0.106718,-0.029178
24751,-3.845088,0.529119,-5.712565,0.313760,-0.239150,-0.039037
24766,-3.761291,0.471658,-5.791574,0.370116,-0.346268,-0.047430
24781,-4.276044,0.201113,-5.937620,0.402492,-0.413017,-0.030510
24796,-5.152322,-1.017536,-6.359000,0.267262,-0.339473,0.081937
24811,-5.449203,-1.874660,-6.672640,-0.050628,-0.146288,0.218766
24826,-5.327099,-1.460463,-6.821081,-0.345868,0.158678,0.223162
24841,-4.886566,-1.187524,-6.947973,-0.436732,0.251008,0.157346
24856,-4.546589,-0.502782,-6.667851,-0.452453,0.331613,0.061420
24871,-4.280833,0.141258,-6.303933,-0.340939,0.235819,-0.038237
24886,-3.943250,0.433351,-5.916072,-0.195317,0.134830,-0.108850
24901,-3.809175,0.699107,-5.738902,-0.060354,-0.008127,-0.145089
24916,-4.153940,0.687136,-5.676652,0.038637,-0.122173,-0.157746
24931,-4.364630,0.770933,-5.765238,0.109516,-0.237685,-0.143224
24946,-4.417302,0.948104,-5.961562,0.158545,-0.275256,-0.116178
24961,-4.797980,1.079785,-6.143521,0.250475,-0.295107,-0.076874
24976,-5.128380,0.754174,-6.473921,0.295374,-0.203577,-0.012657
24991,-5.312734,0.299275,-6.670246,0.219032,-0.076075,0.122440
25006,-5.109226,-0.330400,-6.845023,-0.045698,0.075675,0.298305
25021,-4.821922,-0.497994,-6.694188,-0.282583,0.103654,0.421277
25036,-4.498705,-0.361524,-6.605602,-0.392899,0.219299,0.390634
25051,-3.859453,0.079009,-6.299145,-0.280985,0.164541,0.193851
25066,-4.197035,-0.251391,-6.258443,-0.118309,0.104720,-0.016920
25081,-3.919308,-0.040701,-6.246472,0.012124,-0.000666,-0.211971
25096,-4.462792,-0.304064,-6.291962,0.038904,-0.026646,-0.298971
25111,-4.565742,-0.038307,-6.265626,0.065417,-0.102721,-0.334410
25126,-4.845864,0.189142,-6.327875,0.062752,-0.053825,-0.306299
25141,-4.659116,0.742203,-6.212953,0.080871,-0.078873,-0.255404
25156,-4.915296,0.960075,-6.301539,0.131499,-0.060620,-0.179995
25171,-5.082890,0.912191,-6.270414,0.079539,0.033974,-0.070746
25186,-5.233725,0.490811,-6.301539,0.032508,-0.040369,0.082870
25201,-4.711789,0.612916,-6.239290,-0.112580,0.094461,0.231956
25216,-4.790798,0.708684,-6.318298,-0.173867,0.110582,0.331080
25231,-4.560954,1.158794,-6.339846,-0.119109,0.055025,0.363855
25246,-4.786009,0.814029,-6.399701,-0.031842,0.078207,0.344403
25261,-4.520253,0.172383,-6.296751,0.040103,0.125104,0.247810
25276,-4.077325,-0.435745,-6.244078,0.120974,0.127902,0.104986
25291,-4.201824,-1.094150,-6.287174,0.102055,0.113913,-0.018652
25306,-4.187459,-1.115698,-6.114791,0.060354,0.035839,-0.125104
25321,-4.137180,-0.852336,-6.162675,0.034507,0.021850,-0.206908
25336,-4.247314,-0.545878,-6.205770,0.060221,-0.040636,-0.274989
25351,-4.532224,-0.280122,-6.059724,0.096593,-0.053825,-0.309629
25366,-4.680664,-0.253785,-6.066907,0.058222,-0.049296,-0.257003
25381,-5.099649,-0.682347,-6.145916,-0.161210,-0.005329,-0.089665
25396,-4.656722,0.220267,-6.169858,-0.323752,-0.008793,0.101256
25411,-4.891354,0.416591,-6.440403,-0.415015,0.090198,0.251807
25426,-4.371812,1.218649,-6.119579,-0.354928,0.084335,0.294841
25441,-4.350265,1.644817,-6.172252,-0.157746,0.078340,0.266329
25456,-4.589684,1.115698,-6.110003,-0.018519,0.098058,0.235153
25471,-4.398149,0.368707,-6.126762,0.048363,0.065283,0.189855
25486,-4.156334,-0.308852,-5.846641,0.043966,0.133231,0.070080
25501,-3.687071,-0.445322,-5.779603,0.081538,0.030643,-0.071412
25516,-3.907337,-0.548272,-6.086061,0.097525,-0.047963,-0.174799
25531,-4.134786,-0.294487,-6.145916,0.118576,-0.135230,-0.230890
25546,-4.594473,-0.284910,-6.215347,0.144023,-0.158012,-0.258602
25561,-4.707000,-0.160412,-6.241684,0.083936,-0.063818,-0.228225
25576,-5.231330,-0.720655,-6.607996,-0.052626,-0.132832,-0.099257
25591,-5.133168,-0.531513,-6.519411,-0.431936,0.118975,0.142957
25606,-4.912902,0.277727,-6.490681,-0.632715,0.126969,0.319489
25621,-5.039794,0.928950,-6.607996,-0.575825,0.137495,0.365587
25636,-4.199430,2.092532,-6.189011,-0.277920,0.107251,0.275389
25651,-4.410120,1.340753,-6.248867,-0.058888,0.149219,0.191187
25666,-4.527435,0.165200,-6.200982,0.109649,-0.031842,0.083802
25681,-3.646369,0.021548,-5.951985,0.136962,0.044233,-0.051560
25696,-4.333505,-0.445322,-6.121974,0.168937,-0.121773,-0.179063
25711,-4.254497,-0.033519,-6.397307,0.183992,-0.159744,-0.274856
25726,-4.953603,0.186748,-6.524199,0.238484,-0.155214,-0.335876
25741,-5.145139,0.126893,-6.495469,0.204776,-0.007194,-0.326683
25756,-5.018247,0.150835,-6.720524,0.096726,-0.013856,-0.233288
25771,-5.420473,-0.416591,-6.854599,-0.201712,0.122040,-0.013723
25786,-4.857835,0.486023,-6.574478,-0.386104,0.125371,0.198515
25801,-4.695029,0.828394,-6.351817,-0.470173,0.212104,0.324818
25816,-4.182670,1.778892,-6.035782,-0.316957,0.144423,0.336142
25831,-4.156334,1.484405,-5.916072,-0.062485,0.123106,0.257536
25846,-4.345476,0.229843,-6.057330,0.072211,0.095394,0.109383
25861,-3.715801,-0.117316,-5.858612,0.184792,0.048763,-0.054891
25876,-3.931279,-0.890643,-5.978322,0.151884,0.030510,-0.189721
25891,-3.983952,-0.706289,-6.076484,0.115778,-0.064617,-0.282184
25906,-3.974375,-0.330400,-5.961562,0.119109,-0.088199,-0.349732
25921,-4.637568,-0.404620,-6.165069,0.163874,-0.170669,-0.355727
25936,-4.276044,0.407014,-6.007052,0.124971,-0.045032,-0.318689
25951,-4.733336,0.227449,-6.265626,0.114446,-0.184658,-0.219698
25966,-5.444415,-0.873884,-6.727706,-0.255804,0.015455,0.055824
25981,-4.841076,0.395043,-6.330269,-0.501216,0.064084,0.294441
25996,-4.723760,1.127669,-6.311116,-0.509876,0.104986,0.426873
26011,-4.637568,1.941698,-6.200982,-0.337208,0.170669,0.385038
26026,-4.362236,1.671153,-6.086061,-0.062086,0.097925,0.312560
26041,-4.151546,0.136469,-6.045359,0.045565,0.219565,0.145489
26056,-3.689465,-0.409408,-5.662287,0.161077,0.026247,-0.059288
26071,-3.677494,-0.675165,-5.937620,0.161210,-0.071545,-0.205043
26086,-4.261679,-0.404620,-6.191405,0.134164,-0.183992,-0.285781
26101,-4.460398,0.071826,-6.256049,0.163475,-0.214236,-0.329747
26116,-5.219359,0.019154,-6.569689,0.166539,-0.181994,-0.272191
26131,-4.922479,0.294487,-6.725312,0.021583,-0.032109,-0.124038
26146,-5.710171,-0.383072,-6.859388,-0.262332,0.120308,0.131766
26161,-4.757279,0.574608,-6.552930,-0.407954,0.095793,0.306299
26176,-4.635174,0.888249,-6.488286,-0.441662,0.220631,0.352263
26191,-4.173093,1.537077,-6.236896,-0.241815,0.105519,0.277387
26206,-4.355053,1.041478,-6.279991,-0.036772,0.167472,0.136162
26221,-4.031836,0.658405,-5.963956,0.139626,0.021717,-0.004263
26236,-4.046201,0.138864,-6.028600,0.183326,-0.006129,-0.130167
26251,-4.302381,0.076614,-6.169858,0.205976,-0.153882,-0.205709
26266,-4.589684,0.131681,-6.210559,0.177064,-0.120441,-0.216767
26281,-4.680664,0.486023,-6.500257,0.194784,-0.130833,-0.193585
26296,-5.204994,0.179565,-6.552930,0.206775,-0.076342,-0.127769
26311,-4.467580,0.299275,-6.390124,0.170270,-0.033175,-0.044632
26326,-4.805163,-0.373495,-6.385336,0.070879,-0.021184,0.058755
26341,-5.032612,-1.216254,-6.517017,-0.268194,0.219698,0.149885
26356,-4.702212,-0.646434,-6.454768,-0.382507,0.131233,0.165606
26371,-4.357447,-0.287304,-6.399701,-0.460314,0.219432,0.125504
26386,-4.393360,0.328006,-6.229712,-0.369583,0.126037,0.065150
26401,-4.441244,0.624887,-6.246472,-0.251674,0.159478,0.003331
26416,-4.230554,0.794875,-6.014235,-0.079806,0.046897,-0.052360
26431,-4.201824,0.584185,-6.241684,0.008260,0.033308,-0.061953
26446,-4.364630,0.495600,-6.110003,0.042101,-0.013856,-0.031709
26461,-4.723760,0.428562,-6.212953,0.025580,0.010126,0.007061
26476,-4.604050,0.687136,-6.198588,0.050761,0.003064,0.019319
26491,-4.824317,0.538695,-6.186617,0.105119,0.015855,0.005729
26506,-4.311957,0.339977,-6.172252,0.085934,0.105253,-0.011724
26521,-4.467580,0.090980,-6.100426,0.134564,-0.021184,-0.036905
26536,-4.493917,-0.248997,-6.320693,0.016787,0.045698,-0.020384
26551,-5.142745,-0.878672,-6.574478,-0.208907,0.034374,0.084469
26566,-4.522647,-0.524330,-6.555324,-0.489625,0.156680,0.170936
26581,-4.728548,0.110133,-6.490681,-0.503481,0.071412,0.216634
26596,-4.271256,1.051054,-6.246472,-0.361989,0.138161,0.165740
26611,-4.316746,1.218649,-6.210559,-0.135096,0.131366,0.059021
26626,-4.120421,0.957681,-6.224924,0.034507,0.071545,-0.023982
26641,-4.244920,0.471658,-6.239290,0.105253,0.037305,-0.073810
26656,-4.481946,0.129287,-6.253655,0.100456,0.022516,-0.096459
26671,-4.220977,0.385466,-6.184223,0.099790,0.030110,-0.118309
26686,-4.252102,0.438139,-6.155492,0.140026,0.017054,-0.140292
26701,-4.098873,0.512359,-6.064513,0.160544,0.070879,-0.148020
26716,-3.979163,0.407014,-5.822699,0.213303,-0.089132,-0.144423
26731,-4.486734,-0.603339,-6.263232,-0.004130,0.014789,-0.085268
26746,-4.292804,-0.407014,-6.021417,-0.286047,0.053159,0.015322
26761,-4.290410,0.198719,-6.327875,-0.449123,0.065017,0.069014
26776,-4.264073,0.869095,-6.306327,-0.422743,0.019851,0.057556
26791,-4.024653,1.546654,-6.016629,-0.280185,0.002665,0.052093
26806,-3.904943,1.896208,-6.042965,-0.074876,-0.037971,0.009593
26821,-4.031836,1.441309,-6.277597,0.059821,-0.042368,-0.011191
26836,-4.091691,1.082179,-6.253655,0.124038,-0.107784,-0.010658
26851,-4.350265,0.893037,-6.459556,0.162142,-0.130300,-0.009459
26866,-4.417302,0.955286,-6.528988,0.184925,-0.113913,-0.023315
26881,-4.472369,0.881066,-6.596025,0.253539,-0.086734,-0.061953
26896,-4.695029,0.363919,-6.631938,0.311894,-0.093395,-0.081804
26911,-4.508282,-0.045490,-6.569689,0.221297,0.053559,-0.086734
26926,-4.479551,-0.723049,-6.569689,0.103787,-0.021317,-0.068614
26941,-4.541800,-0.900220,-6.667851,-0.163741,0.067815,0.005596
26956,-4.740520,-0.612916,-6.576872,-0.334144,0.040902,0.076874
26971,-4.362236,0.153229,-6.363788,-0.375712,0.048896,0.095127
26986,-4.563348,0.723049,-6.268020,-0.277787,0.080472,0.039303
27001,-3.792415,1.628057,-6.030994,-0.045965,0.030776,-0.049162
27016,-4.209006,1.161188,-6.009446,0.116844,0.013590,-0.077274
27031,-4.225766,1.005565,-5.971139,0.199181,-0.082870,-0.036106
27046,-4.381389,0.883460,-5.904101,0.228891,-0.115245,0.022383
27061,-4.508282,0.770933,-5.978322,0.239283,-0.096193,0.072611
27076,-4.477157,0.986411,-6.117185,0.294175,-0.122306,0.094328
27091,-4.685452,0.878672,-6.121974,0.355328,-0.133098,0.119642
27106,-4.776433,0.512359,-6.265626,0.339074,-0.052626,0.147087
27121,-4.553771,-0.272939,-6.375759,0.267662,-0.113247,0.203577
27136,-4.560954,-1.477222,-6.323087,0.000933,0.059821,0.203311
27151,-4.328717,-1.496376,-6.234501,-0.146021,-0.028245,0.146288
27166,-4.237737,-1.625663,-6.438008,-0.275123,0.049029,0.008926
27181,-4.388572,-1.381454,-6.636727,-0.257669,-0.103121,-0.132832
27196,-4.120421,-0.445322,-6.454768,-0.118176,-0.075542,-0.334410
27211,-4.872200,-0.565032,-6.584054,-0.005596,-0.117510,-0.436066
27226,-4.841076,-0.136469,-6.502652,0.020917,-0.074743,-0.427006
27241,-4.905719,0.328006,-6.210559,0.021317,-0.038237,-0.351064
27256,-4.874595,0.782904,-6.133945,0.038904,-0.006928,-0.250874
27271,-4.695029,1.264138,-5.930438,0.110182,-0.024648,-0.150152
27286,-4.716577,1.515530,-5.896919,0.216368,-0.072478,-0.054492
27301,-4.769250,1.338359,-5.892130,0.287113,-0.063818,0.027312
27316,-4.718971,1.292869,-5.887342,0.345735,-0.129234,0.123106
27331,-5.147533,0.344765,-6.315904,0.201712,-0.060354,0.273124
27346,-5.061342,0.502782,-6.296751,0.004530,-0.027712,0.463645
27361,-4.910508,0.158017,-6.397307,-0.196383,0.101522,0.608867
27376,-4.153940,0.287304,-6.289568,-0.303767,0.185058,0.582354
27391,-4.321534,-0.055067,-6.392519,-0.156147,0.136162,0.426473
27406,-3.799598,-0.351948,-6.119579,0.046764,0.124172,0.125104
27421,-4.182670,-1.137246,-6.277597,0.176265,0.027312,-0.162942
27436,-4.077325,-1.400608,-6.339846,0.152949,-0.043700,-0.321753
27451,-4.489128,-1.422156,-6.392519,0.051161,-0.070080,-0.368251
27466,-4.580108,-0.739808,-6.222530,-0.008793,-0.090331,-0.369317
27481,-4.690241,-0.105345,-6.165069,0.005196,-0.078074,-0.323352
27496,-5.049371,0.150835,-6.098032,0.029711,-0.101389,-0.205576
27511,-4.515464,0.799663,-5.947197,-0.021184,-0.009726,-0.103254
27526,-5.418078,0.328006,-6.138733,-0.018386,-0.042368,0.027845
27541,-4.881777,0.572214,-6.066907,-0.089531,0.053825,0.153482
27556,-5.015852,0.409408,-5.951985,-0.157479,0.078873,0.248210
27571,-4.661510,0.347159,-5.808333,-0.211838,0.087933,0.288845
27586,-4.249708,0.428562,-5.870583,-0.170270,0.007861,0.235819
27601,-4.314352,0.081403,-5.947197,-0.077940,-0.018652,0.144423
27616,-4.264073,-0.076614,-6.191405,0.041568,-0.090331,0.024248
27631,-4.666299,-0.490811,-6.485892,0.104320,-0.101389,-0.071812
27646,-4.965574,-0.883460,-6.708553,0.073144,-0.062219,-0.128302
27661,-4.994305,-1.031901,-6.715735,-0.005729,0.023449,-0.159877
27676,-4.735731,-0.763750,-6.564901,-0.039703,0.055557,-0.198248
27691,-4.534618,-0.514753,-6.435614,-0.037704,0.043833,-0.244746
27706,-4.711789,-0.423774,-6.246472,-0.012257,0.033041,-0.299504
27721,-5.035006,-0.320823,-6.189011,-0.023182,0.021184,-0.311228
27736,-4.742914,0.244209,-5.949591,-0.005196,-0.033708,-0.282317
27751,-4.613626,0.464475,-5.942409,0.001199,-0.039037,-0.260201
27766,-4.955997,0.474052,-6.177040,-0.063018,0.007727,-0.161476
27781,-5.097255,0.749385,-5.875371,-0.125504,-0.025580,0.001599
27796,-4.843470,0.998382,-5.884948,-0.212904,0.037838,0.172534
27811,-4.479551,1.580173,-5.870583,-0.158145,0.021717,0.279519
27826,-4.352659,1.659182,-5.985504,-0.028911,-0.009326,0.358259
27841,-4.479551,1.113304,-6.023811,0.055291,0.021317,0.400227
27856,-4.345476,0.368707,-6.045359,0.089132,0.017187,0.370250
27871,-4.187459,-0.459687,-6.026206,0.097259,0.084735,0.237418
27886,-4.067749,-1.072602,-6.076484,0.117776,0.007461,0.046231
27901,-4.249708,-1.685518,-6.227318,0.074876,0.015855,-0.152017
27916,-4.362236,-1.673547,-6.260838,0.024781,-0.066216,-0.308430
27931,-4.606444,-1.357512,-6.452374,-0.020518,-0.079406,-0.391833
27946,-5.054160,-1.204283,-6.394913,-0.101522,-0.079672,-0.379043
27961,-5.145139,-0.830788,-6.301539,-0.236352,-0.050894,-0.254472
27976,-5.291186,-0.344765,-6.253655,-0.383706,0.025980,-0.065017
27991,-4.893748,0.593762,-6.215347,-0.432602,0.063551,0.110049
28006,-4.888960,1.328782,-5.987898,-0.324152,0.057689,0.233954
28021,-4.671087,1.819593,-5.839458,-0.118842,0.031443,0.257003
28036,-4.936844,1.479617,-5.837064,0.065949,0.024115,0.237685
28051,-4.596867,0.952892,-5.825093,0.167738,-0.026646,0.217833
28066,-4.637568,0.131681,-5.904101,0.150551,0.003331,0.194384
28081,-4.508282,-0.462081,-5.978322,0.101922,0.013190,0.132565
28096,-4.328717,-0.684742,-6.102820,0.072611,0.012524,0.019985
28111,-4.362236,-0.670376,-6.193799,0.100190,-0.035573,-0.101389
28126,-4.446033,-0.581791,-6.411672,0.132832,-0.095127,-0.192386
28141,-4.733336,-0.646434,-6.469133,0.150551,-0.101123,-0.237152
28156,-5.027823,-0.617704,-6.646304,0.127502,-0.073277,-0.242481
28171,-5.152322,-0.677559,-6.789956,0.072211,-0.040502,-0.204243
28186,-5.111620,-0.407014,-6.531382,0.021184,0.021583,-0.152949
28201,-4.443638,-0.265756,-6.112397,-0.047297,0.111648,-0.138694
28216,-5.166687,-0.687136,-6.239290,-0.138560,0.149885,-0.100590
28231,-4.721365,-0.263362,-5.906496,-0.229691,0.140426,-0.061819
28246,-4.484340,0.342371,-5.779603,-0.229158,0.083802,-0.065683
28261,-4.412514,0.770933,-5.863400,-0.128035,0.021583,-0.095260
28276,-4.537012,0.905008,-5.839458,-0.030510,-0.002798,-0.087933
28291,-4.735731,0.943315,-5.887342,0.020917,-0.048496,-0.028645
28306,-4.630386,0.830788,-5.930438,0.021850,-0.038504,0.067282
28321,-4.613626,0.758962,-5.987898,0.013989,-0.048496,0.166139
