T,AX,AY,AZ,GX,GY,GZ
46,-4.716577,2.164358,-5.887342,-0.028778,0.019718,0.002265
61,-4.637568,2.087744,-5.930438,-0.026513,0.026646,0.005729
76,-4.584896,2.094926,-5.944803,-0.037172,0.022516,0.007994
91,-4.537012,2.169147,-5.832275,-0.024914,0.017453,0.008127
106,-4.687847,2.039860,-5.839458,-0.020651,0.013590,0.003064
121,-4.556166,2.056619,-5.853823,-0.019452,0.005995,-0.001199
136,-4.625597,1.953669,-5.992687,-0.020518,0.009859,-0.001865
151,-4.608838,1.874660,-5.911284,-0.020784,-0.012790,0.000799
166,-4.721365,1.884237,-5.951985,-0.027579,0.017720,-0.000266
181,-4.819528,1.939303,-5.887342,-0.031309,0.002798,0.002931
196,-4.592079,1.996764,-5.846641,-0.040103,0.019851,0.003464
211,-4.668693,2.015918,-5.856217,-0.037438,0.024115,0.002398
226,-4.685452,2.001553,-5.983110,-0.035440,0.016387,0.007461
241,-4.695029,2.073379,-5.887342,-0.034107,0.019718,0.005862
256,-4.587290,2.130840,-5.894525,-0.041035,0.015055,0.008127
271,-4.553771,2.221819,-5.853823,-0.034907,0.020251,0.008793
286,-4.692635,2.070984,-5.875371,-0.025447,-0.000933,0.004663
301,-4.654328,2.080561,-5.880159,-0.030776,0.014522,0.001332
316,-4.647145,2.082955,-5.846641,-0.031176,0.009459,0.005063
331,-4.558560,2.049437,-5.791574,-0.029044,0.012391,0.005329
346,-4.754885,1.896208,-5.959168,-0.032242,0.029311,0.002132
361,-4.654328,1.963245,-5.899313,-0.031709,0.009326,0.001998
376,-4.697423,1.982399,-5.949591,-0.034507,0.026513,0.004930
391,-4.577713,1.862689,-5.894525,-0.037305,0.005063,0.003730
406,-4.656722,1.960851,-5.896919,-0.040902,0.027179,0.000400
421,-4.797980,1.977611,-5.966351,-0.036905,0.010259,0.005329
436,-4.522647,2.097321,-5.951985,-0.038504,0.004530,0.000266
451,-4.683058,2.169147,-5.841852,-0.040236,0.016920,0.001332
466,-4.558560,2.044648,-5.827487,-0.033841,0.000933,0.004263
481,-4.752491,2.082955,-5.961562,-0.033841,0.032375,0.001066
496,-4.601655,2.161964,-5.880159,-0.030510,0.001998,0.001865
511,-4.541800,2.154782,-5.940014,-0.021717,0.023049,0.002798
526,-4.709394,2.037466,-5.856217,-0.023582,0.005729,0.005329
541,-4.680664,1.886631,-5.906496,-0.035040,0.017720,0.007194
556,-4.764462,2.082955,-5.987898,-0.039037,0.020384,0.001732
571,-4.534618,1.996764,-5.863400,-0.030377,0.016521,0.000933
586,-4.728548,1.917755,-5.930438,-0.032508,0.033708,-0.000266
601,-4.656722,1.917755,-5.896919,-0.034640,0.009992,-0.000133
616,-4.733336,2.056619,-5.951985,-0.038237,0.027845,0.000933
631,-4.582502,2.013524,-5.813122,-0.036239,0.010792,0.002398
646,-4.575319,2.042254,-5.930438,-0.036905,0.022116,0.003331
661,-4.788404,2.042254,-5.872977,-0.037704,0.015588,0.002531
676,-4.654328,2.061408,-5.896919,-0.031043,0.011591,0.005196
691,-4.644751,2.130840,-5.849035,-0.031309,0.016254,0.006528
706,-4.560954,2.051831,-5.911284,-0.029577,0.007194,0.007461
721,-4.666299,2.039860,-5.882554,-0.036239,0.020784,0.008527
736,-4.764462,2.126051,-5.913678,-0.025580,0.010525,0.000799
751,-4.616021,2.023100,-5.925649,-0.027446,0.007861,0.005063
766,-4.613626,2.018312,-5.937620,-0.035440,0.023848,0.002265
781,-4.718971,2.013524,-5.858612,-0.027712,0.011591,0.001199
796,-4.690241,1.970428,-5.916072,-0.027446,0.016254,-0.000400
811,-4.587290,2.015918,-5.872977,-0.028511,0.015055,-0.002398
826,-4.594473,1.948880,-5.899313,-0.028645,0.004796,0.001732
841,-4.596867,1.922544,-5.918467,-0.033041,0.000533,0.002798
856,-4.738125,2.001553,-5.796362,-0.036905,0.021850,0.005729
871,-4.601655,2.047042,-5.880159,-0.036905,0.001599,0.005862
886,-4.544195,2.130840,-5.846641,-0.038770,0.020784,0.009593
901,-4.697423,2.051831,-5.918467,-0.032508,0.021983,0.008394
916,-4.716577,2.018312,-5.944803,-0.035573,0.010925,0.006662
931,-4.546589,2.181118,-5.956774,-0.029711,0.012391,0.006395
946,-4.575319,2.087744,-5.872977,-0.027446,0.015855,0.006928
961,-4.666299,1.982399,-5.901707,-0.032908,0.016787,0.003864
976,-4.716577,1.982399,-5.841852,-0.028511,0.006262,0.003064
991,-4.639963,1.948880,-5.779603,-0.029577,0.016920,0.003331
1006,-4.594473,2.030283,-5.810728,-0.027446,0.010658,0.003730
1021,-4.707000,1.975216,-5.892130,-0.027845,0.017720,0.004796
1036,-4.728548,1.958457,-5.951985,-0.034907,0.020118,0.003864
1051,-4.687847,1.984793,-5.916072,-0.033841,0.021051,0.004130
1066,-4.546589,2.037466,-5.870583,-0.034907,0.011858,0.005329
1081,-4.630386,2.049437,-5.880159,-0.032109,0.026646,0.003331
1096,-4.735731,2.008735,-5.930438,-0.036372,0.015322,0.005862
1111,-4.541800,2.085350,-5.841852,-0.035573,0.013723,0.006129
1126,-4.601655,2.185906,-5.920861,-0.033974,0.018253,0.004930
1141,-4.522647,2.114080,-5.832275,-0.026913,0.007061,0.003997
1156,-4.754885,2.094926,-5.995081,-0.029044,0.028511,0.001732
1171,-4.659116,2.068590,-5.834670,-0.026779,-0.000666,0.001732
1186,-4.606444,2.042254,-5.904101,-0.026913,0.028778,0.002265
1201,-4.659116,1.939303,-5.863400,-0.028112,0.007328,0.005329
1216,-4.699818,1.920150,-5.906496,-0.031176,0.024515,0.005196
1231,-4.841076,1.982399,-5.956774,-0.039037,0.018919,0.007328
1246,-4.537012,1.980005,-5.884948,-0.036106,0.004930,0.007328
1261,-4.608838,2.042254,-5.896919,-0.040236,0.033308,0.005729
1276,-4.711789,2.044648,-5.810728,-0.033441,0.007328,0.001998
1291,-4.745308,2.035071,-5.846641,-0.034107,0.017187,0.004397
1306,-4.548983,2.157176,-5.808333,-0.036905,0.021583,0.006129
1321,-4.594473,2.157176,-5.884948,-0.034107,0.017453,0.004930
1336,-4.644751,2.106897,-5.987898,-0.035173,0.007061,0.006528
1351,-4.718971,2.094926,-5.813122,-0.033041,0.015988,0.000266
1366,-4.651934,2.166753,-5.856217,-0.030377,0.020384,0.003864
1381,-4.515464,2.059013,-5.837064,-0.028911,0.015721,0.003331
1396,-4.604050,1.960851,-5.789180,-0.032775,0.023582,0.003464
1411,-4.716577,1.999158,-5.963956,-0.034507,0.020251,0.002931
1426,-4.604050,1.956063,-5.877765,-0.032109,0.013456,0.001332
1441,-4.690241,1.922544,-5.918467,-0.035040,0.027179,0.001599
1456,-4.776433,1.980005,-5.973533,-0.033841,0.018652,0.000533
1471,-4.534618,1.999158,-5.781997,-0.030643,0.027046,0.001998
1486,-4.572925,2.027889,-5.968745,-0.032642,0.024515,0.005329
1501,-4.592079,1.994370,-5.923255,-0.033308,0.013057,0.003597
1516,-4.695029,2.078167,-6.030994,-0.032642,0.020917,0.002931
1531,-4.541800,2.090138,-5.813122,-0.025980,0.000266,0.002132
1546,-4.572925,2.094926,-5.961562,-0.029044,0.012657,-0.000799
1561,-4.690241,2.085350,-5.815516,-0.025447,0.004530,-0.000533
1576,-4.627992,2.039860,-5.942409,-0.024248,0.007594,0.001066
1591,-4.711789,2.092532,-5.951985,-0.025047,0.022516,0.006129
1606,-4.513070,2.001553,-5.841852,-0.023449,0.000133,0.005596
1621,-4.637568,2.011129,-5.872977,-0.025447,0.022783,0.004263
1636,-4.742914,1.929726,-5.951985,-0.029711,0.011724,0.005462
1651,-4.505888,1.984793,-5.911284,-0.027845,0.006129,0.005063
1666,-4.613626,2.030283,-5.901707,-0.030377,0.022116,0.003198
1681,-4.709394,1.987187,-5.822699,-0.025580,0.012124,0.004796
1696,-4.668693,1.984793,-5.889736,-0.029977,0.014389,0.003864
1711,-4.630386,2.070984,-5.920861,-0.034374,0.019052,0.004796
1726,-4.541800,2.123657,-5.913678,-0.030643,0.012790,0.004397
1741,-4.604050,2.090138,-5.951985,-0.027579,0.013723,0.004397
1756,-4.733336,2.042254,-5.906496,-0.027046,0.014789,0.000266
1771,-4.611232,2.011129,-5.896919,-0.027712,0.012790,0.003997
1786,-4.601655,2.102109,-5.863400,-0.029444,0.013989,0.002531
1801,-4.575319,2.006341,-5.861006,-0.026913,0.009992,0.002665
1816,-4.730942,2.015918,-5.887342,-0.025980,0.011458,0.003864
1831,-4.671087,2.049437,-5.892130,-0.030110,0.005995,0.002798
1846,-4.627992,2.030283,-5.889736,-0.032242,0.011191,0.000400
1861,-4.738125,1.972822,-5.863400,-0.031176,0.017054,0.000000
1876,-4.673481,1.956063,-5.841852,-0.029977,0.010792,-0.001865
1891,-4.671087,2.018312,-5.911284,-0.027179,0.017986,-0.001599
1906,-4.565742,2.039860,-5.851429,-0.034907,0.019185,0.001599
1921,-4.558560,2.070984,-5.889736,-0.036905,0.025447,0.000000
1936,-4.714183,1.984793,-5.951985,-0.031443,0.017320,0.001066
1951,-4.644751,2.063802,-5.796362,-0.032508,0.020118,0.003464
1966,-4.513070,2.104503,-5.918467,-0.034240,0.021717,0.005729
1981,-4.613626,2.075773,-5.937620,-0.032242,0.011325,0.009593
1996,-4.639963,1.989582,-5.901707,-0.026913,0.011858,0.008260
2011,-4.620809,2.039860,-5.973533,-0.033175,0.010792,0.006528
2026,-4.582502,1.996764,-5.935226,-0.036772,0.007594,0.006795
2041,-4.604050,2.142811,-5.827487,-0.030243,0.015588,-0.001998
2056,-4.690241,1.951274,-5.935226,-0.027712,0.012790,-0.001599
2071,-4.683058,1.929726,-5.930438,-0.029444,0.015188,0.000266
2086,-4.661510,2.039860,-5.863400,-0.030110,0.019718,0.001599
2101,-4.539406,2.008735,-5.844246,-0.036106,0.014789,0.003331
2116,-4.675876,1.991976,-5.911284,-0.041968,0.022783,0.003730
2131,-4.647145,2.042254,-5.875371,-0.034240,0.010525,0.003064
2146,-4.673481,2.068590,-5.947197,-0.028645,0.028911,0.003597
2161,-4.513070,2.042254,-5.889736,-0.025580,0.011991,0.004263
2176,-4.704606,1.984793,-5.877765,-0.027446,0.035040,0.007994
2191,-4.733336,2.140416,-5.822699,-0.021850,0.015455,0.008127
2206,-4.467580,2.054225,-5.870583,-0.013057,0.006662,0.011991
2221,-4.632780,2.015918,-5.925649,-0.018253,0.024115,0.011724
2236,-4.620809,1.860295,-5.956774,-0.033841,-0.010126,0.011325
2251,-4.762067,1.996764,-5.882554,-0.050894,0.008527,0.009992
2266,-4.582502,2.138022,-5.736507,-0.043300,-0.003730,0.003597
2281,-4.558560,2.080561,-5.853823,-0.034907,0.015588,-0.001199
2296,-4.718971,1.939303,-5.834670,-0.032642,0.013989,-0.003064
2311,-4.620809,1.982399,-5.911284,-0.033441,0.015055,-0.003464
2326,-4.651934,1.994370,-5.954380,-0.032908,0.024648,0.001865
2341,-4.484340,2.087744,-5.789180,-0.027712,0.017054,0.005462
2356,-4.790798,2.049437,-5.999869,-0.028645,0.052360,0.006928
2371,-4.575319,1.893813,-5.590461,-0.017720,-0.042767,0.013190
2386,-4.474763,2.133234,-5.803545,-0.021983,0.065949,0.005596
2401,-4.967968,2.011129,-5.947197,-0.010525,-0.009326,0.012923
2416,-4.086902,2.013524,-5.655104,-0.009593,-0.030377,0.008527
2431,-5.042189,2.006341,-6.002264,-0.013856,0.067815,0.009060
2446,-4.446033,1.860295,-5.736507,-0.021317,-0.058888,0.011724
2461,-4.563348,2.037466,-5.937620,-0.051694,0.052227,0.007861
2476,-4.721365,2.023100,-5.978322,-0.047430,-0.014123,0.003198
2491,-4.548983,1.941698,-5.858612,-0.047031,0.004397,-0.007328
2506,-4.821922,2.023100,-5.901707,-0.042368,0.028112,-0.008793
2521,-4.479551,2.001553,-5.793968,-0.035706,-0.025580,-0.007994
2536,-4.438850,1.980005,-5.748478,-0.035040,0.015721,-0.006928
2551,-5.001487,2.018312,-5.932832,-0.030377,0.033441,0.000133
2566,-4.529830,1.963245,-5.858612,-0.021583,-0.034907,0.008527
2581,-4.599261,2.008735,-5.870583,-0.023182,0.041568,0.008527
2596,-4.745308,2.090138,-5.966351,-0.016254,0.005729,0.016121
2611,-4.529830,2.025495,-5.925649,-0.010925,-0.009593,0.019052
2626,-4.764462,2.051831,-5.808333,0.001599,0.026513,0.018253
2641,-4.589684,1.922544,-5.928043,-0.009060,-0.005063,0.020518
2656,-4.551377,1.874660,-5.937620,-0.041035,0.023449,0.021317
2671,-4.666299,2.059013,-5.925649,-0.054625,0.015322,0.014256
2686,-4.718971,2.154782,-5.954380,-0.041701,0.013723,0.001599
2701,-4.666299,2.056619,-5.834670,-0.039703,0.029844,-0.010392
2716,-4.575319,2.051831,-5.956774,-0.035040,0.009593,-0.013057
2731,-4.644751,1.994370,-5.966351,-0.036772,0.024648,-0.008394
2746,-4.697423,1.948880,-5.880159,-0.034507,0.021717,-0.002531
2761,-4.568137,2.013524,-5.949591,-0.028378,0.013190,0.003864
2776,-4.632780,2.003947,-5.959168,-0.031309,-0.000933,0.014655
2791,-4.479551,2.032677,-5.748478,-0.031443,-0.002931,0.012391
2806,-4.924873,2.123657,-6.234501,-0.023449,0.068081,0.009060
2821,-4.709394,2.087744,-5.872977,-0.011191,-0.028911,0.013190
2836,-4.477157,2.061408,-5.908890,-0.008527,0.023315,0.007194
2851,-4.824317,1.984793,-5.990293,-0.003597,0.014789,0.008260
2866,-4.613626,1.996764,-6.011840,-0.005462,0.005196,0.009193
2881,-4.793192,1.898602,-6.088455,-0.025447,0.026113,0.009859
2896,-4.381389,2.023100,-5.896919,-0.049162,0.006795,0.005063
2911,-4.932055,2.178724,-6.265626,-0.057423,0.044233,0.000933
2926,-4.537012,2.011129,-5.820304,-0.045032,-0.046498,-0.006528
2941,-4.671087,2.142811,-5.995081,-0.047830,0.070746,-0.015588
2956,-4.924873,2.152387,-5.913678,-0.047164,-0.004663,-0.008793
2971,-4.326323,2.090138,-5.918467,-0.039836,-0.007994,-0.011458
2986,-5.037400,2.085350,-6.007052,-0.031043,0.071145,-0.006395
3001,-4.592079,2.073379,-5.820304,-0.015455,-0.029311,0.000000
3016,-4.611232,2.030283,-6.028600,-0.022383,0.057156,0.007594
3031,-4.687847,1.980005,-5.932832,-0.016787,-0.001732,0.013456
3046,-4.570531,2.030283,-6.026206,-0.009593,0.009060,0.012790
3061,-4.836287,1.977611,-5.961562,-0.003198,0.021051,0.010925
3076,-4.527435,2.037466,-5.978322,-0.001865,-0.021850,0.010658
3091,-4.584896,1.848324,-5.978322,-0.016787,0.026646,0.014256
3106,-4.728548,1.912967,-5.896919,-0.045565,0.005995,0.011191
3121,-4.666299,2.161964,-5.863400,-0.042634,0.011858,0.001732
3136,-4.680664,2.044648,-5.928043,-0.041835,0.033041,-0.007061
3151,-4.556166,2.051831,-5.928043,-0.040769,0.015188,-0.007594
3166,-4.723760,2.056619,-5.999869,-0.042501,0.029977,-0.007994
3181,-4.716577,2.047042,-5.930438,-0.036106,0.018253,-0.002531
3196,-4.589684,2.061408,-5.870583,-0.034773,0.026380,0.003864
3211,-4.599261,2.070984,-5.884948,-0.033175,0.019052,0.008660
3226,-4.592079,2.020706,-5.872977,-0.029444,0.009326,0.003864
3241,-4.738125,1.996764,-5.839458,-0.022383,0.006129,0.007461
3256,-4.412514,1.891419,-5.722142,-0.017453,-0.012790,0.006795
3271,-4.671087,1.898602,-5.772420,-0.020518,0.015988,0.009193
3286,-4.616021,1.795651,-5.774815,-0.026113,-0.025714,0.007727
3301,-4.620809,1.841141,-5.822699,-0.027845,0.003597,0.006129
3316,-4.726154,1.874660,-5.832275,-0.026247,0.007328,0.006795
3331,-4.556166,1.829170,-5.916072,-0.036106,-0.006928,0.008527
3346,-4.699818,1.929726,-5.803545,-0.049429,0.005329,0.008394
3361,-4.611232,2.042254,-5.889736,-0.051694,-0.003864,0.005862
3376,-4.716577,2.047042,-6.016629,-0.053426,0.025181,0.005329
3391,-4.551377,2.128445,-5.884948,-0.055557,0.001865,-0.000799
3406,-4.639963,2.056619,-5.944803,-0.057423,0.018786,-0.001599
3421,-4.695029,2.075773,-5.944803,-0.050761,0.009992,-0.003997
3436,-4.668693,2.130840,-5.940014,-0.042368,0.013856,-0.005995
3451,-4.611232,2.090138,-5.944803,-0.031309,0.015055,-0.004930
3466,-4.642357,2.039860,-5.920861,-0.020917,0.015188,-0.004263
3481,-4.814740,1.975216,-5.904101,-0.016121,0.012257,0.001599
3496,-4.690241,1.833959,-5.827487,-0.014655,0.020384,0.004930
3511,-4.635174,1.896208,-5.892130,-0.019985,0.014655,0.013989
3526,-4.544195,1.932121,-5.832275,-0.030377,0.015988,0.012524
3541,-4.757279,1.932121,-5.995081,-0.022916,0.024914,0.008260
3556,-4.692635,2.013524,-5.968745,-0.027712,0.012391,0.007461
3571,-4.630386,2.039860,-6.026206,-0.035972,0.026779,0.003597
3586,-4.644751,2.015918,-5.963956,-0.042368,-0.004263,0.002931
3601,-4.496311,2.047042,-5.832275,-0.035573,-0.000133,-0.000533
3616,-4.896142,2.094926,-6.050148,-0.048763,0.053559,-0.004796
3631,-4.537012,2.051831,-6.023811,-0.046631,-0.025847,-0.002531
3646,-4.532224,2.243367,-5.980716,-0.050361,0.045432,-0.006795
3661,-4.948815,2.109292,-5.956774,-0.034240,0.001466,-0.003864
3676,-4.675876,2.116474,-6.098032,-0.026380,0.019718,-0.002398
3691,-4.742914,2.011129,-5.987898,-0.021850,0.031443,0.005729
3706,-4.541800,1.984793,-5.954380,-0.013190,0.013590,0.007061
3721,-4.771644,1.879448,-5.963956,-0.010126,0.019985,0.009193
3736,-4.687847,1.845930,-5.980716,-0.009859,-0.009193,0.010126
3751,-4.683058,1.972822,-6.045359,-0.009859,0.023449,0.012923
3766,-4.606444,1.977611,-5.932832,0.000933,-0.001466,0.014922
3781,-4.637568,1.960851,-5.987898,0.006528,0.010525,0.019185
3796,-4.769250,1.853112,-5.987898,0.001332,-0.000533,0.022783
3811,-4.637568,1.848324,-5.925649,-0.055025,0.013456,0.023848
3826,-4.537012,2.260126,-5.973533,-0.073943,0.013323,0.017054
3841,-4.651934,2.300828,-5.959168,-0.054625,0.015588,-0.003198
3856,-4.699818,2.142811,-5.959168,-0.047164,0.018786,-0.014123
3871,-4.668693,2.044648,-5.889736,-0.045832,0.017986,-0.019718
3886,-4.584896,2.059013,-5.923255,-0.042767,0.013989,-0.014922
3901,-4.644751,2.020706,-5.834670,-0.031043,0.017054,-0.010525
3916,-4.745308,1.970428,-5.870583,-0.017587,0.021184,-0.008394
3931,-4.704606,1.968034,-5.832275,-0.012657,0.009326,0.003464
3946,-4.594473,1.910573,-5.870583,-0.012790,0.008260,0.007061
3961,-4.683058,1.877054,-5.947197,-0.005862,0.010126,0.013856
3976,-4.807557,1.829170,-5.942409,-0.009326,0.005729,0.017587
3991,-4.675876,1.692701,-5.916072,-0.037704,0.022649,0.017587
4006,-4.613626,2.159570,-5.916072,-0.057556,0.018253,0.015455
4021,-4.532224,2.042254,-5.858612,-0.056890,0.013456,0.003464
4036,-4.663905,2.181118,-5.899313,-0.047963,0.025847,-0.007994
4051,-4.723760,2.092532,-5.834670,-0.034374,0.018386,-0.011058
4066,-4.618415,2.138022,-5.956774,-0.032242,0.023715,-0.007861
4081,-4.604050,2.027889,-5.796362,-0.027712,0.012257,-0.001865
4096,-4.666299,2.054225,-5.918467,-0.018119,0.022383,0.001066
4111,-4.730942,1.972822,-5.908890,-0.017187,0.015322,0.007194
4126,-4.551377,2.013524,-5.951985,-0.011058,0.000133,0.011858
4141,-4.608838,1.996764,-5.884948,-0.011325,0.015988,0.016121
4156,-4.733336,1.908179,-5.827487,-0.009859,0.009326,0.014389
4171,-4.711789,1.912967,-5.932832,-0.026247,0.003730,0.015588
4186,-4.637568,1.929726,-5.872977,-0.051560,0.027046,0.005462
4201,-4.548983,2.063802,-5.975927,-0.047164,0.008394,-0.000133
4216,-4.630386,2.070984,-5.906496,-0.049962,0.018253,-0.010792
4231,-4.788404,2.011129,-5.908890,-0.046498,0.017187,-0.013590
4246,-4.584896,2.049437,-5.844246,-0.042234,0.007861,-0.009992
4261,-4.625597,2.039860,-5.726930,-0.037704,0.018652,-0.003864
4276,-4.671087,2.068590,-5.884948,-0.032109,0.013856,0.002132
4291,-4.704606,2.073379,-5.889736,-0.021717,0.017187,0.007994
4306,-4.654328,2.099715,-5.849035,-0.011991,0.001332,0.014389
4321,-4.553771,2.078167,-5.887342,-0.005729,0.002931,0.015988
4336,-4.635174,2.015918,-5.947197,-0.001066,0.001332,0.014789
4351,-4.831499,1.889025,-5.870583,-0.013856,0.015455,0.018253
4366,-4.728548,1.845930,-5.904101,-0.040502,0.006395,0.015322
4381,-4.491522,2.070984,-5.882554,-0.059688,0.019185,0.006262
4396,-4.730942,2.027889,-5.997475,-0.052493,0.027979,-0.008793
4411,-4.687847,2.104503,-5.935226,-0.038904,0.010925,-0.015055
4426,-4.740520,2.044648,-6.033388,-0.040902,0.031176,-0.016121
4441,-4.618415,2.001553,-5.851429,-0.034640,0.011591,-0.008660
4456,-4.654328,2.068590,-5.971139,-0.032908,0.023049,-0.000533
4471,-4.752491,2.008735,-5.853823,-0.027446,0.019452,0.005596
4486,-4.673481,2.056619,-5.853823,-0.021184,0.017187,0.013190
4501,-4.575319,2.082955,-5.887342,-0.022250,0.014256,0.017054
4516,-4.589684,2.073379,-5.904101,-0.026247,0.022383,0.022783
4531,-4.716577,1.922544,-5.980716,-0.032908,0.013856,0.015455
4546,-4.580108,2.130840,-5.911284,-0.039170,0.007061,0.009459
4561,-4.611232,1.991976,-5.916072,-0.038237,0.021983,0.000666
4576,-4.604050,2.020706,-5.884948,-0.037971,0.001998,-0.005329
4591,-4.695029,1.912967,-5.899313,-0.035040,0.010792,-0.006795
4606,-4.752491,1.984793,-5.966351,-0.036905,0.015855,-0.008527
4621,-4.678270,1.984793,-5.805939,-0.034773,0.006262,-0.006795
4636,-4.637568,1.941698,-5.841852,-0.032508,0.027845,-0.001199
4651,-4.805163,1.991976,-5.882554,-0.026646,0.017853,0.006395
4666,-4.683058,1.989582,-5.827487,-0.026779,0.014123,0.012657
4681,-4.697423,2.097321,-5.961562,-0.028112,0.028778,0.011325
4696,-4.558560,2.104503,-5.827487,-0.020651,0.013190,0.017187
4711,-4.630386,2.035071,-5.911284,-0.014655,0.012790,0.012923
4726,-4.759673,2.070984,-5.913678,-0.004397,0.017453,0.017054
4741,-4.618415,2.039860,-5.956774,-0.005063,0.005729,0.016920
4756,-4.558560,1.788469,-5.856217,-0.035972,0.012124,0.014522
4771,-4.675876,1.999158,-5.896919,-0.059421,0.017187,0.013323
4786,-4.728548,2.044648,-5.822699,-0.046631,-0.004663,-0.001066
4801,-4.678270,1.987187,-5.861006,-0.047164,0.023848,-0.009859
4816,-4.546589,1.953669,-5.928043,-0.049562,0.008527,-0.015588
4831,-4.687847,1.896208,-5.930438,-0.053559,0.023848,-0.015988
4846,-4.805163,1.970428,-5.978322,-0.041302,0.011191,-0.012391
4861,-4.630386,2.090138,-5.858612,-0.028245,0.016254,-0.002531
4876,-4.630386,2.044648,-5.870583,-0.023982,0.030910,0.002931
4891,-4.680664,1.987187,-5.870583,-0.020251,0.005329,0.011458
4906,-4.666299,2.025495,-5.817910,-0.015188,0.013590,0.018652
4921,-4.740520,2.099715,-5.872977,-0.003064,0.018786,0.019185
4936,-4.558560,2.149993,-5.851429,-0.003198,-0.003997,0.023848
4951,-4.599261,1.951274,-5.913678,-0.007994,0.013989,0.021184
4966,-4.754885,1.810017,-5.966351,-0.036106,0.010525,0.019851
4981,-4.560954,1.944092,-5.896919,-0.064884,0.016920,0.016121
4996,-4.572925,2.171541,-6.028600,-0.055158,0.012524,-0.001332
5011,-4.651934,2.073379,-5.947197,-0.039303,-0.003331,-0.014655
5026,-4.788404,1.872266,-5.861006,-0.039303,0.011591,-0.016121
5041,-4.661510,1.982399,-5.832275,-0.040902,0.026380,-0.013590
5056,-4.872200,2.054225,-5.973533,-0.032908,0.022916,-0.002665
5071,-4.350265,1.936909,-5.719748,-0.021717,-0.015455,0.002398
5086,-4.783615,2.082955,-5.920861,-0.023182,0.074343,0.005063
5101,-4.745308,1.939303,-5.791574,-0.009859,-0.031975,0.016521
5116,-4.378995,2.128445,-5.791574,-0.008394,0.030110,0.018386
5131,-4.955997,2.030283,-5.906496,0.001599,0.019718,0.021450
5146,-4.431667,1.982399,-5.810728,-0.004530,-0.023182,0.020118
5161,-4.709394,1.853112,-5.944803,-0.038237,0.040103,0.018652
5176,-4.582502,1.915361,-5.815516,-0.064351,-0.008127,0.012124
5191,-4.558560,2.152387,-5.908890,-0.065816,0.025047,-0.004263
5206,-4.766856,2.015918,-5.918467,-0.054092,0.021717,-0.016121
5221,-4.539406,2.003947,-5.832275,-0.056090,0.010259,-0.022516
5236,-4.762067,1.920150,-5.923255,-0.051161,0.039969,-0.021717
5251,-4.776433,1.953669,-5.820304,-0.041168,0.013323,-0.012524
5266,-4.644751,2.042254,-5.853823,-0.029444,0.023049,-0.003198
5281,-4.620809,2.044648,-5.880159,-0.016787,0.026513,0.007194
5296,-4.651934,2.015918,-5.995081,-0.012524,0.005329,0.016654
5311,-4.522647,2.006341,-5.765238,-0.006129,0.002531,0.021051
5326,-5.037400,2.288857,-6.239290,-0.003997,0.055691,0.022783
5341,-4.371812,1.740585,-5.540183,0.000000,-0.087799,0.027179
5356,-4.498705,1.929726,-6.042965,-0.052093,0.092729,0.012124
5371,-5.075707,2.030283,-6.047753,-0.051161,-0.008926,0.010525
5386,-4.237737,2.068590,-5.750873,-0.040636,-0.027179,-0.007061
5401,-5.032612,1.970428,-6.038177,-0.039303,0.083270,-0.019585
5416,-4.453215,1.879448,-5.834670,-0.033175,-0.044499,-0.012657
5431,-4.740520,1.939303,-5.877765,-0.047164,0.063951,-0.009193
5446,-4.817134,1.948880,-5.853823,-0.031709,0.001599,-0.000266
5461,-4.364630,2.047042,-5.820304,-0.035706,0.013590,0.008394
5476,-4.764462,2.070984,-5.920861,-0.045965,0.046364,0.012124
5491,-4.570531,2.176329,-5.841852,-0.030110,-0.011325,0.012124
5506,-4.754885,2.128445,-5.899313,-0.021317,0.031043,0.003997
5521,-4.599261,2.070984,-5.911284,-0.009593,-0.011991,0.008660
5536,-4.503493,2.035071,-5.853823,-0.012790,0.001865,0.010392
5551,-4.795586,1.946486,-5.951985,-0.008260,0.012257,0.007194
5566,-4.745308,1.853112,-5.817910,-0.004663,-0.012657,0.010259
5581,-4.644751,1.850718,-5.892130,-0.017587,0.014655,0.012524
5596,-4.630386,1.831564,-5.999869,-0.044233,0.012124,0.015721
5611,-4.759673,1.874660,-6.121974,-0.079939,0.048363,0.006795
5626,-4.850653,2.169147,-5.999869,-0.078074,-0.009593,-0.002665
5641,-4.352659,2.068590,-5.669469,-0.066083,0.028911,-0.018253
5656,-4.860229,2.214637,-6.093243,-0.074476,0.075142,-0.025047
5671,-4.362236,2.123657,-5.655104,-0.054891,-0.031975,-0.022916
5686,-4.714183,2.138022,-5.973533,-0.044233,0.071678,-0.018519
5701,-4.747702,2.140416,-5.762844,-0.019851,-0.007328,-0.007994
5716,-4.412514,2.106897,-5.932832,-0.009726,0.017853,-0.000133
5731,-4.786009,1.987187,-5.884948,-0.003464,0.018386,0.017720
5746,-4.661510,2.025495,-5.738902,0.005862,-0.020251,0.023582
5761,-4.797980,2.085350,-5.817910,0.016521,0.017587,0.027579
5776,-4.596867,1.929726,-5.863400,0.030910,-0.013723,0.026913
5791,-4.714183,1.750161,-5.992687,0.013190,0.016654,0.030243
5806,-4.793192,1.587356,-5.985504,-0.056224,0.023182,0.030377
5821,-4.539406,2.094926,-5.959168,-0.075409,-0.002265,0.016254
5836,-4.649539,2.224213,-5.995081,-0.074210,0.035306,-0.009459
5851,-4.718971,2.252944,-5.856217,-0.049562,0.018652,-0.031443
5866,-4.769250,1.982399,-5.949591,-0.046498,0.031309,-0.029311
5881,-4.726154,2.032677,-5.877765,-0.046231,0.025714,-0.017054
5896,-4.560954,2.073379,-5.798757,-0.037038,0.020917,-0.001998
5911,-4.654328,2.147599,-5.916072,-0.024515,0.026913,0.007994
5926,-4.678270,2.111686,-5.901707,-0.015455,0.006129,0.015588
5941,-4.666299,2.092532,-5.849035,-0.010792,0.013323,0.022916
5956,-4.678270,2.075773,-5.875371,-0.010392,0.010792,0.026646
5971,-4.575319,1.881842,-5.932832,-0.020651,0.015322,0.022916
5986,-4.723760,1.958457,-5.980716,-0.026646,0.017986,0.016521
6001,-4.738125,1.877054,-5.918467,-0.035040,0.000666,0.004796
6016,-4.620809,1.910573,-5.916072,-0.045032,0.022916,-0.005462
6031,-4.707000,1.968034,-6.011840,-0.037571,0.021184,-0.012790
6046,-4.659116,1.776498,-5.846641,-0.040103,0.003597,-0.013590
6061,-4.728548,1.862689,-5.940014,-0.052360,0.033175,-0.011458
6076,-4.740520,1.958457,-5.849035,-0.047297,0.014789,-0.009459
6091,-4.611232,2.001553,-5.750873,-0.043300,0.019585,-0.000933
6106,-4.659116,2.015918,-5.882554,-0.035972,0.032775,0.005729
6121,-4.685452,2.123657,-5.822699,-0.036772,0.017187,0.011325
6136,-4.582502,2.250550,-5.810728,-0.028911,0.018652,0.015322
6151,-4.587290,2.233790,-5.827487,-0.019718,0.020651,0.013723
6166,-4.639963,2.099715,-5.884948,-0.021583,0.006528,0.012923
6181,-4.627992,2.099715,-5.940014,-0.017587,0.013856,0.011058
6196,-4.692635,2.035071,-6.004658,-0.019718,0.004930,0.007727
6211,-4.584896,1.982399,-5.916072,-0.036772,0.005596,0.005462
6226,-4.675876,1.903390,-5.856217,-0.038904,0.011858,0.000266
6241,-4.769250,1.776498,-5.949591,-0.039570,0.016121,-0.006662
6256,-4.793192,1.750161,-5.923255,-0.048363,0.026113,-0.003064
6271,-4.568137,1.800440,-5.863400,-0.061953,0.015588,-0.007594
6286,-4.613626,1.900996,-5.820304,-0.071279,0.035040,-0.004796
6301,-4.807557,2.130840,-5.963956,-0.053292,0.027712,-0.007194
6316,-4.726154,2.176329,-5.841852,-0.035306,0.012657,-0.003064
6331,-4.527435,2.200271,-5.731719,-0.024781,0.014655,0.004663
6346,-4.572925,2.020706,-5.839458,-0.020118,0.017320,0.011058
6361,-4.745308,2.075773,-5.884948,-0.021850,0.019319,0.012657
6376,-4.651934,2.080561,-5.923255,-0.009459,-0.013456,0.012124
6391,-4.556166,2.051831,-5.916072,-0.004130,0.009193,0.009859
6406,-4.716577,1.917755,-5.872977,-0.019585,0.008793,0.008127
6421,-4.678270,2.023100,-5.911284,-0.029711,-0.017054,0.007727
6436,-4.881777,1.963245,-5.892130,-0.034374,0.034240,0.001199
6451,-4.563348,1.968034,-5.801151,-0.029711,0.001865,0.001466
6466,-4.508282,1.953669,-6.054936,-0.036639,0.044766,0.000533
6481,-4.802769,1.917755,-5.825093,-0.037971,0.013856,0.000266
6496,-4.582502,2.020706,-5.808333,-0.035972,0.003597,0.001466
6511,-4.726154,2.015918,-6.030994,-0.037704,0.042234,0.002531
6526,-4.563348,2.066196,-5.944803,-0.032109,-0.013590,0.010392
6541,-4.551377,2.030283,-5.856217,-0.031176,0.023182,0.006262
6556,-4.812346,2.059013,-5.937620,-0.025714,0.013323,0.006395
6571,-4.558560,2.061408,-5.892130,-0.039436,0.014123,0.005729
6586,-4.625597,2.219425,-5.930438,-0.039037,0.028112,0.003730
6601,-4.647145,2.070984,-5.858612,-0.034374,0.010259,0.002931
6616,-4.666299,2.059013,-5.908890,-0.026113,0.023982,0.000799
6631,-4.671087,2.027889,-5.918467,-0.024115,0.013190,0.001199
6646,-4.572925,1.989582,-5.829881,-0.021317,0.010392,0.001599
6661,-4.580108,1.833959,-5.841852,-0.029844,0.012524,0.003730
6676,-4.781221,1.970428,-6.002264,-0.036106,0.016521,0.005596
6691,-4.671087,2.044648,-5.817910,-0.027046,-0.003730,0.004130
6706,-4.584896,2.025495,-5.863400,-0.027179,0.014922,-0.002798
6721,-4.723760,1.960851,-5.880159,-0.025847,0.014256,-0.005329
6736,-4.726154,1.946486,-5.882554,-0.029577,0.016920,-0.001998
6751,-4.627992,2.011129,-5.801151,-0.038770,0.012790,0.003997
6766,-4.532224,2.082955,-5.923255,-0.040769,0.018519,0.006928
6781,-4.651934,2.169147,-5.894525,-0.035440,0.015588,0.005063
6796,-4.656722,2.039860,-5.892130,-0.031309,0.008926,0.002398
6811,-4.707000,2.169147,-5.951985,-0.029311,0.022516,0.007194
6826,-4.556166,2.049437,-5.884948,-0.023848,-0.002398,0.008260
6841,-4.618415,2.054225,-5.870583,-0.029178,0.013456,0.007328
6856,-4.769250,1.867477,-5.825093,-0.038237,0.006528,0.004663
6871,-4.675876,2.099715,-5.980716,-0.035306,0.015455,0.003331
6886,-4.728548,2.025495,-5.954380,-0.025047,0.018786,0.000400
6901,-4.596867,1.898602,-5.789180,-0.027845,0.002398,0.003864
6916,-4.752491,1.900996,-5.951985,-0.041035,0.030776,0.001332
6931,-4.733336,1.987187,-5.961562,-0.032508,0.014655,-0.000266
6946,-4.604050,2.020706,-5.851429,-0.034773,0.026779,0.003597
6961,-4.639963,2.030283,-5.930438,-0.044233,0.019585,0.004263
6976,-4.625597,2.025495,-5.908890,-0.047031,0.015188,0.007594
6991,-4.764462,2.173935,-5.992687,-0.033841,0.033441,0.006262
7006,-4.570531,2.056619,-5.947197,-0.032242,0.010925,0.004663
7021,-4.539406,2.138022,-5.870583,-0.038904,0.014922,0.005596
7036,-4.697423,2.130840,-5.978322,-0.032109,0.025181,0.004663
7051,-4.726154,2.047042,-5.954380,-0.029844,0.007328,0.003064
7066,-4.529830,2.090138,-5.784391,-0.025980,0.006795,0.003064
7081,-4.618415,2.020706,-5.832275,-0.023449,0.005462,0.001066
7096,-4.656722,2.006341,-5.901707,-0.022649,0.008260,0.001732
7111,-4.845864,1.869871,-5.935226,-0.025314,-0.004130,0.004530
7126,-4.596867,1.903390,-5.877765,-0.028645,0.016254,0.004130
7141,-4.608838,1.963245,-5.889736,-0.030243,0.022649,0.005063
7156,-4.644751,2.025495,-5.832275,-0.037038,0.021317,0.002665
7171,-4.695029,2.032677,-5.959168,-0.032375,0.030776,0.004130
7186,-4.714183,2.080561,-5.904101,-0.031709,0.017587,0.003064
7201,-4.479551,2.032677,-5.770026,-0.034240,0.008926,0.007727
7216,-4.630386,2.070984,-5.961562,-0.032775,0.023982,0.003464
7231,-4.797980,1.960851,-5.887342,-0.032375,0.012923,0.004530
7246,-4.651934,2.044648,-5.920861,-0.032642,0.020384,0.005329
7261,-4.618415,2.082955,-5.846641,-0.030243,0.011325,-0.000133
7276,-4.630386,2.015918,-5.877765,-0.024248,0.008394,0.000933
7291,-4.714183,1.980005,-5.853823,-0.028645,0.014922,0.003198
7306,-4.728548,1.956063,-5.856217,-0.034773,0.010792,0.004130
7321,-4.673481,2.126051,-5.861006,-0.034640,0.018652,0.003331
7336,-4.616021,1.980005,-5.894525,-0.032375,0.003597,0.000933
7351,-4.685452,1.965640,-5.947197,-0.039570,0.033574,0.000533
7366,-4.702212,2.035071,-5.961562,-0.036372,0.023982,0.000533
7381,-4.563348,1.987187,-5.944803,-0.032242,-0.000133,-0.000666
7396,-4.604050,2.039860,-5.963956,-0.036905,0.024248,-0.000533
7411,-4.776433,1.963245,-5.930438,-0.037172,0.012923,0.003730
7426,-4.675876,2.008735,-5.863400,-0.037704,0.008926,0.004530
7441,-4.627992,2.070984,-5.894525,-0.035972,0.018119,0.006928
7456,-4.580108,2.161964,-5.896919,-0.029577,0.017054,0.003464
7471,-4.745308,2.080561,-5.901707,-0.027712,0.012391,0.008660
7486,-4.714183,2.049437,-5.863400,-0.028378,0.017320,0.007061
7501,-4.613626,2.015918,-5.906496,-0.030510,0.007861,0.007194
7516,-4.515464,2.078167,-5.877765,-0.026247,0.011724,0.006928
7531,-4.752491,1.951274,-5.975927,-0.023049,0.017054,0.002132
7546,-4.819528,1.951274,-5.894525,-0.028778,0.012657,0.002798
7561,-4.613626,1.951274,-5.851429,-0.026779,0.009193,0.004263
7576,-4.601655,1.946486,-5.880159,-0.030510,0.015188,0.002132
7591,-4.709394,1.991976,-5.920861,-0.035440,0.024781,0.003198
7606,-4.759673,2.006341,-5.961562,-0.036372,0.021583,0.004796
7621,-4.608838,2.059013,-5.920861,-0.031309,0.009193,0.002931
7636,-4.527435,2.042254,-5.935226,-0.030910,0.025847,0.004663
7651,-4.723760,2.063802,-5.872977,-0.032375,0.015988,0.003331
7666,-4.678270,2.042254,-5.837064,-0.033041,0.010792,0.007594
7681,-4.651934,2.109292,-5.951985,-0.030510,0.017587,0.008527
7696,-4.599261,2.059013,-5.863400,-0.028511,0.007461,0.007994
7711,-4.589684,1.948880,-5.810728,-0.034507,0.018652,0.002265
7726,-4.726154,2.039860,-5.937620,-0.036106,0.021983,0.000799
7741,-4.654328,1.989582,-5.913678,-0.030110,0.009060,-0.003064
7756,-4.589684,2.039860,-5.995081,-0.026913,0.018519,-0.001466
7771,-4.644751,1.980005,-5.904101,-0.028511,0.008394,-0.001599
7786,-4.623203,1.989582,-5.887342,-0.025181,0.001865,0.000400
7801,-4.683058,1.972822,-5.916072,-0.028778,0.011991,0.002665
7816,-4.546589,1.994370,-5.834670,-0.029977,0.006928,0.006395
7831,-4.661510,1.987187,-5.858612,-0.031443,0.014922,0.005196
7846,-4.735731,2.008735,-5.803545,-0.028911,0.013190,0.010792
7861,-4.630386,1.996764,-5.839458,-0.030776,0.019452,0.007861
7876,-4.632780,2.073379,-5.920861,-0.031443,0.023449,0.008793
7891,-4.616021,2.092532,-5.820304,-0.027712,0.017720,0.008527
7906,-4.776433,1.996764,-5.947197,-0.027979,0.017320,0.007194
7921,-4.649539,2.051831,-5.846641,-0.028112,0.007594,0.005196
7936,-4.537012,2.011129,-5.930438,-0.025714,0.020784,0.002665
7951,-4.625597,1.991976,-5.825093,-0.028378,0.021583,0.004530
7966,-4.752491,2.059013,-5.877765,-0.025980,0.015855,0.001332
7981,-4.714183,2.027889,-5.849035,-0.026646,0.005329,0.000400
7996,-4.570531,2.023100,-5.899313,-0.033974,0.016121,0.000266
8011,-4.604050,2.054225,-5.949591,-0.034374,0.021983,0.000266
8026,-4.630386,2.003947,-6.007052,-0.035440,0.008660,0.001998
8041,-4.721365,1.970428,-5.918467,-0.036772,0.020518,0.001599
8056,-4.630386,2.037466,-5.892130,-0.040236,0.008527,0.002798
8071,-4.575319,2.042254,-5.899313,-0.037971,0.006795,0.003730
8086,-4.730942,2.042254,-5.887342,-0.036639,0.026779,0.001199
8101,-4.714183,2.047042,-5.928043,-0.027579,0.004663,0.002265
8116,-4.575319,2.061408,-5.887342,-0.025580,0.015055,-0.001066
8131,-4.659116,2.070984,-5.940014,-0.022250,0.026513,-0.000533
8146,-4.697423,2.037466,-5.880159,-0.022250,0.002265,0.002265
8161,-4.671087,2.027889,-5.877765,-0.022783,0.019718,0.006262
8176,-4.666299,2.027889,-5.863400,-0.016654,0.011058,0.007594
8191,-4.527435,2.070984,-5.868188,-0.018119,0.013856,0.010925
8206,-4.704606,1.898602,-5.954380,-0.026913,0.016254,0.012657
8221,-4.680664,2.032677,-5.858612,-0.039703,0.016920,0.006662
8236,-4.714183,2.039860,-5.844246,-0.039037,0.019985,0.002931
8251,-4.515464,1.999158,-5.954380,-0.042900,0.011191,-0.003864
8266,-4.673481,1.948880,-6.019023,-0.050628,0.021850,-0.005729
8281,-4.759673,1.996764,-5.832275,-0.051960,0.011058,-0.008527
8296,-4.707000,2.025495,-5.841852,-0.051560,0.026913,-0.007861
8311,-4.687847,2.111686,-5.810728,-0.052893,0.023049,-0.006129
8326,-4.627992,2.130840,-5.868188,-0.049162,0.035040,-0.002665
8341,-4.742914,2.061408,-5.856217,-0.034907,0.031975,0.002931
8356,-4.639963,2.099715,-5.863400,-0.022116,0.022516,0.005995
8371,-4.604050,2.149993,-5.858612,-0.015988,0.016254,0.013190
8386,-4.663905,1.977611,-5.846641,-0.001466,0.025047,0.021717
8401,-4.714183,1.912967,-5.872977,0.000533,0.009593,0.022383
8416,-4.632780,1.984793,-5.913678,0.002665,0.012257,0.022649
8431,-4.616021,1.802834,-5.884948,-0.009459,0.003464,0.024914
8446,-4.565742,1.812411,-5.899313,-0.049296,0.015055,0.021317
8461,-4.630386,2.138022,-5.928043,-0.061953,0.007594,0.008793
8476,-4.639963,2.200271,-5.904101,-0.041701,0.000266,-0.008127
8491,-4.656722,2.121263,-5.916072,-0.042101,0.022516,-0.015322
8506,-4.630386,2.075773,-5.825093,-0.038904,0.007727,-0.017054
8521,-4.620809,2.018312,-5.834670,-0.038637,0.026113,-0.012124
8536,-4.793192,2.130840,-5.908890,-0.031176,0.027046,-0.004796
8551,-4.532224,2.126051,-5.911284,-0.023715,0.007994,0.005729
8566,-4.534618,2.097321,-5.889736,-0.019052,0.022116,0.010658
8581,-4.707000,2.030283,-5.906496,-0.017320,0.008260,0.010259
8596,-4.666299,2.063802,-5.906496,-0.008926,0.007194,0.012391
8611,-4.711789,2.111686,-5.870583,0.005196,0.016121,0.013456
8626,-4.548983,1.788469,-5.911284,-0.015721,0.011724,0.011191
8641,-4.673481,1.850718,-5.987898,-0.059554,0.020384,0.013856
8656,-4.697423,2.142811,-5.947197,-0.056623,0.003997,0.003730
8671,-4.668693,2.035071,-5.896919,-0.044499,0.027179,-0.012524
8686,-4.575319,2.001553,-5.990293,-0.041701,0.020518,-0.015855
8701,-4.537012,1.953669,-5.884948,-0.045432,0.020251,-0.013057
8716,-4.721365,1.996764,-5.825093,-0.042767,0.025847,-0.005329
8731,-4.707000,2.082955,-5.815516,-0.033441,0.015588,0.003064
8746,-4.508282,2.161964,-5.865794,-0.024115,0.021051,0.007594
8761,-4.556166,2.063802,-5.880159,-0.015455,0.015455,0.010925
8776,-4.675876,2.008735,-5.870583,-0.014389,0.001332,0.017853
8791,-4.707000,2.032677,-5.892130,-0.003064,0.027312,0.013856
8806,-4.709394,2.018312,-5.870583,-0.007594,0.003997,0.013190
8821,-4.517859,1.812411,-5.887342,-0.042634,0.014123,0.014522
8836,-4.754885,2.147599,-5.920861,-0.056890,0.035573,0.009859
8851,-4.491522,2.209848,-5.851429,-0.035706,-0.003331,-0.001732
8866,-4.656722,2.018312,-5.877765,-0.032642,0.025980,-0.012524
8881,-4.774038,1.948880,-5.858612,-0.034773,0.016654,-0.009193
8896,-4.580108,1.980005,-5.856217,-0.034773,0.015055,-0.005329
8911,-4.575319,1.951274,-5.815516,-0.031842,0.029711,0.002798
8926,-4.659116,1.975216,-5.956774,-0.027312,0.023848,0.005862
8941,-4.690241,1.956063,-5.779603,-0.023982,0.010126,0.012790
8956,-4.601655,2.049437,-5.899313,-0.031709,0.020118,0.012124
8971,-4.517859,2.015918,-5.894525,-0.032908,0.006928,0.013456
8986,-4.527435,2.082955,-5.815516,-0.034240,0.013323,0.008660
9001,-4.797980,2.145205,-5.978322,-0.029977,0.029044,0.004130
9016,-4.529830,2.049437,-5.822699,-0.027046,-0.015588,0.001332
9031,-4.522647,2.070984,-5.961562,-0.039570,0.023582,-0.002265
9046,-4.680664,2.121263,-5.930438,-0.037838,0.005729,-0.008793
9061,-4.678270,1.963245,-5.861006,-0.044632,-0.006129,-0.008527
9076,-4.649539,2.039860,-5.904101,-0.041035,0.022916,-0.006662
9091,-4.659116,1.922544,-5.777209,-0.037038,0.013057,-0.004796
9106,-4.601655,1.968034,-5.887342,-0.025980,0.010792,-0.001466
9121,-4.788404,2.018312,-5.983110,-0.026646,0.026513,-0.000533
9136,-4.685452,2.056619,-5.913678,-0.017587,0.012790,0.003864
9151,-4.517859,2.078167,-5.949591,-0.016121,0.015455,0.002531
9166,-4.616021,2.020706,-5.904101,-0.014123,0.007328,0.005862
9181,-4.594473,2.056619,-5.937620,-0.011858,-0.013323,0.001466
9196,-4.723760,2.149993,-5.944803,-0.013856,0.015988,0.006528
9211,-4.565742,2.118868,-5.765238,-0.002665,-0.009726,0.010525
9226,-4.582502,2.080561,-5.923255,-0.000133,0.004530,0.013856
9241,-4.699818,1.879448,-5.935226,-0.002132,0.004663,0.013856
9256,-4.680664,1.714248,-5.906496,-0.056224,0.010259,0.016920
9271,-4.592079,2.133234,-5.892130,-0.071945,0.008127,0.008926
9286,-4.680664,2.104503,-5.837064,-0.056757,0.003597,-0.007061
9301,-4.752491,2.049437,-5.906496,-0.045032,0.017187,-0.016254
9316,-4.771644,1.944092,-5.889736,-0.044366,0.022916,-0.014655
9331,-4.651934,1.984793,-5.913678,-0.040636,0.024914,-0.009593
9346,-4.604050,2.025495,-5.865794,-0.032642,0.015322,-0.008260
9361,-4.627992,1.982399,-5.844246,-0.024115,0.023315,0.000666
9376,-4.800375,1.946486,-5.894525,-0.019319,0.018919,0.009859
9391,-4.534618,2.035071,-5.805939,-0.015455,-0.006262,0.014522
9406,-4.532224,2.104503,-5.951985,-0.009859,0.017320,0.017453
9421,-4.704606,2.145205,-5.872977,0.003597,0.011858,0.020784
9436,-4.651934,1.874660,-5.920861,-0.014922,-0.003597,0.024248
9451,-4.618415,1.855506,-5.975927,-0.053159,0.028378,0.018786
9466,-4.503493,2.140416,-5.844246,-0.059421,-0.006795,0.010126
9481,-4.635174,2.166753,-5.963956,-0.050628,0.016654,-0.007994
9496,-4.824317,2.104503,-5.937620,-0.046764,0.017453,-0.014655
9511,-4.592079,2.032677,-5.851429,-0.037971,0.006262,-0.014522
9526,-4.726154,2.044648,-5.868188,-0.036772,0.034773,-0.010925
9541,-4.632780,1.987187,-5.691017,-0.023582,0.006928,-0.002398
9556,-4.690241,2.027889,-5.887342,-0.020917,0.034773,0.002265
9571,-4.747702,1.991976,-5.889736,-0.018919,0.017587,0.008926
9586,-4.515464,2.027889,-5.875371,-0.013456,0.005995,0.012923
9601,-4.625597,2.008735,-5.834670,-0.008527,0.018119,0.017453
9616,-4.709394,1.903390,-5.920861,0.000400,0.007727,0.016920
9631,-4.632780,1.838747,-5.975927,-0.010925,0.010126,0.018253
9646,-4.556166,1.747767,-5.925649,-0.065283,0.023848,0.018119
9661,-4.577713,2.269703,-5.942409,-0.067681,0.015455,0.007994
9676,-4.740520,2.171541,-5.892130,-0.048363,0.008793,-0.009593
9691,-4.618415,2.023100,-5.863400,-0.042767,0.026380,-0.019718
9706,-4.592079,2.003947,-5.796362,-0.043300,0.015055,-0.015588
9721,-4.611232,2.049437,-5.856217,-0.035839,0.020784,-0.012257
9736,-4.831499,2.044648,-5.872977,-0.026247,0.024248,0.000666
9751,-4.570531,2.001553,-5.810728,-0.016254,-0.003464,0.005862
9766,-4.541800,2.042254,-5.908890,-0.020251,0.031576,0.009992
9781,-4.673481,1.994370,-5.908890,-0.011591,0.010925,0.013456
9796,-4.604050,2.025495,-5.726930,-0.008660,-0.009593,0.015455
9811,-4.738125,1.922544,-5.908890,-0.001998,0.020784,0.014123
9826,-4.592079,1.788469,-5.935226,-0.019052,-0.000400,0.024248
9841,-4.503493,1.805228,-5.978322,-0.056890,0.013989,0.018253
9856,-4.656722,2.080561,-5.911284,-0.063951,0.010525,0.006395
9871,-4.690241,2.188300,-5.904101,-0.045165,-0.008793,-0.010126
9886,-4.654328,2.059013,-5.729324,-0.042900,0.010259,-0.012524
9901,-4.661510,2.070984,-5.846641,-0.037704,0.010126,-0.014123
9916,-4.692635,2.066196,-5.846641,-0.030643,0.021184,-0.006129
9931,-4.807557,2.020706,-5.805939,-0.020118,0.019585,0.000000
9946,-4.613626,1.994370,-5.920861,-0.014123,0.014922,0.002398
9961,-4.563348,1.989582,-5.911284,-0.016787,0.017453,0.011991
9976,-4.639963,2.011129,-5.901707,-0.013057,0.009326,0.018519
9991,-4.726154,1.980005,-5.951985,-0.007994,0.009060,0.018652
10006,-4.647145,2.023100,-5.901707,0.006528,0.007727,0.014655
10021,-4.577713,1.896208,-5.932832,0.005329,0.001332,0.022516
10036,-4.687847,1.651999,-6.002264,-0.040636,0.012524,0.019585
10051,-4.671087,2.109292,-5.985504,-0.073810,0.008527,0.013190
10066,-4.627992,2.219425,-5.817910,-0.058222,0.010925,-0.004930
10081,-4.616021,2.070984,-5.951985,-0.047963,0.022116,-0.014522
10096,-4.673481,1.929726,-5.880159,-0.049029,0.023182,-0.019452
10111,-4.759673,1.953669,-5.813122,-0.051294,0.032508,-0.013856
10126,-4.740520,2.042254,-5.889736,-0.036239,0.019585,-0.003464
10141,-4.544195,2.090138,-5.916072,-0.022649,0.030243,0.000533
10156,-4.647145,1.991976,-5.956774,-0.021317,0.021983,0.009326
10171,-4.639963,1.991976,-5.894525,-0.013456,0.004930,0.011858
10186,-4.707000,2.066196,-5.882554,-0.008926,0.018652,0.016920
10201,-4.527435,2.099715,-5.887342,-0.004930,0.001599,0.015721
10216,-4.577713,1.958457,-6.011840,-0.005196,0.015188,0.014123
10231,-4.733336,1.838747,-6.004658,-0.027979,0.007861,0.017054
10246,-4.690241,2.049437,-5.983110,-0.046764,0.001998,0.011858
10261,-4.618415,2.085350,-5.975927,-0.050228,0.004130,-0.000799
10276,-4.575319,2.030283,-5.944803,-0.047830,0.004130,-0.012524
10291,-4.757279,1.975216,-5.920861,-0.058622,0.013856,-0.017320
10306,-4.663905,2.008735,-5.829881,-0.048896,0.006528,-0.018386
10321,-4.738125,2.128445,-5.901707,-0.044100,0.032642,-0.014655
10336,-4.608838,2.027889,-5.880159,-0.033841,0.011191,-0.010658
10351,-4.750096,2.035071,-5.762844,-0.025181,0.029044,-0.005462
10366,-4.814740,2.023100,-5.870583,-0.019585,0.027579,0.012657
10381,-4.527435,2.080561,-5.851429,-0.012923,0.010925,0.014655
10396,-4.678270,2.051831,-5.954380,-0.023049,0.027712,0.023582
10411,-4.716577,1.972822,-5.872977,-0.020518,0.010392,0.026913
10426,-4.637568,1.970428,-6.035782,-0.024781,0.026779,0.019585
10441,-4.611232,2.037466,-5.887342,-0.028245,0.015322,0.014522
10456,-4.503493,1.948880,-5.932832,-0.025314,0.017587,0.008926
10471,-4.714183,1.963245,-5.887342,-0.028112,0.021717,0.004130
10486,-4.776433,1.951274,-5.916072,-0.031576,0.015721,-0.000799
10501,-4.546589,2.039860,-5.870583,-0.031043,0.009726,0.003064
10516,-4.623203,2.018312,-5.896919,-0.043567,0.024648,0.005462
10531,-4.575319,2.037466,-5.875371,-0.041435,0.009992,0.001466
10546,-4.632780,2.001553,-5.865794,-0.043700,0.018652,0.006262
10561,-4.544195,2.109292,-5.877765,-0.046897,0.007194,0.003597
10576,-4.455609,2.178724,-5.796362,-0.040502,-0.006662,0.000133
10591,-4.673481,2.011129,-5.901707,-0.036106,-0.000133,-0.000266
10606,-4.659116,2.157176,-5.791574,-0.027312,-0.007328,-0.002665
10621,-4.668693,2.097321,-5.956774,-0.024381,0.003064,-0.009593
10636,-4.625597,2.013524,-5.865794,-0.017187,-0.002132,-0.008926
10651,-4.702212,2.006341,-5.849035,-0.015721,0.012391,-0.008127
10666,-4.826711,1.833959,-5.889736,-0.018119,0.008260,-0.001732
10681,-4.776433,1.819593,-5.894525,-0.030776,0.014256,0.002398
10696,-4.637568,1.934515,-5.865794,-0.037038,0.013989,0.005063
10711,-4.625597,1.922544,-5.992687,-0.037172,0.031975,0.005462
10726,-4.754885,1.984793,-5.985504,-0.041701,0.023715,0.006528
10741,-4.680664,2.078167,-5.863400,-0.036639,0.026779,0.007461
10756,-4.601655,2.087744,-5.911284,-0.030910,0.038504,0.006395
10771,-4.630386,2.027889,-5.951985,-0.027046,0.024914,0.007727
10786,-4.704606,1.939303,-5.918467,-0.020917,0.036239,0.009593
10801,-4.647145,1.968034,-5.930438,-0.029711,0.022916,0.012257
10816,-4.493917,2.080561,-5.911284,-0.033175,0.013723,0.013856
10831,-4.534618,2.075773,-5.980716,-0.033308,0.016920,0.011724
10846,-4.735731,2.032677,-5.930438,-0.027446,0.012790,0.009859
10861,-4.699818,1.953669,-5.798757,-0.025580,0.006928,0.008260
10876,-4.565742,1.946486,-5.911284,-0.026913,0.013723,0.004663
10891,-4.606444,1.989582,-5.920861,-0.029577,0.006662,0.002132
10906,-4.642357,1.975216,-5.913678,-0.033308,0.006129,0.001466
10921,-4.707000,1.932121,-5.801151,-0.036372,0.003064,-0.004397
10936,-4.644751,1.965640,-5.913678,-0.035706,-0.002931,-0.005063
10951,-4.589684,2.094926,-5.889736,-0.041568,0.006395,-0.008926
10966,-4.692635,2.099715,-5.884948,-0.031975,0.002798,-0.009859
10981,-4.699818,2.008735,-5.822699,-0.027712,0.011591,-0.009593
10996,-4.745308,2.121263,-5.849035,-0.036372,0.023982,-0.004263
11011,-4.611232,2.138022,-5.832275,-0.024115,0.008926,0.005196
11026,-4.568137,1.960851,-5.906496,-0.022383,0.034374,0.009459
11041,-4.821922,1.924938,-5.904101,-0.026247,0.038904,0.009060
11056,-4.707000,1.968034,-5.834670,-0.015055,0.008660,0.012790
11071,-4.589684,1.869871,-5.887342,-0.033308,0.048896,0.015455
11086,-4.632780,1.975216,-5.997475,-0.036505,0.018119,0.015855
11101,-4.673481,1.939303,-5.947197,-0.031309,0.013323,0.008527
11116,-4.752491,2.032677,-5.920861,-0.027312,0.017986,0.001865
11131,-4.548983,1.975216,-5.851429,-0.019985,-0.000799,0.001599
11146,-4.592079,1.956063,-5.949591,-0.025447,0.013723,0.002265
11161,-4.642357,1.980005,-5.839458,-0.029844,0.007861,0.004663
11176,-4.730942,2.061408,-5.906496,-0.035306,0.011991,0.002665
11191,-4.568137,2.121263,-5.899313,-0.033708,0.002132,0.003730
11206,-4.625597,2.051831,-5.937620,-0.040769,0.014789,0.005196
11221,-4.726154,1.977611,-5.951985,-0.041568,0.013456,0.001732
11236,-4.668693,2.070984,-5.875371,-0.039170,0.018786,-0.001732
11251,-4.572925,2.166753,-5.973533,-0.033041,0.005995,-0.006662
11266,-4.604050,2.104503,-5.880159,-0.019718,0.004796,-0.008660
11281,-4.795586,1.965640,-5.892130,-0.016521,0.004397,-0.009859
11296,-4.697423,1.960851,-5.662287,-0.016654,0.007861,-0.007194
11311,-4.647145,1.929726,-5.837064,-0.017320,0.018519,-0.000933
11326,-4.709394,1.900996,-5.829881,-0.017320,0.020518,0.003198
11341,-4.790798,1.857901,-5.829881,-0.020384,0.019851,0.008394
11356,-4.661510,1.848324,-5.896919,-0.027979,0.026913,0.014256
11371,-4.623203,1.975216,-5.928043,-0.043833,0.035573,0.015188
11386,-4.498705,1.984793,-5.975927,-0.039037,0.020784,0.012657
11401,-4.702212,2.025495,-5.937620,-0.030910,0.023449,0.005329
11416,-4.675876,2.075773,-5.889736,-0.026913,0.019052,0.003331
11431,-4.553771,2.090138,-5.961562,-0.025714,0.021583,-0.002665
11446,-4.611232,2.047042,-5.930438,-0.024914,0.007328,0.001998
11461,-4.661510,1.958457,-5.918467,-0.026380,0.007594,0.001599
11476,-4.728548,1.972822,-5.920861,-0.031043,0.000000,0.005729
11491,-4.575319,2.008735,-5.856217,-0.033041,-0.004663,0.006129
11506,-4.625597,2.049437,-5.834670,-0.036905,0.005196,0.006795
11521,-4.680664,1.951274,-5.731719,-0.033041,0.005995,0.002265
11536,-4.819528,1.944092,-5.772420,-0.039703,0.027312,0.000533
11551,-4.697423,1.908179,-5.803545,-0.037038,0.010792,-0.000799
11566,-4.565742,1.867477,-5.978322,-0.041835,0.034640,-0.000133
11581,-4.771644,1.953669,-5.956774,-0.045165,0.019985,0.000000
11596,-4.649539,1.980005,-5.916072,-0.040369,0.014789,0.006129
11611,-4.690241,2.027889,-5.904101,-0.042501,0.024515,0.007061
11626,-4.556166,2.092532,-5.825093,-0.039303,0.004796,0.009726
11641,-4.644751,2.075773,-5.839458,-0.031709,0.017187,0.014256
11656,-4.671087,2.082955,-5.894525,-0.024248,0.010658,0.015855
11671,-4.520253,2.035071,-5.930438,-0.020784,0.005596,0.014123
11686,-4.560954,2.059013,-5.906496,-0.021583,0.007994,0.012391
11701,-4.594473,1.924938,-5.940014,-0.028112,-0.009859,0.008793
11716,-4.764462,1.963245,-5.906496,-0.038904,0.011058,0.007994
11731,-4.738125,2.006341,-5.803545,-0.039436,0.009726,0.005329
11746,-4.548983,1.956063,-5.937620,-0.035706,0.010658,0.003730
11761,-4.687847,2.003947,-5.904101,-0.039303,0.025980,-0.002665
11776,-4.742914,1.968034,-5.908890,-0.038371,-0.000933,-0.003864
11791,-4.687847,2.073379,-5.899313,-0.035440,0.012391,-0.005329
11806,-4.599261,2.027889,-5.844246,-0.035706,0.004663,-0.003331
11821,-4.620809,1.987187,-5.904101,-0.035306,0.017320,-0.002132
11836,-4.812346,2.109292,-5.863400,-0.030510,0.010792,0.000133
11851,-4.644751,2.078167,-5.753267,-0.025580,0.022116,0.000799
11866,-4.630386,2.023100,-5.916072,-0.027712,0.026247,0.010259
11881,-4.570531,1.984793,-5.858612,-0.029178,0.024515,0.011724
11896,-4.797980,2.070984,-5.851429,-0.029577,0.034640,0.015721
11911,-4.802769,1.975216,-5.880159,-0.014522,0.039170,0.016521
11926,-4.592079,1.960851,-5.894525,-0.035040,0.035706,0.013856
11941,-4.558560,2.008735,-6.014235,-0.036772,0.033708,0.015188
11956,-4.647145,1.929726,-5.997475,-0.031975,0.032642,0.012524
11971,-4.680664,1.912967,-5.968745,-0.031709,0.028511,0.007061
11986,-4.498705,2.011129,-5.896919,-0.029178,0.009193,0.006528
12001,-4.539406,1.939303,-5.920861,-0.029311,0.004530,0.006928
12016,-4.762067,1.999158,-5.884948,-0.031176,0.002665,0.005862
12031,-4.718971,2.039860,-5.808333,-0.027179,0.006528,0.007994
12046,-4.611232,2.073379,-5.959168,-0.028911,0.009859,0.008127
12061,-4.630386,2.111686,-5.899313,-0.027179,0.005862,0.007061
12076,-4.673481,2.066196,-5.870583,-0.025047,0.010259,0.001732
12091,-4.690241,2.109292,-5.880159,-0.025847,0.007861,0.001066
12106,-4.587290,2.097321,-5.940014,-0.027179,0.003997,0.000933
12121,-4.572925,1.951274,-5.980716,-0.028778,0.020917,-0.000133
12136,-4.730942,2.015918,-5.916072,-0.030910,0.001066,0.002265
12151,-4.673481,1.958457,-5.906496,-0.026913,0.014389,-0.001199
12166,-4.678270,2.001553,-5.925649,-0.025314,0.008926,-0.003597
12181,-4.520253,1.956063,-5.872977,-0.026380,0.003997,-0.001865
12196,-4.793192,1.948880,-5.954380,-0.032375,0.036639,0.000400
12211,-4.817134,1.963245,-5.892130,-0.030776,-0.019452,0.004530
12226,-4.390966,1.946486,-5.820304,-0.027179,0.019319,0.002931
12241,-4.831499,2.030283,-6.071695,-0.030910,0.043300,0.006395
12256,-4.534618,1.996764,-5.813122,-0.028112,-0.031576,0.008394
12271,-4.663905,2.001553,-5.906496,-0.033974,0.040502,0.007194
12286,-4.757279,2.068590,-5.944803,-0.031576,0.008260,0.006928
12301,-4.508282,2.094926,-5.822699,-0.036639,0.001066,0.006129
12316,-4.687847,2.070984,-5.942409,-0.034107,0.026247,0.006395
12331,-4.766856,2.001553,-5.719748,-0.027979,0.002398,0.006395
12346,-4.666299,2.032677,-5.899313,-0.031842,0.023715,0.002798
12361,-4.711789,1.963245,-5.827487,-0.036772,0.017320,0.001599
12376,-4.520253,2.025495,-5.853823,-0.034240,0.020118,0.000133
12391,-4.793192,1.927332,-5.853823,-0.031842,0.027312,0.000000
12406,-4.678270,1.896208,-5.839458,-0.029977,0.007994,0.001199
12421,-4.551377,1.972822,-5.942409,-0.037305,0.024781,0.002398
12436,-4.587290,2.015918,-5.863400,-0.033308,0.012391,0.001466
12451,-4.826711,1.965640,-5.925649,-0.032642,0.019452,0.005462
12466,-4.601655,1.968034,-5.772420,-0.032642,-0.001732,0.005462
12481,-4.647145,2.092532,-5.920861,-0.031576,0.053959,0.002798
12496,-4.687847,2.023100,-5.913678,-0.029311,-0.017187,0.006662
12511,-4.434062,2.044648,-5.786786,-0.033574,0.016787,0.007861
12526,-4.934450,2.068590,-5.987898,-0.029844,0.040236,0.005862
12541,-4.489128,2.070984,-5.801151,-0.025047,-0.027579,0.003198
12556,-4.766856,2.018312,-6.007052,-0.029044,0.045965,0.000799
12571,-4.747702,1.956063,-5.846641,-0.028112,0.000000,0.007861
12586,-4.462792,2.037466,-5.901707,-0.032242,0.009593,0.000933
12601,-4.817134,1.970428,-5.968745,-0.034374,0.027579,0.007328
12616,-4.647145,1.963245,-5.719748,-0.034773,0.001732,0.007994
12631,-4.704606,2.042254,-5.911284,-0.041835,0.049162,0.007328
12646,-4.527435,2.090138,-5.827487,-0.031309,-0.015055,0.003064
12661,-4.558560,2.037466,-5.803545,-0.024115,0.022116,0.001332
12676,-4.819528,1.939303,-5.973533,-0.023848,0.010525,0.001865
12691,-4.546589,1.905784,-5.846641,-0.025580,-0.016387,0.001998
12706,-4.649539,1.965640,-6.007052,-0.029977,0.023182,0.001066
12721,-4.642357,1.939303,-5.817910,-0.030243,-0.002265,0.002265
12736,-4.520253,1.970428,-5.762844,-0.025714,-0.003198,0.002132
12751,-4.680664,2.240973,-6.054936,-0.037571,0.082070,0.000133
12766,-5.250484,2.200271,-6.042965,-0.026779,0.001466,0.010658
12781,-3.885789,2.006341,-5.453991,-0.015455,-0.081271,0.005196
12796,-5.006276,2.044648,-6.145916,-0.035040,0.162942,-0.002132
12811,-4.944026,1.960851,-5.920861,-0.025181,-0.067548,0.013190
12826,-4.170699,2.106897,-5.765238,-0.025447,0.013989,0.004397
12841,-5.094861,2.023100,-6.002264,-0.025847,0.070746,0.004530
12856,-4.575319,1.867477,-5.765238,-0.022516,-0.046364,0.004263
12871,-4.668693,1.865083,-6.169858,-0.031043,0.068881,0.006928
12886,-4.762067,1.848324,-5.853823,-0.035440,-0.003597,0.009326
12901,-4.381389,2.102109,-5.899313,-0.038371,-0.001732,0.002665
12916,-4.929661,2.013524,-5.834670,-0.033841,0.048230,0.003864
12931,-4.606444,1.936909,-5.734113,-0.031443,-0.036905,0.006795
12946,-4.307169,2.224213,-5.827487,-0.033974,0.059421,0.002931
12961,-5.135562,2.193089,-6.054936,-0.027845,0.045432,0.004530
12976,-4.285621,2.020706,-5.607220,-0.018119,-0.079273,0.006262
12991,-4.680664,1.929726,-5.880159,-0.024781,0.082603,0.001466
13006,-4.797980,1.944092,-5.846641,-0.022649,-0.009459,0.005462
13021,-4.381389,2.049437,-5.765238,-0.027845,0.000933,0.005329
13036,-4.714183,1.891419,-5.882554,-0.021983,0.036772,0.003064
13051,-4.759673,1.922544,-5.801151,-0.022783,0.004130,-0.001199
13066,-4.661510,1.879448,-5.798757,-0.025181,0.021317,0.005862
13081,-4.666299,1.987187,-5.894525,-0.023049,0.018519,0.007194
13096,-4.501099,1.908179,-5.817910,-0.022916,0.006528,0.011058
13111,-4.824317,1.879448,-5.908890,-0.037305,0.033841,0.012124
13126,-4.654328,2.020706,-5.743690,-0.038504,-0.000799,0.012391
13141,-4.529830,2.102109,-5.827487,-0.035173,0.019585,0.009060
13156,-4.659116,2.080561,-6.033388,-0.036372,0.031043,0.003597
13171,-4.618415,2.011129,-5.906496,-0.033041,-0.005995,0.002798
13186,-4.649539,2.056619,-5.940014,-0.033974,0.033041,0.001466
13201,-4.611232,2.006341,-5.901707,-0.032508,0.010525,0.003464
13216,-4.580108,2.006341,-5.896919,-0.039170,0.005596,0.005063
13231,-4.740520,2.011129,-5.858612,-0.036639,0.024381,0.002798
13246,-4.697423,2.061408,-5.844246,-0.027845,0.013323,0.005196
13261,-4.642357,1.999158,-5.870583,-0.031709,0.016654,0.006662
13276,-4.644751,1.975216,-5.904101,-0.028778,0.021850,0.005329
13291,-4.750096,1.960851,-5.882554,-0.030110,0.025047,0.005329
13306,-4.656722,1.980005,-5.865794,-0.033175,0.016254,0.006928
13321,-4.601655,1.960851,-5.925649,-0.035040,0.025980,0.003864
13336,-4.616021,1.999158,-5.844246,-0.039303,0.024648,0.004263
13351,-4.656722,2.030283,-5.877765,-0.039570,0.011058,0.001998
13366,-4.659116,1.975216,-5.870583,-0.031709,0.022916,0.005196
13381,-4.656722,2.032677,-5.949591,-0.031443,0.013989,0.002531
13396,-4.513070,2.068590,-5.858612,-0.027845,-0.002531,0.008127
13411,-4.642357,2.090138,-5.889736,-0.028511,0.010525,0.007461
13426,-4.716577,1.982399,-5.863400,-0.025314,0.003064,0.004397
13441,-4.687847,2.082955,-5.899313,-0.026247,0.009060,0.008926
13456,-4.627992,2.006341,-5.779603,-0.027979,0.016787,0.007994
13471,-4.714183,1.936909,-5.872977,-0.027712,0.007994,0.011724
13486,-4.747702,1.991976,-5.896919,-0.032508,0.013856,0.014389
13501,-4.654328,1.951274,-5.884948,-0.031443,0.020251,0.010525
13516,-4.587290,1.944092,-5.882554,-0.025181,0.017587,0.010658
13531,-4.651934,1.936909,-5.930438,-0.028645,0.008793,0.011991
13546,-4.644751,2.059013,-5.841852,-0.021583,0.012790,0.010658
13561,-4.709394,2.018312,-5.837064,-0.017587,0.019452,0.007994
13576,-4.613626,2.109292,-5.906496,0.000933,0.017187,0.008660
13591,-4.599261,2.001553,-5.791574,0.000000,0.017587,0.004263
13606,-4.793192,1.980005,-5.942409,-0.024115,0.038637,0.007861
13621,-4.666299,1.996764,-5.853823,-0.030243,0.005729,0.010259
13636,-4.508282,1.980005,-5.961562,-0.033175,0.027312,0.012257
13651,-4.738125,2.082955,-5.882554,-0.030910,0.029711,0.015721
13666,-4.687847,2.011129,-5.872977,-0.031043,0.014789,0.013057
13681,-4.663905,2.032677,-5.856217,-0.030377,0.037704,0.014522
13696,-4.589684,2.006341,-5.899313,-0.024781,0.015988,0.009326
13711,-4.592079,1.996764,-5.923255,-0.024781,0.028645,0.008793
13726,-4.687847,1.953669,-5.813122,-0.023449,0.020118,0.012657
13741,-4.683058,2.018312,-5.863400,-0.022116,0.031709,0.010525
13756,-4.620809,1.965640,-5.889736,-0.019452,0.021450,0.011191
13771,-4.522647,1.944092,-5.920861,-0.018119,0.031309,0.005729
13786,-4.819528,1.905784,-5.851429,-0.037305,0.043700,0.006262
13801,-4.680664,2.023100,-5.834670,-0.035440,0.013989,0.009326
13816,-4.596867,2.051831,-5.999869,-0.035173,0.030910,0.010392
13831,-4.537012,2.075773,-5.949591,-0.033441,0.015055,0.013723
13846,-4.671087,1.972822,-6.021417,-0.033308,0.019319,0.009060
13861,-4.680664,1.951274,-5.815516,-0.037038,0.004663,0.011724
13876,-4.580108,2.123657,-5.942409,-0.041035,0.020784,0.009193
13891,-4.582502,2.087744,-5.793968,-0.032109,0.013590,0.007594
13906,-4.668693,2.006341,-5.937620,-0.032775,0.020251,0.007194
13921,-4.707000,2.018312,-5.863400,-0.029844,0.006395,0.004130
13936,-4.560954,1.996764,-5.961562,-0.036772,0.027712,0.005462
13951,-4.620809,1.951274,-5.913678,-0.035040,0.018253,0.006662
13966,-4.604050,1.939303,-5.884948,-0.041302,0.024115,0.005329
13981,-4.723760,2.056619,-5.882554,-0.045565,0.027579,0.000666
13996,-4.560954,2.049437,-5.894525,-0.041835,0.017587,0.001998
14011,-4.594473,2.059013,-5.899313,-0.035440,0.037438,0.004796
14026,-4.714183,2.090138,-5.980716,-0.011058,0.017720,0.002665
14041,-4.651934,1.848324,-5.853823,-0.035706,0.013456,0.003198
14056,-4.616021,2.056619,-5.925649,-0.043700,0.039436,0.006528
14071,-4.592079,2.051831,-5.968745,-0.041035,0.027979,0.007328
14086,-4.539406,2.080561,-5.997475,-0.034240,0.028511,0.007861
14101,-4.651934,1.977611,-6.004658,-0.035573,0.024515,0.002398
14116,-4.587290,2.061408,-5.959168,-0.032109,0.018519,0.001732
14131,-4.568137,2.020706,-5.999869,-0.029577,0.017054,-0.000666
14146,-4.539406,2.030283,-5.956774,-0.025980,0.010259,0.001066
14161,-4.668693,2.037466,-5.966351,-0.017986,0.014389,0.001066
14176,-4.644751,1.886631,-5.880159,-0.026646,-0.001332,0.006528
14191,-4.503493,1.984793,-5.839458,-0.032242,0.020384,0.012524
14206,-4.671087,2.075773,-5.863400,-0.031176,0.008394,0.013057
14221,-4.659116,2.013524,-5.906496,-0.030510,0.005196,0.014655
14236,-4.635174,2.023100,-5.796362,-0.027179,0.023449,0.006129
14251,-4.630386,2.070984,-5.880159,-0.028112,0.015455,0.009593
14266,-4.539406,2.054225,-5.858612,-0.033841,0.016387,0.004263
14281,-4.730942,2.070984,-5.887342,-0.033574,0.026779,0.004930
14296,-4.673481,2.001553,-5.887342,-0.035706,0.018119,0.005862
14311,-4.527435,2.025495,-5.968745,-0.034907,0.027579,0.010259
14326,-4.570531,2.042254,-5.978322,-0.039703,0.025980,0.010658
14341,-4.659116,1.984793,-5.999869,-0.037305,0.016787,0.010525
14356,-4.654328,1.951274,-5.918467,-0.039170,0.020651,0.009326
14371,-4.606444,2.001553,-5.954380,-0.031975,0.010126,0.010658
14386,-4.453215,2.056619,-5.904101,-0.030643,0.013856,0.009726
14401,-4.625597,2.013524,-5.906496,-0.026380,0.009459,0.007328
14416,-4.666299,1.999158,-5.841852,-0.027579,0.000933,0.008260
14431,-4.546589,2.061408,-5.963956,-0.031576,0.009060,0.008527
14446,-4.525041,2.130840,-5.841852,-0.037438,0.007061,0.003597
14461,-4.577713,2.039860,-5.861006,-0.037438,0.000933,0.003864
14476,-4.728548,2.082955,-5.947197,-0.035173,0.008793,0.002398
14491,-4.577713,2.056619,-5.916072,-0.031576,0.006528,-0.000533
14506,-4.496311,2.073379,-5.966351,-0.033308,0.011858,-0.000266
14521,-4.649539,2.063802,-5.930438,-0.032242,0.013323,0.000933
14536,-4.697423,1.980005,-5.861006,-0.033441,0.019319,0.000000
14551,-4.695029,2.025495,-5.913678,-0.035706,0.023449,0.001599
14566,-4.575319,2.063802,-5.916072,-0.033841,0.020251,0.003597
14581,-4.592079,1.910573,-5.968745,-0.037971,0.020917,0.005063
14596,-4.668693,1.939303,-5.987898,-0.039969,0.025314,0.007461
14611,-4.601655,2.032677,-5.870583,-0.038104,0.016920,0.004663
14626,-4.496311,2.008735,-5.911284,-0.032109,0.017320,0.005729
14641,-4.649539,2.015918,-5.920861,-0.030110,0.018386,0.003464
14656,-4.644751,1.944092,-5.908890,-0.031842,0.012391,0.004263
14671,-4.596867,2.037466,-6.035782,-0.037971,0.020651,0.009459
14686,-4.551377,2.061408,-5.918467,-0.034907,0.012257,0.005329
14701,-4.594473,2.042254,-5.906496,-0.038904,0.018652,0.005063
14716,-4.671087,1.989582,-5.827487,-0.040236,0.015322,0.009326
14731,-4.675876,2.104503,-5.911284,-0.034507,0.018119,0.007861
14746,-4.529830,2.121263,-5.861006,-0.031709,0.014922,0.006662
14761,-4.630386,2.092532,-5.966351,-0.033841,0.019718,0.004397
14776,-4.702212,1.994370,-5.834670,-0.033308,0.017054,0.004263
14791,-4.630386,1.999158,-5.844246,-0.032375,0.028245,0.002265
14806,-4.570531,2.118868,-6.035782,-0.030243,0.012124,0.004530
14821,-4.539406,1.936909,-5.908890,-0.028511,0.017986,0.003997
14836,-4.635174,1.927332,-5.889736,-0.033974,0.018652,0.006129
14851,-4.671087,2.075773,-5.870583,-0.035972,0.014389,0.009193
14866,-4.556166,2.130840,-5.942409,-0.030776,0.013323,0.005995
14881,-4.534618,2.080561,-5.973533,-0.028645,0.011058,0.004130
14896,-4.592079,1.934515,-5.851429,-0.032908,0.009326,0.005729
14911,-4.685452,2.051831,-5.923255,-0.031709,0.017720,0.002531
14926,-4.548983,2.078167,-5.935226,-0.027579,0.009060,0.003730
14941,-4.572925,2.135628,-5.872977,-0.029577,0.011458,0.001066
14956,-4.613626,2.006341,-5.906496,-0.029044,0.003864,0.003597
14971,-4.644751,2.042254,-5.930438,-0.032908,0.018253,0.002531
14986,-4.584896,2.063802,-5.853823,-0.035040,0.014922,0.000533
15001,-4.493917,2.092532,-5.944803,-0.030243,0.019585,0.000799
15016,-4.608838,2.001553,-5.901707,-0.032109,0.005862,-0.001332
15031,-4.601655,2.023100,-5.853823,-0.032375,0.017986,-0.007194
15046,-4.750096,2.068590,-5.932832,-0.028911,0.020384,-0.003864
15061,-4.477157,2.054225,-5.911284,-0.032242,0.013057,-0.000266
15076,-4.630386,1.960851,-5.889736,-0.032908,0.031309,0.001199
15091,-4.711789,1.991976,-6.004658,-0.027579,0.013723,0.003331
15106,-4.577713,2.011129,-5.887342,-0.030243,0.011191,0.007061
15121,-4.484340,2.070984,-5.880159,-0.034374,0.020651,0.010658
15136,-4.618415,2.037466,-5.913678,-0.031576,0.013190,0.009326
15151,-4.673481,1.994370,-5.851429,-0.031975,0.014789,0.006395
15166,-4.632780,2.056619,-5.935226,-0.031309,0.018386,0.006795
15181,-4.527435,2.080561,-5.863400,-0.027712,-0.000133,0.006928
15196,-4.551377,2.015918,-5.884948,-0.031709,0.018119,0.005462
15211,-4.685452,2.018312,-5.935226,-0.031576,0.018386,0.005462
15226,-4.678270,2.032677,-5.947197,-0.030510,0.008527,0.003331
15241,-4.577713,2.082955,-5.882554,-0.036772,0.024781,0.003864
15256,-4.513070,2.035071,-5.889736,-0.029178,0.011724,0.004530
15271,-4.625597,2.047042,-5.920861,-0.027845,0.016121,0.000533
15286,-4.625597,1.929726,-5.837064,-0.032109,0.017453,0.001865
15301,-4.532224,2.102109,-5.894525,-0.035440,0.018519,0.002398
15316,-4.560954,2.025495,-5.940014,-0.032908,0.007194,0.002265
15331,-4.678270,2.063802,-5.968745,-0.028911,0.017853,0.005995
15346,-4.699818,1.958457,-5.923255,-0.031709,0.015188,0.005995
15361,-4.515464,2.116474,-5.947197,-0.035706,0.010658,0.007328
15376,-4.565742,2.082955,-5.925649,-0.033708,0.017054,0.001732
15391,-4.659116,2.008735,-5.892130,-0.027179,0.010658,-0.000400
15406,-4.663905,1.984793,-5.985504,-0.032242,0.017054,0.003064
15421,-4.568137,2.094926,-5.954380,-0.035173,0.014389,0.000266
15436,-4.556166,2.061408,-5.875371,-0.031576,0.018652,-0.000666
15451,-4.659116,2.013524,-5.951985,-0.026513,0.009459,-0.002265
15466,-4.707000,1.982399,-6.016629,-0.026779,0.019718,-0.006129
15481,-4.608838,2.056619,-5.942409,-0.026247,0.010658,-0.001066
15496,-4.446033,2.001553,-5.851429,-0.029444,0.011325,-0.001732
15511,-4.654328,2.030283,-5.930438,-0.029311,0.021583,0.000666
15526,-4.616021,1.996764,-5.911284,-0.030110,0.002398,0.004130
15541,-4.537012,2.073379,-5.985504,-0.029711,0.010658,0.002398
15556,-4.570531,2.097321,-5.975927,-0.032908,0.008793,0.000000
15571,-4.599261,2.051831,-5.856217,-0.033041,-0.009326,-0.003064
15586,-4.695029,2.059013,-5.916072,-0.028778,0.015455,-0.000933
15601,-4.656722,2.092532,-5.959168,-0.027312,0.010792,0.000400
15616,-4.467580,2.001553,-5.884948,-0.021184,-0.004663,0.001865
15631,-4.584896,1.987187,-5.863400,-0.025580,0.022783,0.005196
15646,-4.707000,1.987187,-6.040571,-0.033441,0.013856,0.008127
15661,-4.673481,1.968034,-5.834670,-0.031842,0.011191,0.010259
15676,-4.546589,2.013524,-5.954380,-0.034107,0.025181,0.012257
15691,-4.601655,2.015918,-5.920861,-0.033974,0.009060,0.008127
15706,-4.601655,2.015918,-5.971139,-0.031709,0.017720,0.006129
15721,-4.647145,1.946486,-5.947197,-0.031709,0.021850,0.004796
15736,-4.479551,2.080561,-5.880159,-0.028911,0.001865,0.003331
15751,-4.618415,2.006341,-5.963956,-0.034640,0.027979,0.003464
15766,-4.747702,1.989582,-5.978322,-0.038104,0.017054,0.004930
15781,-4.572925,2.073379,-5.849035,-0.031176,-0.003064,0.003730
15796,-4.537012,2.099715,-5.813122,-0.027312,0.034773,0.005063
15811,-4.637568,2.054225,-5.959168,-0.037838,0.014123,0.002931
15826,-4.491522,2.090138,-5.961562,-0.030910,0.001199,0.001466
15841,-4.853047,2.011129,-5.930438,-0.027312,0.030243,0.004930
15856,-4.501099,2.027889,-5.920861,-0.028511,-0.006662,0.004130
15871,-4.572925,2.099715,-5.832275,-0.036905,0.035706,0.006795
15886,-4.730942,2.051831,-5.947197,-0.027046,0.003997,0.002398
15901,-4.608838,1.999158,-5.884948,-0.030510,0.010525,0.004663
15916,-4.687847,1.953669,-5.908890,-0.033708,0.030110,0.003464
15931,-4.546589,2.049437,-5.930438,-0.036905,0.007194,0.003198
15946,-4.541800,1.994370,-5.889736,-0.029444,0.025580,0.001066
15961,-4.766856,1.996764,-5.911284,-0.026113,0.008660,0.000666
15976,-4.520253,1.946486,-5.896919,-0.030776,0.005196,0.001199
15991,-4.604050,2.087744,-5.928043,-0.033441,0.027179,0.000133
16006,-4.611232,2.049437,-5.954380,-0.030776,0.005729,0.001599
16021,-4.580108,2.042254,-5.882554,-0.038104,0.027179,0.000933
16036,-4.661510,2.073379,-5.846641,-0.033708,0.020651,0.001998
16051,-4.541800,2.087744,-5.901707,-0.034773,0.008127,0.004530
16066,-4.575319,2.027889,-5.904101,-0.031043,0.017054,-0.000266
16081,-4.683058,1.989582,-5.968745,-0.032775,0.012257,0.000799
16096,-4.582502,2.030283,-5.906496,-0.029577,0.014256,0.000799
16111,-4.498705,2.075773,-6.014235,-0.030243,0.008926,-0.001066
16126,-4.632780,2.020706,-5.928043,-0.029577,0.015322,-0.000533
16141,-4.659116,1.960851,-5.875371,-0.033574,0.007194,0.000266
16156,-4.606444,2.032677,-5.899313,-0.036372,0.018119,-0.000266
16171,-4.606444,2.027889,-5.896919,-0.036772,0.017054,0.002132
16186,-4.563348,2.085350,-5.901707,-0.033974,0.016387,0.003997
16201,-4.690241,2.020706,-5.918467,-0.033308,0.019718,0.003730
16216,-4.618415,2.015918,-5.928043,-0.032908,0.011858,0.002398
16231,-4.477157,2.104503,-5.983110,-0.030243,0.015322,0.004930
16246,-4.544195,2.059013,-6.014235,-0.022116,0.007194,0.001998
16261,-4.690241,2.008735,-5.930438,-0.025314,0.007727,0.001998
16276,-4.407725,1.963245,-5.825093,-0.035972,0.002665,0.000799
16291,-4.711789,1.953669,-5.911284,-0.032109,0.012657,0.000666
16306,-4.685452,1.984793,-5.803545,-0.034773,0.001998,-0.000933
16321,-4.620809,1.989582,-5.884948,-0.035972,0.034773,-0.001599
16336,-4.525041,2.054225,-5.935226,-0.038104,0.015721,0.000133
16351,-4.558560,2.070984,-5.880159,-0.041035,0.020917,0.002265
16366,-4.726154,2.066196,-5.858612,-0.032775,0.017453,0.001332
16381,-4.556166,2.195483,-5.887342,-0.029577,-0.003864,0.003064
16396,-4.517859,2.219425,-5.956774,-0.025980,0.018519,0.003730
16411,-4.625597,2.157176,-5.954380,-0.021850,0.003198,0.001732
16426,-4.687847,2.054225,-5.901707,-0.017986,0.008793,0.001599
16441,-4.687847,2.039860,-5.853823,-0.019319,0.012657,0.002798
16456,-4.529830,2.008735,-5.822699,-0.022783,0.005462,0.005063
16471,-4.551377,1.944092,-5.911284,-0.025847,0.015855,0.000933
16486,-4.757279,1.924938,-5.916072,-0.030776,0.017320,0.004930
16501,-4.690241,2.008735,-5.942409,-0.032775,0.008660,0.006928
16516,-4.575319,2.003947,-5.896919,-0.033841,0.018919,0.005329
16531,-4.668693,1.965640,-5.877765,-0.033708,0.008394,0.003464
16546,-4.611232,1.980005,-5.841852,-0.035573,0.006528,0.000000
16561,-4.733336,2.042254,-5.882554,-0.031842,0.014123,0.002265
16576,-4.508282,2.013524,-5.837064,-0.032242,0.000400,-0.001865
16591,-4.553771,2.109292,-5.916072,-0.034507,0.018786,0.001066
16606,-4.568137,1.975216,-5.856217,-0.032908,0.006528,0.004263
16621,-4.745308,2.116474,-5.913678,-0.031576,0.027845,0.007194
16636,-4.539406,2.121263,-5.837064,-0.024914,-0.009593,0.006795
16651,-4.546589,2.133234,-5.932832,-0.032375,0.025847,0.007328
16666,-4.728548,2.087744,-5.899313,-0.025980,-0.001732,0.006795
16681,-4.568137,2.011129,-5.789180,-0.026913,0.005729,0.003331
16696,-4.771644,2.082955,-5.846641,-0.029444,0.023449,-0.000799
16711,-4.467580,1.991976,-5.798757,-0.029044,-0.007194,0.001865
16726,-4.661510,1.939303,-5.947197,-0.031309,0.034374,0.003864
16741,-4.786009,1.865083,-5.937620,-0.028378,0.008260,0.002398
16756,-4.572925,1.948880,-5.968745,-0.029844,0.010792,-0.000266
16771,-4.627992,1.910573,-5.954380,-0.031709,0.025580,-0.001466
16786,-4.659116,1.936909,-5.870583,-0.030110,0.004397,0.006262
16801,-4.632780,2.018312,-5.853823,-0.032908,0.015721,0.004263
16816,-4.618415,2.102109,-5.841852,-0.032109,0.028778,0.005329
16831,-4.541800,2.102109,-5.875371,-0.029178,0.001599,0.005596
16846,-4.537012,2.097321,-5.825093,-0.031309,0.021450,0.003730
16861,-4.728548,2.106897,-5.920861,-0.029711,0.018386,0.005462
16876,-4.498705,2.118868,-5.822699,-0.031309,-0.001199,0.006262
16891,-4.613626,2.102109,-5.949591,-0.025447,0.029178,0.004530
16906,-4.611232,2.011129,-5.815516,-0.029311,0.005063,0.005729
16921,-4.675876,1.956063,-5.865794,-0.035706,0.022516,0.000133
16936,-4.707000,2.001553,-5.937620,-0.029711,0.014123,-0.000133
16951,-4.496311,1.989582,-5.841852,-0.029311,0.012391,0.003064
16966,-4.639963,1.932121,-5.983110,-0.030910,0.022250,-0.000799
16981,-4.707000,1.896208,-5.880159,-0.033041,0.005862,0.002132
16996,-4.668693,1.956063,-5.959168,-0.034107,0.009859,0.002798
17011,-4.606444,1.968034,-5.987898,-0.032242,0.021850,0.004663
17026,-4.644751,1.984793,-5.920861,-0.030377,0.013057,0.004930
17041,-4.649539,1.944092,-5.889736,-0.035972,0.021583,0.003730
17056,-4.673481,2.018312,-5.906496,-0.038237,0.025181,0.001199
17071,-4.541800,2.121263,-5.901707,-0.038637,0.021051,0.001599
17086,-4.582502,2.126051,-5.834670,-0.039037,0.017187,0.003064
17101,-4.589684,2.185906,-5.887342,-0.032908,0.012124,0.002665
17116,-4.678270,2.118868,-5.856217,-0.033574,0.014922,0.006662
17131,-4.589684,2.123657,-5.882554,-0.029044,0.012657,0.004530
17146,-4.558560,2.128445,-5.983110,-0.025847,0.009193,0.005329
17161,-4.668693,1.965640,-5.829881,-0.026779,0.011724,0.003597
17176,-4.733336,2.047042,-5.882554,-0.024914,0.003198,0.002665
17191,-4.651934,1.850718,-5.892130,-0.026779,0.013456,-0.000666
17206,-4.623203,1.934515,-5.908890,-0.034640,0.024648,0.000266
17221,-4.745308,1.867477,-5.959168,-0.040902,0.014922,-0.001998
17236,-4.730942,1.877054,-5.858612,-0.037305,0.021184,0.001066
17251,-4.649539,1.939303,-5.935226,-0.038371,0.025447,-0.003198
17266,-4.532224,1.996764,-5.901707,-0.035706,0.010259,-0.003331
17281,-4.582502,2.027889,-5.796362,-0.044499,0.024381,0.001332
17296,-4.716577,2.109292,-5.825093,-0.045299,0.016920,0.004397
17311,-4.548983,2.178724,-5.805939,-0.037571,0.007328,0.005596
17326,-4.436456,2.262521,-5.954380,-0.035040,0.027579,0.005063
17341,-4.728548,2.154782,-5.880159,-0.027979,0.004130,0.005462
17356,-4.582502,2.152387,-5.894525,-0.026913,0.013190,0.003730
17371,-4.829105,2.032677,-6.028600,-0.026513,0.031576,0.002798
17386,-4.496311,2.042254,-5.820304,-0.027579,-0.001066,0.001998
17401,-4.635174,1.958457,-6.021417,-0.027179,0.023715,0.002132
17416,-4.728548,1.948880,-5.920861,-0.030110,0.008793,-0.000933
17431,-4.649539,2.006341,-5.966351,-0.033841,0.016387,-0.000266
17446,-4.534618,1.884237,-5.997475,-0.030110,0.019185,0.001066
17461,-4.616021,1.970428,-5.966351,-0.034640,0.016920,0.003464
17476,-4.695029,1.927332,-5.868188,-0.037571,0.021184,0.001998
17491,-4.639963,2.066196,-5.911284,-0.042234,0.015721,0.006662
17506,-4.527435,2.123657,-5.884948,-0.037438,0.016654,0.007594
17521,-4.575319,2.061408,-5.947197,-0.043700,0.027312,0.005729
17536,-4.618415,2.178724,-5.880159,-0.039969,0.000799,0.011458
17551,-4.604050,2.185906,-5.899313,-0.037838,0.025181,0.005063
17566,-4.529830,2.248155,-6.004658,-0.034907,0.015322,0.009726
17581,-4.484340,2.145205,-5.904101,-0.031309,0.014789,0.004530
17596,-4.793192,2.061408,-5.932832,-0.025181,0.015588,0.003464
17611,-4.656722,2.044648,-5.894525,-0.021717,0.002265,0.003198
17626,-4.728548,2.001553,-6.019023,-0.024115,0.020917,0.001599
17641,-4.563348,1.881842,-5.870583,-0.031443,0.001466,0.000799
17656,-4.671087,1.879448,-5.995081,-0.036639,0.022649,0.001599
17671,-4.833893,1.912967,-5.834670,-0.031443,0.012391,0.000400
17686,-4.611232,1.946486,-5.846641,-0.033441,0.009459,-0.002798
17701,-4.570531,1.924938,-5.837064,-0.039170,0.016121,0.000666
17716,-4.709394,2.070984,-5.877765,-0.036772,0.011325,0.004663
17731,-4.661510,2.121263,-5.839458,-0.037172,0.015322,0.007861
17746,-4.620809,2.245761,-5.966351,-0.031176,0.017720,0.008527
17761,-4.539406,2.217031,-5.810728,-0.026779,0.010792,0.008260
17776,-4.620809,2.152387,-6.009446,-0.026646,0.017187,0.008394
17791,-4.596867,2.078167,-5.916072,-0.025181,0.012657,0.010525
17806,-4.606444,2.094926,-5.963956,-0.024648,0.009326,0.007061
17821,-4.616021,2.032677,-5.942409,-0.028511,0.013590,0.005462
17836,-4.623203,2.006341,-5.913678,-0.020651,0.009193,0.004530
17851,-4.735731,1.836353,-5.882554,-0.026113,0.020118,0.000933
17866,-4.707000,1.869871,-5.892130,-0.030910,0.020518,0.000533
17881,-4.594473,1.855506,-5.978322,-0.037838,0.019985,0.001066
17896,-4.623203,1.896208,-5.932832,-0.042234,0.031975,0.001732
17911,-4.750096,2.001553,-5.944803,-0.042101,0.019185,0.005995
17926,-4.539406,2.025495,-5.791574,-0.039703,0.018119,0.003997
17941,-4.659116,2.224213,-5.942409,-0.039037,0.035972,0.002798
17956,-4.469975,2.212242,-5.798757,-0.032908,0.002132,0.005329
17971,-4.599261,2.207454,-5.987898,-0.027046,0.025047,0.007594
17986,-4.635174,2.183512,-5.877765,-0.025181,0.000533,0.007994
18001,-4.508282,2.209848,-5.829881,-0.023182,0.007461,0.007861
18016,-4.594473,2.025495,-5.894525,-0.021450,0.009459,0.001332
18031,-4.692635,1.951274,-5.954380,-0.021317,0.006395,0.003198
18046,-4.718971,1.905784,-5.956774,-0.024515,0.014389,0.000933
18061,-4.685452,1.908179,-5.916072,-0.026646,0.012790,0.001199
18076,-4.596867,1.881842,-5.973533,-0.032775,0.015322,0.003597
18091,-4.764462,1.826776,-5.908890,-0.029444,0.018119,0.006129
18106,-4.711789,1.865083,-5.805939,-0.031975,0.019985,0.005596
18121,-4.627992,2.020706,-5.875371,-0.033841,0.020917,0.009060
18136,-4.534618,1.975216,-5.942409,-0.039836,0.015322,0.009992
18151,-4.582502,2.102109,-5.908890,-0.040636,0.020518,0.007861
18166,-4.687847,2.145205,-5.820304,-0.034773,0.016521,0.003331
18181,-4.565742,2.185906,-5.877765,-0.034107,0.009859,0.000266
18196,-4.537012,2.159570,-5.911284,-0.034107,0.012657,0.000933
18211,-4.663905,2.082955,-5.870583,-0.030643,0.012124,0.000133
18226,-4.639963,2.030283,-5.961562,-0.029444,0.007861,0.001732
18241,-4.627992,1.951274,-5.870583,-0.031975,0.017320,0.000000
18256,-4.616021,1.982399,-5.865794,-0.033574,0.015588,0.003730
18271,-4.654328,1.889025,-5.987898,-0.032375,0.016787,0.000666
18286,-4.752491,1.790863,-5.899313,-0.031576,0.022250,-0.002665
18301,-4.647145,1.948880,-5.839458,-0.030910,0.016654,0.001066
18316,-4.620809,1.941698,-5.839458,-0.025980,0.022383,0.001998
18331,-4.596867,1.972822,-5.918467,-0.028645,0.023982,0.006928
18346,-4.683058,1.891419,-6.009446,-0.035440,0.019851,0.011591
18361,-4.539406,2.042254,-5.920861,-0.046364,0.017986,0.017054
18376,-4.539406,2.212242,-5.935226,-0.041435,0.023182,0.010126
18391,-4.596867,2.209848,-5.880159,-0.030776,0.005729,0.006795
18406,-4.654328,2.133234,-5.906496,-0.035040,0.011858,0.004796
18421,-4.661510,2.152387,-5.899313,-0.032109,0.001732,0.004530
18436,-4.496311,2.111686,-5.875371,-0.029178,0.004530,0.003198
18451,-4.649539,2.044648,-5.961562,-0.023315,0.012391,0.003198
18466,-4.663905,1.953669,-5.880159,-0.017054,0.005729,0.003464
18481,-4.750096,1.965640,-5.856217,-0.023182,0.019052,0.003730
18496,-4.596867,1.944092,-5.868188,-0.030776,0.009726,0.002798
18511,-4.613626,1.953669,-5.956774,-0.035306,0.018786,0.006129
18526,-4.716577,1.896208,-5.899313,-0.033841,0.018386,0.001199
18541,-4.625597,1.920150,-5.880159,-0.032375,0.021983,0.000266
18556,-4.606444,1.984793,-5.877765,-0.032508,0.016254,0.002931
18571,-4.515464,2.073379,-5.973533,-0.034240,0.012923,0.005063
18586,-4.647145,2.044648,-5.906496,-0.036772,0.020251,0.002665
18601,-4.644751,2.171541,-5.884948,-0.031309,0.010259,0.002531
18616,-4.575319,2.145205,-5.849035,-0.033708,0.018519,0.002798
18631,-4.556166,2.116474,-5.949591,-0.032642,0.015188,0.003864
18646,-4.580108,2.111686,-5.963956,-0.031043,0.009326,0.005596
18661,-4.692635,2.161964,-5.923255,-0.024781,0.009326,0.004796
18676,-4.575319,2.075773,-5.963956,-0.023182,0.000400,0.001466
18691,-4.587290,1.970428,-5.987898,-0.025847,0.005063,0.000000
18706,-4.666299,1.872266,-5.882554,-0.025580,0.007061,0.001732
18721,-4.687847,1.819593,-5.947197,-0.024781,0.007461,0.001199
18736,-4.608838,1.891419,-5.889736,-0.024115,0.007461,-0.002665
18751,-4.587290,1.898602,-5.846641,-0.032242,0.009859,0.000000
18766,-4.673481,1.893813,-5.928043,-0.037038,0.016254,0.003730
18781,-4.625597,2.032677,-5.963956,-0.038371,0.013723,0.003997
18796,-4.642357,2.183512,-5.849035,-0.035173,0.016387,0.004130
18811,-4.587290,2.157176,-5.894525,-0.037438,0.016787,0.003864
18826,-4.639963,2.159570,-5.949591,-0.036372,0.015055,0.001998
18841,-4.726154,2.123657,-5.858612,-0.035440,0.016920,0.003864
18856,-4.601655,2.152387,-5.849035,-0.030110,0.011058,0.005729
18871,-4.560954,2.116474,-5.935226,-0.027312,0.015721,0.004263
18886,-4.599261,2.015918,-5.940014,-0.025181,0.013856,0.004930
18901,-4.750096,2.006341,-5.932832,-0.021717,0.006662,0.004930
18916,-4.637568,1.877054,-5.937620,-0.021583,0.014123,0.001599
18931,-4.651934,1.898602,-5.925649,-0.029577,0.013190,0.004663
18946,-4.630386,1.936909,-5.880159,-0.030510,0.005862,0.001332
18961,-4.764462,1.915361,-5.916072,-0.031043,0.017054,-0.000266
18976,-4.637568,1.958457,-5.899313,-0.030377,0.021983,-0.001732
18991,-4.632780,2.054225,-5.923255,-0.038770,0.022916,0.000400
19006,-4.479551,2.030283,-5.882554,-0.036639,0.006528,0.000666
19021,-4.695029,2.104503,-5.887342,-0.034773,0.038237,0.003464
19036,-4.608838,2.116474,-5.980716,-0.031842,-0.001332,0.006528
19051,-4.422091,2.164358,-5.822699,-0.033041,0.017187,0.004530
19066,-4.608838,2.149993,-5.841852,-0.031576,0.014789,0.005462
19081,-4.616021,2.157176,-5.896919,-0.024648,-0.000799,0.003597
19096,-4.644751,2.104503,-5.839458,-0.022916,0.017986,0.000666
19111,-4.649539,2.025495,-5.880159,-0.020384,-0.005063,0.001732
19126,-4.575319,1.977611,-5.901707,-0.024781,0.006928,0.001332
19141,-4.702212,1.896208,-5.841852,-0.026646,0.004263,0.002265
19156,-4.656722,1.893813,-5.882554,-0.024781,0.007727,0.003198
19171,-4.651934,1.833959,-5.992687,-0.024248,0.017054,0.004263
19186,-4.458004,1.944092,-5.803545,-0.041168,0.020651,0.018386
19201,-4.824317,1.951274,-5.942409,-0.028645,0.025447,0.010658
19216,-4.685452,1.659182,-6.098032,-0.036905,-0.032242,0.010525
19231,-4.627992,2.214637,-6.023811,-0.043034,0.036639,0.009593
19246,-4.627992,2.130840,-5.920861,-0.027712,0.004663,0.007061
19261,-4.537012,2.260126,-5.868188,-0.029711,0.015988,0.009060
19276,-4.790798,2.161964,-5.865794,-0.026113,0.023315,0.004263
19291,-4.584896,2.149993,-5.894525,-0.031709,0.013456,0.002665
19306,-4.517859,2.185906,-5.820304,-0.026513,0.023182,0.003331
19321,-4.580108,2.047042,-5.865794,-0.028778,0.022250,0.004530
19336,-4.769250,1.970428,-5.978322,-0.031043,0.032508,0.003464
19351,-4.711789,1.936909,-5.925649,-0.025047,0.020917,0.000666
19366,-4.548983,1.960851,-5.942409,-0.022916,0.034240,0.000000
19381,-4.683058,1.836353,-5.920861,-0.022250,0.020118,0.001466
19396,-4.692635,1.843535,-5.913678,-0.024515,0.027979,0.001332
19411,-4.697423,1.874660,-5.968745,-0.028778,0.019319,0.006528
19426,-4.503493,1.972822,-5.863400,-0.029711,0.023848,0.009726
19441,-4.587290,2.075773,-5.928043,-0.025714,0.035306,0.013057
19456,-4.831499,2.094926,-5.992687,-0.023315,-0.011191,0.017853
19471,-4.259285,2.056619,-5.825093,-0.032642,-0.003997,0.012257
19486,-4.754885,2.178724,-6.136339,-0.047697,0.068614,0.005196
19501,-4.522647,2.176329,-5.875371,-0.029977,-0.050761,0.003464
19516,-4.515464,2.114080,-5.851429,-0.031576,0.043700,-0.003464
19531,-4.833893,2.011129,-5.908890,-0.027446,0.002531,0.000400
19546,-4.371812,2.030283,-5.853823,-0.028645,-0.009726,0.004663
19561,-4.821922,2.073379,-5.949591,-0.029577,0.033708,0.001466
19576,-4.632780,1.946486,-5.841852,-0.025314,-0.024781,0.005196
19591,-4.733336,1.975216,-5.872977,-0.040502,0.053559,0.001066
19606,-4.656722,1.953669,-5.944803,-0.037038,-0.002265,0.004263
19621,-4.570531,2.039860,-5.851429,-0.038504,0.027446,-0.000533
19636,-4.838682,1.982399,-5.935226,-0.037438,0.042101,-0.001466
19651,-4.560954,1.984793,-5.973533,-0.038237,0.019851,0.000533
19666,-4.618415,2.015918,-5.880159,-0.038504,0.051161,0.002531
19681,-4.517859,2.025495,-5.925649,-0.034507,0.026380,0.002531
19696,-4.580108,2.008735,-6.014235,-0.035972,0.033175,0.007194
19711,-4.596867,2.087744,-5.904101,-0.031709,0.013590,0.011724
19726,-4.539406,2.145205,-5.889736,-0.025714,0.009060,0.013856
19741,-4.604050,2.035071,-5.925649,-0.022783,0.003331,0.017453
19756,-4.580108,2.020706,-5.951985,-0.022116,-0.007461,0.015322
19771,-4.675876,1.953669,-5.911284,-0.019052,0.001466,0.013190
19786,-4.671087,2.013524,-5.949591,-0.020118,-0.008527,0.008260
19801,-4.601655,1.960851,-5.827487,-0.026913,0.005196,0.001732
19816,-4.735731,1.958457,-5.911284,-0.033841,0.009859,0.001332
19831,-4.769250,1.960851,-5.858612,-0.039703,0.009193,0.000933
19846,-4.687847,2.061408,-5.841852,-0.044899,0.024515,0.001732
19861,-4.513070,2.075773,-5.918467,-0.043300,0.023182,0.002531
19876,-4.654328,2.128445,-5.853823,-0.045698,0.034240,0.002798
19891,-4.714183,2.092532,-5.940014,-0.039703,0.029977,0.003198
19906,-4.735731,2.147599,-5.947197,-0.036106,0.029577,0.003864
19921,-4.393360,2.106897,-5.849035,-0.024914,0.017054,0.003730
19936,-4.690241,2.104503,-5.999869,-0.031975,0.055291,0.000666
19951,-4.721365,1.984793,-6.026206,-0.026113,-0.009992,0.008127
19966,-4.472369,2.035071,-5.892130,-0.025580,0.019585,0.004796
19981,-4.821922,1.900996,-5.985504,-0.030377,0.020118,0.007461
19996,-4.592079,1.920150,-5.966351,-0.027446,-0.016654,0.008926
20011,-4.635174,1.982399,-5.942409,-0.027845,0.022516,0.000133
20026,-4.563348,1.927332,-5.872977,-0.029711,-0.003597,0.002531
20041,-4.618415,1.956063,-5.899313,-0.036639,0.008394,0.006262
20056,-4.735731,2.003947,-5.911284,-0.036239,0.009992,0.006928
20071,-4.517859,2.037466,-5.870583,-0.035972,-0.000400,0.005462
20086,-4.601655,2.116474,-5.877765,-0.036505,0.024914,0.004930
20101,-4.666299,2.123657,-5.920861,-0.031842,0.000133,0.005862
20116,-4.671087,2.114080,-5.861006,-0.031842,0.011058,0.003064
20131,-4.675876,2.164358,-5.947197,-0.031443,0.020118,0.005462
20146,-4.541800,2.140416,-5.856217,-0.030110,0.009593,-0.002531
20161,-4.680664,1.948880,-5.959168,-0.032508,0.024781,0.001466
20176,-4.649539,2.054225,-5.868188,-0.034107,0.021317,0.001466
20191,-4.704606,2.035071,-5.928043,-0.031043,0.026646,-0.002531
20206,-4.601655,1.975216,-5.949591,-0.025847,0.022916,-0.003464
20221,-4.560954,1.932121,-5.899313,-0.031443,0.024248,-0.001998
20236,-4.728548,1.941698,-5.937620,-0.027712,0.020118,0.000133
20251,-4.601655,1.996764,-5.968745,-0.026779,0.021051,0.002132
20266,-4.532224,1.991976,-5.887342,-0.025980,0.017587,0.006662
20281,-4.553771,1.996764,-5.932832,-0.026779,0.007994,0.009193
20296,-4.709394,1.977611,-5.889736,-0.028112,-0.001332,0.009726
20311,-4.647145,1.994370,-5.882554,-0.030110,0.000666,0.006795
20326,-4.520253,2.145205,-5.882554,-0.030643,-0.001998,0.007461
20341,-4.577713,2.138022,-5.937620,-0.030510,0.001865,0.007594
20356,-4.726154,2.068590,-5.951985,-0.040103,0.013456,0.001466
20371,-4.606444,2.104503,-5.784391,-0.035173,0.011325,0.001998
20386,-4.613626,2.092532,-5.913678,-0.031842,0.027312,-0.001998
20401,-4.587290,2.008735,-5.923255,-0.032375,0.021450,0.000000
20416,-4.675876,1.968034,-5.858612,-0.032642,0.025181,0.003730
20431,-4.759673,1.984793,-5.925649,-0.029711,0.023715,0.003198
20446,-4.558560,2.001553,-5.916072,-0.023449,0.022116,0.006395
20461,-4.551377,1.934515,-5.916072,-0.025047,0.030377,0.005596
20476,-4.671087,1.855506,-5.959168,-0.027979,0.010392,0.008926
20491,-4.663905,1.970428,-5.985504,-0.029311,0.009193,0.007861
20506,-4.582502,2.044648,-5.877765,-0.032775,0.006262,0.007061
20521,-4.448427,2.082955,-5.892130,-0.027446,-0.006262,0.001998
20536,-4.654328,2.047042,-5.913678,-0.027712,0.003864,0.002931
20551,-4.730942,2.068590,-5.956774,-0.027845,0.000933,0.001865
20566,-4.637568,2.178724,-5.894525,-0.032508,0.008127,0.004930
20581,-4.558560,2.188300,-5.834670,-0.025847,0.014789,0.004263
20596,-4.704606,2.061408,-6.023811,-0.023049,0.011724,0.004796
20611,-4.754885,1.987187,-5.899313,-0.023982,0.017853,0.007328
20626,-4.618415,1.977611,-5.904101,-0.025047,0.023049,0.006129
20641,-4.575319,2.035071,-5.987898,-0.018919,0.021717,0.009859
20656,-4.584896,1.898602,-5.911284,-0.018386,0.024781,0.006928
20671,-4.709394,1.872266,-5.925649,-0.023982,0.026113,0.010658
20686,-4.577713,1.946486,-5.944803,-0.032375,0.003331,0.012790
20701,-4.558560,1.970428,-5.925649,-0.039037,0.012657,0.011458
20716,-4.618415,2.027889,-5.899313,-0.040502,0.010925,0.008127
20731,-4.654328,2.102109,-5.892130,-0.033708,0.011724,0.003064
20746,-4.709394,2.121263,-5.913678,-0.036505,0.019585,-0.002398
20761,-4.539406,2.121263,-5.861006,-0.033041,0.012524,0.000000
20776,-4.616021,2.073379,-5.841852,-0.035040,0.020518,0.000533
20791,-4.680664,2.066196,-5.904101,-0.031576,0.023848,0.002931
20806,-4.649539,2.027889,-5.913678,-0.030377,0.019452,0.003864
20821,-4.546589,2.099715,-5.896919,-0.028911,0.021583,0.002132
20836,-4.592079,1.991976,-5.858612,-0.033041,0.027979,0.006262
20851,-4.707000,2.011129,-5.834670,-0.029977,0.030110,0.006262
20866,-4.644751,1.960851,-5.992687,-0.037172,0.024115,0.008394
20881,-4.503493,1.996764,-5.987898,-0.036106,0.019851,0.004663
20896,-4.529830,1.999158,-5.973533,-0.035173,0.018919,0.004530
20911,-4.649539,2.030283,-5.978322,-0.029577,0.005729,0.006262
20926,-4.659116,2.025495,-5.920861,-0.031309,0.011858,0.005995
20941,-4.632780,2.059013,-5.889736,-0.025980,0.004663,0.005729
20956,-4.539406,2.030283,-5.911284,-0.028378,0.014256,0.008527
20971,-4.625597,2.044648,-5.935226,-0.032109,0.009726,0.006395
20986,-4.678270,2.082955,-5.954380,-0.035306,0.020251,0.006129
21001,-4.570531,2.056619,-5.837064,-0.033708,0.017187,0.004663
21016,-4.558560,2.049437,-5.904101,-0.033041,0.015455,0.005596
21031,-4.663905,2.039860,-5.851429,-0.035173,0.018119,0.001066
21046,-4.663905,2.063802,-5.935226,-0.033441,0.020251,0.001732
21061,-4.642357,2.018312,-5.839458,-0.031709,0.019718,0.000000
21076,-4.541800,2.056619,-6.033388,-0.025447,0.024248,0.003464
21091,-4.644751,1.956063,-5.920861,-0.025447,0.013323,0.003864
21106,-4.721365,1.922544,-5.959168,-0.028911,0.016387,0.007194
21121,-4.584896,1.951274,-5.951985,-0.026380,0.003730,0.009326
21136,-4.558560,2.001553,-5.846641,-0.032508,0.014256,0.007861
21151,-4.683058,2.030283,-6.007052,-0.037172,0.017320,0.007861
21166,-4.711789,2.035071,-5.923255,-0.032642,0.014123,0.003331
21181,-4.594473,2.087744,-5.923255,-0.031043,0.023449,0.000933
21196,-4.525041,2.106897,-5.906496,-0.031309,0.016387,-0.001466
21211,-4.599261,2.047042,-5.987898,-0.029711,0.015721,0.000133
21226,-4.685452,2.051831,-5.865794,-0.027446,0.006395,-0.000266
21241,-4.611232,1.968034,-5.880159,-0.026646,0.005862,0.005329
21256,-4.627992,2.116474,-5.918467,-0.034107,0.017320,0.009060
21271,-4.575319,2.051831,-5.810728,-0.028511,0.002265,0.006662
21286,-4.723760,2.035071,-5.932832,-0.021583,0.017853,0.004530
21301,-4.675876,1.963245,-5.875371,-0.023848,0.010259,0.005196
21316,-4.503493,2.013524,-5.889736,-0.025314,0.012391,0.004796
21331,-4.627992,1.991976,-5.892130,-0.027845,0.017986,0.004796
21346,-4.656722,1.946486,-5.920861,-0.025714,0.012124,0.003997
21361,-4.673481,2.035071,-5.896919,-0.031176,0.017320,0.001865
21376,-4.493917,2.035071,-5.858612,-0.028778,0.007194,-0.000933
21391,-4.589684,2.116474,-5.928043,-0.032109,0.006662,0.000799
21406,-4.642357,2.059013,-5.884948,-0.031709,0.006928,-0.000799
21421,-4.647145,2.087744,-5.966351,-0.028112,0.013190,-0.001199
21436,-4.503493,2.094926,-5.877765,-0.027579,0.014789,-0.000266
21451,-4.560954,2.111686,-5.951985,-0.028911,0.014256,-0.000133
21466,-4.685452,1.951274,-5.951985,-0.029844,0.008793,0.003864
21481,-4.654328,1.968034,-5.875371,-0.031842,0.016654,0.002398
21496,-4.630386,1.972822,-5.928043,-0.033441,0.021051,0.002398
21511,-4.501099,2.027889,-6.023811,-0.032109,0.010525,0.003464
21526,-4.704606,1.972822,-6.009446,-0.026913,0.016121,-0.000266
21541,-4.704606,1.934515,-5.904101,-0.027312,0.006395,0.001332
21556,-4.582502,2.020706,-5.887342,-0.027845,0.005462,0.004663
21571,-4.592079,2.054225,-5.892130,-0.031576,0.017054,0.001066
21586,-4.592079,1.939303,-5.947197,-0.030643,0.010259,0.002798
21601,-4.730942,2.049437,-5.956774,-0.034640,0.017054,0.000799
21616,-4.584896,2.073379,-5.846641,-0.032375,0.010259,0.005729
21631,-4.599261,2.059013,-5.944803,-0.030776,0.005995,0.009593
21646,-4.596867,2.035071,-5.904101,-0.029444,0.015055,0.005063
21661,-4.738125,2.047042,-5.808333,-0.027046,0.010658,0.006662
21676,-4.663905,2.039860,-5.947197,-0.025447,0.007994,0.005995
21691,-4.596867,2.003947,-5.872977,-0.031576,0.019585,0.002798
21706,-4.647145,2.015918,-5.861006,-0.029178,0.007461,0.003597
21721,-4.721365,1.975216,-6.019023,-0.026247,0.016654,0.001066
21736,-4.680664,1.956063,-5.884948,-0.027446,0.013856,-0.000400
21751,-4.627992,1.987187,-5.837064,-0.028645,0.012257,0.001066
21766,-4.616021,1.958457,-5.877765,-0.034640,0.018919,0.004397
21781,-4.630386,2.008735,-5.851429,-0.032242,0.013057,0.000266
21796,-4.742914,2.030283,-5.877765,-0.032908,0.019185,0.003331
21811,-4.537012,2.042254,-5.899313,-0.034240,0.012524,0.002665
21826,-4.520253,2.066196,-5.932832,-0.031975,0.012657,0.000666
21841,-4.707000,2.020706,-5.916072,-0.030377,0.011191,-0.000933
21856,-4.651934,2.008735,-5.815516,-0.035839,0.011591,0.004397
21871,-4.544195,2.080561,-5.925649,-0.033708,0.016121,0.003864
21886,-4.570531,2.097321,-5.805939,-0.027579,0.002798,0.000400
21901,-4.685452,2.042254,-5.822699,-0.022383,0.013057,-0.001599
21916,-4.675876,1.984793,-5.959168,-0.022516,0.010792,0.006528
21931,-4.556166,2.003947,-5.937620,-0.026247,0.008260,0.006662
21946,-4.666299,1.956063,-5.901707,-0.026779,0.007461,0.004130
21961,-4.639963,1.936909,-5.940014,-0.032109,0.013057,0.008394
21976,-4.728548,2.006341,-5.983110,-0.033308,0.008394,0.001732
21991,-4.601655,2.059013,-5.937620,-0.031176,0.009326,0.001066
22006,-4.570531,2.054225,-5.899313,-0.030776,0.020784,-0.002931
22021,-4.671087,2.051831,-5.959168,-0.027312,0.010658,-0.000533
22036,-4.711789,2.027889,-5.971139,-0.028911,0.017853,0.001732
22051,-4.608838,2.035071,-5.801151,-0.027579,0.003198,0.005063
22066,-4.556166,2.087744,-5.916072,-0.033175,0.012657,0.003997
22081,-4.630386,2.087744,-5.851429,-0.033175,0.011058,0.006928
22096,-4.637568,2.020706,-5.846641,-0.028245,0.025447,0.004530
22111,-4.656722,2.027889,-5.870583,-0.030510,0.013456,0.004263
22126,-4.548983,2.059013,-5.892130,-0.031043,0.015455,0.005862
22141,-4.690241,1.946486,-5.956774,-0.032508,0.016254,0.004530
22156,-4.647145,1.977611,-5.889736,-0.035573,0.016387,0.004663
22171,-4.680664,1.975216,-5.935226,-0.031043,0.017187,0.002665
22186,-4.546589,1.980005,-5.865794,-0.033708,0.019185,0.004263
22201,-4.627992,1.975216,-5.908890,-0.037038,0.017587,0.006528
22216,-4.673481,2.025495,-5.853823,-0.033841,0.009459,0.001599
22231,-4.666299,2.013524,-5.889736,-0.035706,0.021583,0.005063
22246,-4.592079,2.140416,-5.956774,-0.037704,0.016121,0.006795
22261,-4.620809,2.118868,-5.880159,-0.030643,0.016654,0.006262
22276,-4.608838,2.061408,-5.920861,-0.031576,0.015322,0.007594
22291,-4.709394,2.035071,-5.949591,-0.033841,0.015588,0.009726
22306,-4.563348,2.111686,-5.925649,-0.031309,0.009060,0.005862
22321,-4.613626,2.027889,-5.829881,-0.028911,0.016254,0.004530
22336,-4.668693,1.982399,-5.930438,-0.026113,0.009593,0.003997
22351,-4.699818,2.001553,-5.963956,-0.030776,0.018386,0.003597
22366,-4.577713,1.991976,-5.920861,-0.030243,0.015188,0.002398
22381,-4.548983,2.013524,-5.863400,-0.031842,0.023848,0.001199
22396,-4.687847,1.977611,-5.913678,-0.032775,0.025314,0.003597
22411,-4.709394,1.975216,-5.884948,-0.035706,0.014789,0.004796
22426,-4.560954,2.061408,-5.963956,-0.035173,0.014389,0.003198
22441,-4.589684,2.039860,-5.892130,-0.033308,0.014789,0.004397
22456,-4.666299,2.013524,-5.920861,-0.032642,0.019052,0.005995
22471,-4.685452,2.094926,-5.846641,-0.028778,0.015988,0.004663
22486,-4.618415,2.018312,-5.880159,-0.024914,0.010658,0.001998
22501,-4.572925,2.001553,-5.887342,-0.030643,0.010392,0.005196
22516,-4.647145,2.023100,-5.918467,-0.028378,0.019585,0.004930
22531,-4.718971,1.999158,-5.920861,-0.029711,0.015988,0.003997
22546,-4.596867,2.020706,-5.942409,-0.035040,0.023049,0.002798
22561,-4.570531,2.094926,-5.951985,-0.034374,0.020917,0.002798
22576,-4.627992,1.996764,-5.971139,-0.035173,0.019851,0.000266
22591,-4.656722,1.982399,-5.839458,-0.040103,0.027312,0.000933
22606,-4.618415,2.015918,-5.920861,-0.037838,0.020784,0.000400
22621,-4.541800,2.070984,-5.906496,-0.036106,0.015455,0.000666
22636,-4.599261,1.996764,-5.951985,-0.034240,0.011991,0.000400
22651,-4.687847,2.063802,-5.901707,-0.031443,0.010126,0.000533
22666,-4.616021,2.090138,-5.937620,-0.032508,0.011724,0.000133
22681,-4.546589,2.097321,-5.793968,-0.031709,0.012657,0.000799
22696,-4.620809,2.054225,-5.916072,-0.033441,0.020917,0.006928
22711,-4.711789,2.001553,-5.894525,-0.033574,0.017587,0.009726
22726,-4.596867,2.044648,-5.861006,-0.033974,0.018919,0.008660
22741,-4.556166,2.044648,-5.851429,-0.026380,0.015455,0.007594
22756,-4.577713,2.015918,-5.916072,-0.023315,0.013323,0.006395
22771,-4.699818,1.980005,-5.935226,-0.021850,0.021717,0.008527
22786,-4.707000,1.984793,-5.889736,-0.016787,0.007461,0.004263
22801,-4.539406,2.013524,-5.896919,-0.018119,0.016121,0.009326
22816,-4.529830,1.908179,-6.009446,-0.031043,0.012923,0.011591
22831,-4.690241,1.941698,-5.968745,-0.044366,0.026247,0.007861
22846,-4.711789,2.123657,-5.925649,-0.039570,0.023449,0.003997
22861,-4.565742,2.147599,-6.002264,-0.029844,0.012524,-0.000799
22876,-4.551377,2.032677,-5.791574,-0.032642,0.020518,0.000000
22891,-4.728548,2.015918,-5.963956,-0.036239,0.024914,0.001865
22906,-4.601655,2.073379,-5.959168,-0.031443,0.006662,0.004663
22921,-4.575319,2.138022,-5.944803,-0.026513,0.019585,0.007727
22936,-4.560954,2.061408,-5.911284,-0.026113,0.002665,0.003864
22951,-4.690241,1.946486,-5.923255,-0.029711,0.016787,0.006395
22966,-4.671087,1.960851,-5.839458,-0.031709,0.010259,0.005729
22981,-4.632780,1.963245,-5.932832,-0.033708,0.018119,0.002931
22996,-4.515464,2.051831,-5.817910,-0.036239,0.020917,0.004530
23011,-4.680664,2.035071,-5.935226,-0.030243,0.014389,0.002265
23026,-4.766856,1.910573,-5.882554,-0.027312,0.022516,0.002265
23041,-4.589684,1.944092,-5.853823,-0.029444,0.009726,0.004397
23056,-4.618415,2.011129,-5.935226,-0.034773,0.020251,0.004930
23071,-4.620809,2.035071,-5.930438,-0.028911,0.011325,0.008527
23086,-4.649539,2.006341,-5.911284,-0.026113,0.023315,0.006129
23101,-4.594473,2.039860,-5.877765,-0.027179,0.012524,0.007727
23116,-4.489128,2.054225,-5.916072,-0.032242,0.012524,0.009326
23131,-4.639963,1.924938,-5.928043,-0.036905,0.013989,0.009726
23146,-4.599261,1.984793,-5.925649,-0.037971,0.014389,0.003864
23161,-4.560954,2.133234,-5.954380,-0.031176,0.013856,0.002931
23176,-4.560954,2.027889,-5.951985,-0.032375,0.015855,0.003997
23191,-4.592079,2.008735,-5.925649,-0.029844,0.020917,0.002398
23206,-4.651934,1.968034,-5.920861,-0.025980,0.015855,0.003864
23221,-4.714183,1.989582,-5.882554,-0.028645,0.021450,0.004930
23236,-4.481946,1.991976,-5.916072,-0.025980,0.011191,0.007061
23251,-4.601655,1.968034,-5.896919,-0.028112,0.025714,0.008127
23266,-4.728548,1.994370,-5.942409,-0.033974,0.016387,0.005329
23281,-4.592079,2.054225,-5.978322,-0.027579,0.020784,0.006129
23296,-4.604050,2.023100,-5.916072,-0.025181,0.022916,0.004796
23311,-4.508282,1.999158,-5.944803,-0.022783,-0.001599,0.004530
23326,-4.616021,1.924938,-5.942409,-0.025447,0.006795,0.002931
23341,-4.620809,2.003947,-5.841852,-0.034773,0.005063,0.004796
23356,-4.575319,2.099715,-5.894525,-0.046764,-0.006928,0.003064
23371,-4.611232,2.123657,-5.896919,-0.038104,0.012391,-0.002531
23386,-4.685452,1.991976,-5.884948,-0.027446,0.012257,-0.006262
23401,-4.687847,1.975216,-5.896919,-0.021583,0.014389,-0.007994
23416,-4.644751,2.023100,-5.837064,-0.023982,0.021717,-0.000799
23431,-4.575319,1.972822,-5.889736,-0.024515,0.015322,0.004130
23446,-4.654328,1.905784,-5.887342,-0.023315,0.012790,0.006129
23461,-4.738125,1.953669,-5.832275,-0.019851,0.014922,0.011325
23476,-4.594473,1.970428,-5.928043,-0.027446,0.003464,0.015588
23491,-4.570531,2.037466,-5.894525,-0.035706,0.022516,0.010792
23506,-4.630386,2.078167,-5.901707,-0.040103,0.008660,0.006262
23521,-4.668693,2.061408,-5.930438,-0.039836,0.019585,0.002132
23536,-4.630386,2.087744,-5.880159,-0.039037,0.012524,-0.001199
23551,-4.565742,2.056619,-5.837064,-0.035306,0.021184,-0.000799
23566,-4.627992,2.082955,-5.841852,-0.032642,0.023449,-0.002132
23581,-4.709394,1.956063,-5.889736,-0.030377,0.021450,0.001865
23596,-4.587290,2.015918,-5.942409,-0.024115,0.015721,0.003997
23611,-4.496311,2.023100,-5.858612,-0.021717,0.013723,0.005995
23626,-4.685452,1.972822,-5.942409,-0.020651,0.016121,0.010658
23641,-4.695029,1.987187,-5.959168,-0.020917,0.010126,0.010392
23656,-4.680664,1.960851,-5.935226,-0.022783,0.025047,0.012124
23671,-4.501099,1.984793,-5.942409,-0.034374,0.018519,0.010792
23686,-4.709394,1.975216,-5.892130,-0.042634,0.033041,0.008260
23701,-4.548983,2.075773,-5.901707,-0.040369,0.020384,0.002531
23716,-4.544195,2.128445,-5.870583,-0.031576,0.019452,-0.002265
23731,-4.625597,1.956063,-5.865794,-0.029977,0.013190,0.000400
23746,-4.687847,2.015918,-5.880159,-0.036239,0.018253,0.000666
23761,-4.627992,2.061408,-5.908890,-0.039436,0.011724,0.003730
23776,-4.501099,2.116474,-5.956774,-0.036372,0.015721,0.003331
23791,-4.683058,2.008735,-5.820304,-0.033041,0.018386,0.001998
23806,-4.678270,2.008735,-5.865794,-0.030643,0.015188,0.006928
23821,-4.635174,2.011129,-5.882554,-0.027712,0.016787,0.006795
23836,-4.532224,1.941698,-5.853823,-0.022383,0.011458,0.009726
23851,-4.663905,1.968034,-5.937620,-0.022783,0.026113,0.012124
23866,-4.699818,1.980005,-5.947197,-0.022383,0.012391,0.010925
23881,-4.637568,2.008735,-5.968745,-0.027579,0.029577,0.010925
23896,-4.551377,2.011129,-5.904101,-0.036372,0.014655,0.013590
23911,-4.498705,2.035071,-6.021417,-0.041968,0.022649,0.010658
23926,-4.671087,2.006341,-5.887342,-0.039037,0.017720,0.004397
23941,-4.517859,2.066196,-5.892130,-0.037838,0.013723,0.001066
23956,-4.599261,2.147599,-5.959168,-0.033841,0.026113,-0.001332
23971,-4.556166,1.984793,-5.932832,-0.034773,0.011058,-0.000799
23986,-4.644751,2.047042,-5.951985,-0.033041,0.029044,-0.001998
24001,-4.560954,2.075773,-6.066907,-0.030910,0.008793,0.001466
24016,-4.443638,2.118868,-5.923255,-0.030776,0.014789,0.001199
24031,-4.635174,2.023100,-6.009446,-0.031709,0.012524,0.002531
24046,-4.599261,1.987187,-6.007052,-0.027312,-0.000933,0.002398
24061,-4.695029,1.941698,-5.928043,-0.032242,0.005862,0.002931
24076,-4.577713,2.039860,-5.920861,-0.023982,0.001998,0.003597
24091,-4.616021,2.037466,-5.935226,-0.018386,0.006928,0.000000
24106,-4.673481,1.977611,-5.877765,-0.017587,0.003464,0.002665
24121,-4.687847,1.977611,-5.916072,-0.021450,0.013723,0.002132
24136,-4.508282,1.958457,-5.853823,-0.028511,0.003597,0.007594
24151,-4.584896,2.085350,-5.990293,-0.028378,0.015188,0.003064
24166,-4.678270,1.991976,-5.930438,-0.024115,0.006795,0.000133
24181,-4.661510,2.044648,-5.846641,-0.020651,0.008394,0.001732
24196,-4.632780,2.061408,-5.942409,-0.018386,0.008260,0.003730
24211,-4.553771,2.025495,-5.980716,-0.021983,0.000533,0.005596
24226,-4.594473,2.032677,-5.870583,-0.027579,0.016920,0.007994
24241,-4.668693,1.989582,-5.949591,-0.037305,0.006928,0.003864
24256,-4.553771,2.149993,-5.870583,-0.036905,0.005063,-0.001732
24271,-4.558560,2.006341,-5.872977,-0.031176,0.003597,-0.003730
24286,-4.733336,2.011129,-5.837064,-0.027979,0.010259,-0.002398
24301,-4.742914,1.927332,-5.858612,-0.025714,0.004397,-0.005462
24316,-4.568137,1.934515,-5.889736,-0.029977,0.015855,-0.002132
24331,-4.587290,1.975216,-5.935226,-0.032908,0.010792,0.005729
24346,-4.625597,1.970428,-5.884948,-0.034507,0.008793,0.003730
24361,-4.678270,1.965640,-5.920861,-0.030110,0.002132,0.002798
24376,-4.601655,2.035071,-5.916072,-0.028778,0.008527,0.002265
24391,-4.556166,2.027889,-5.995081,-0.033441,0.015988,0.003198
24406,-4.613626,2.018312,-5.889736,-0.029178,0.005596,0.000000
24421,-4.733336,2.011129,-5.971139,-0.034640,0.017453,0.004263
24436,-4.532224,2.106897,-5.820304,-0.027979,-0.003464,-0.000533
24451,-4.661510,2.111686,-5.956774,-0.030643,0.052626,-0.002132
24466,-4.750096,1.948880,-5.762844,-0.029577,-0.027979,0.001998
24481,-4.510676,1.984793,-5.829881,-0.034240,0.031043,-0.000799
24496,-5.037400,1.934515,-5.851429,-0.032242,0.006662,0.004530
24511,-4.134786,2.047042,-5.731719,-0.029711,-0.013323,0.001066
24526,-5.082890,1.953669,-6.107608,-0.035173,0.060620,0.003064
24541,-4.383783,1.893813,-5.722142,-0.023715,-0.053292,0.005862
24556,-4.915296,2.006341,-5.992687,-0.027712,0.052093,0.002798
24571,-4.378995,1.908179,-5.781997,-0.028245,-0.025714,0.003997
24586,-4.771644,2.063802,-6.133945,-0.039570,0.044233,0.004930
24601,-4.548983,1.999158,-5.810728,-0.034507,-0.022516,0.000400
24616,-4.874595,2.149993,-6.117185,-0.034240,0.044899,0.000133
24631,-4.434062,1.999158,-5.726930,-0.026380,-0.045165,0.000666
24646,-4.604050,2.049437,-6.074090,-0.032908,0.056357,0.001998
24661,-4.865018,1.956063,-5.894525,-0.027446,-0.023049,0.005729
24676,-4.491522,2.082955,-5.928043,-0.032109,0.041568,0.000533
24691,-5.042189,1.958457,-6.119579,-0.032109,0.030910,0.007994
24706,-4.161122,1.939303,-5.741296,-0.030510,-0.046098,0.006795
24721,-4.829105,1.987187,-6.086061,-0.035040,0.068081,0.002132
24736,-4.594473,1.915361,-5.801151,-0.030643,-0.040502,0.005862
24751,-4.551377,2.114080,-5.966351,-0.033841,0.042634,0.000533
24766,-4.776433,1.968034,-5.896919,-0.033175,0.009859,0.005729
24781,-4.527435,2.025495,-5.942409,-0.035440,-0.002398,0.004263
24796,-4.730942,1.996764,-5.791574,-0.036372,0.023049,0.004663
24811,-4.548983,2.035071,-5.796362,-0.033841,0.014655,0.004663
24826,-4.580108,2.092532,-5.899313,-0.032508,0.017986,0.003464
24841,-4.644751,2.039860,-5.973533,-0.036239,0.024914,0.003331
24856,-4.757279,2.013524,-5.992687,-0.035306,0.018786,0.004263
24871,-4.592079,2.027889,-5.844246,-0.034374,0.002798,0.005196
24886,-4.596867,2.027889,-6.002264,-0.034907,0.028511,0.006129
24901,-4.630386,1.946486,-5.849035,-0.032508,0.006795,0.005995
24916,-4.759673,2.047042,-5.870583,-0.029977,0.027979,0.009459
24931,-4.790798,1.968034,-5.930438,-0.026380,0.018386,0.007061
24946,-4.503493,1.984793,-5.884948,-0.030643,0.013989,0.007727
24961,-4.673481,1.924938,-5.856217,-0.032642,0.031043,0.008793
24976,-4.733336,1.965640,-5.834670,-0.035972,0.011058,0.007861
24991,-4.608838,2.027889,-5.894525,-0.039570,0.033441,0.005329
25006,-4.520253,2.032677,-5.959168,-0.032508,0.025181,0.004530
25021,-4.570531,2.011129,-5.920861,-0.031709,0.015188,0.003997
25036,-4.661510,2.085350,-5.951985,-0.032508,0.024381,0.003997
25051,-4.711789,2.092532,-5.942409,-0.028778,0.013723,0.004397
25066,-4.460398,2.090138,-5.901707,-0.028911,0.008127,0.004130
25081,-4.752491,2.059013,-5.954380,-0.027845,0.031975,0.007461
25096,-4.723760,2.051831,-5.865794,-0.026646,0.011724,0.005196
25111,-4.680664,1.999158,-5.951985,-0.021717,0.034773,0.003597
25126,-4.599261,2.044648,-5.868188,-0.025181,0.018652,0.008527
25141,-4.601655,2.015918,-5.820304,-0.028778,0.017320,0.001732
25156,-4.709394,1.936909,-5.925649,-0.027579,0.032375,0.005196
25171,-4.685452,2.056619,-5.875371,-0.022383,0.026380,0.004397
25186,-4.623203,1.912967,-5.834670,-0.021983,0.026247,0.004663
25201,-4.565742,1.941698,-5.896919,-0.022383,0.024648,0.007994
25216,-4.709394,1.944092,-5.930438,-0.025447,0.029577,0.007727
25231,-4.707000,1.996764,-5.923255,-0.025181,0.024381,0.007994
25246,-4.608838,2.114080,-5.947197,-0.028112,0.029178,0.004130
25261,-4.496311,2.030283,-5.908890,-0.025580,0.012657,0.005063
25276,-4.683058,2.032677,-5.990293,-0.024648,0.022383,0.004930
25291,-4.723760,1.968034,-5.940014,-0.024781,0.021450,0.001199
25306,-4.525041,2.008735,-5.916072,-0.029711,0.026646,0.002265
25321,-4.592079,2.082955,-5.947197,-0.028378,0.018919,0.000400
25336,-4.620809,1.948880,-5.985504,-0.027446,0.020651,-0.003464
25351,-4.721365,1.987187,-5.928043,-0.032508,0.024115,-0.005995
25366,-4.656722,2.006341,-5.913678,-0.028778,0.019851,-0.011058
25381,-4.637568,1.958457,-5.937620,-0.020118,0.013190,-0.026779
25396,-4.572925,2.018312,-5.925649,-0.024914,0.018786,-0.016654
25411,-4.764462,1.977611,-5.947197,-0.021450,0.030110,-0.023049
25426,-4.599261,1.987187,-5.999869,-0.023715,0.026380,-0.018386
25441,-4.548983,2.042254,-6.040571,-0.031842,0.029311,-0.019985
25456,-4.608838,1.960851,-5.908890,-0.035706,0.018919,-0.019718
25471,-4.675876,2.023100,-5.923255,-0.030110,0.024648,-0.022250
25486,-4.616021,2.044648,-5.896919,-0.037838,0.019851,-0.020784
25501,-4.534618,2.035071,-5.947197,-0.032908,0.025847,-0.016654
25516,-4.639963,1.977611,-5.916072,-0.022383,0.032375,-0.016387
25531,-4.671087,1.958457,-5.863400,-0.012524,0.025714,-0.023982
25546,-4.690241,1.934515,-5.999869,-0.016121,0.023449,-0.017587
25561,-4.532224,1.946486,-5.904101,-0.018386,0.023049,-0.015455
25576,-4.613626,1.941698,-5.916072,-0.017320,0.019185,-0.014256
25591,-4.642357,1.874660,-5.896919,-0.016920,0.008926,-0.016521
25606,-4.716577,1.905784,-5.971139,-0.009593,0.019851,-0.014123
25621,-4.558560,1.900996,-5.817910,-0.011858,0.012124,-0.008660
25636,-4.558560,1.893813,-5.865794,-0.019718,0.011724,-0.009459
25651,-4.714183,1.857901,-6.038177,-0.021450,0.008260,-0.007594
25666,-4.630386,1.951274,-5.923255,-0.027979,0.010126,-0.006795
25681,-4.570531,2.051831,-5.990293,-0.032242,0.014256,-0.004663
25696,-4.572925,1.946486,-5.913678,-0.027312,0.007328,-0.006262
25711,-4.675876,1.987187,-5.951985,-0.031309,0.018253,-0.009726
25726,-4.637568,1.970428,-5.916072,-0.025181,0.001732,-0.005729
25741,-4.553771,1.893813,-6.011840,-0.020917,0.011591,-0.008260
25756,-4.568137,1.881842,-5.827487,-0.023049,0.003198,-0.002132
25771,-4.651934,1.838747,-5.896919,-0.022783,0.009859,0.002132
25786,-4.711789,1.853112,-5.856217,-0.025847,0.010792,0.000799
25801,-4.599261,1.924938,-5.959168,-0.029977,0.002132,0.003730
25816,-4.596867,1.917755,-5.975927,-0.031176,0.014922,0.006395
25831,-4.627992,1.877054,-5.884948,-0.031576,0.002132,0.005462
25846,-4.656722,1.920150,-5.963956,-0.027046,0.016521,0.005995
25861,-4.625597,1.833959,-5.899313,-0.037571,0.012124,0.009593
25876,-4.517859,2.008735,-5.963956,-0.035573,0.009726,0.008660
25891,-4.649539,1.900996,-5.884948,-0.034907,0.011191,0.008660
25906,-4.709394,1.956063,-5.928043,-0.037571,0.017054,0.010126
25921,-4.627992,1.970428,-5.913678,-0.029178,0.011591,0.008926
25936,-4.508282,1.941698,-5.908890,-0.026646,0.015988,0.009459
25951,-4.630386,1.920150,-5.930438,-0.028778,0.015721,0.011458
25966,-4.695029,1.912967,-5.906496,-0.025181,0.011724,0.011058
25981,-4.651934,1.929726,-5.997475,-0.030110,0.015721,0.011991
25996,-4.525041,1.975216,-5.928043,-0.029844,0.011325,0.010658
26011,-4.647145,1.905784,-5.951985,-0.027845,0.015455,0.008260
26026,-4.707000,1.936909,-5.973533,-0.030910,0.018253,0.006795
26041,-4.642357,2.015918,-5.956774,-0.033041,0.025980,0.003464
26056,-4.577713,1.970428,-5.882554,-0.028112,0.019052,0.001066
26071,-4.632780,1.977611,-5.932832,-0.026380,0.023715,-0.000533
26086,-4.671087,1.927332,-5.954380,-0.023848,0.011325,0.000266
26101,-4.635174,1.968034,-5.901707,-0.025047,0.024515,0.000799
26116,-4.558560,1.946486,-5.837064,-0.027979,0.013590,0.001066
26131,-4.493917,2.006341,-6.026206,-0.026646,0.013723,0.001466
26146,-4.690241,1.831564,-5.935226,-0.025047,0.015455,-0.000133
26161,-4.659116,1.975216,-5.872977,-0.025580,0.004397,-0.000799
26176,-4.539406,1.881842,-5.995081,-0.031043,0.010392,-0.000266
26191,-4.560954,1.924938,-6.023811,-0.033574,0.000799,0.002531
26206,-4.733336,1.884237,-5.875371,-0.037305,0.012257,0.001332
26221,-4.671087,1.886631,-5.987898,-0.046764,0.014789,0.001199
26236,-4.594473,2.025495,-5.951985,-0.041168,0.018253,-0.005329
26251,-4.568137,1.956063,-5.951985,-0.041435,0.014922,-0.007461
26266,-4.620809,1.960851,-5.995081,-0.035440,0.017320,-0.007194
26281,-4.692635,1.917755,-5.894525,-0.035306,0.019452,-0.005596
26296,-4.532224,2.003947,-5.846641,-0.029577,0.020917,-0.002132
26311,-4.570531,1.989582,-5.951985,-0.019319,0.027046,0.000666
26326,-4.649539,1.915361,-5.894525,-0.015588,0.014123,0.003864
26341,-4.721365,1.896208,-5.951985,-0.017720,0.022649,0.010925
26356,-4.637568,1.924938,-5.913678,-0.013057,0.017320,0.014922
26371,-4.611232,1.984793,-5.947197,-0.012657,0.018919,0.012790
26386,-4.553771,1.853112,-6.011840,-0.013057,0.012524,0.009992
26401,-4.742914,1.845930,-5.916072,-0.022783,0.009726,0.013190
26416,-4.616021,1.932121,-5.975927,-0.038104,0.002798,0.008394
26431,-4.532224,2.027889,-5.851429,-0.033041,0.003464,-0.000266
26446,-4.678270,1.927332,-5.992687,-0.025714,-0.002531,-0.002265
26461,-4.659116,1.853112,-5.916072,-0.035440,0.003064,-0.004796
26476,-4.659116,1.939303,-5.913678,-0.039436,0.006928,-0.003864
26491,-4.563348,1.970428,-5.971139,-0.031309,0.003730,0.000799
26506,-4.594473,2.001553,-5.932832,-0.024115,0.007461,0.000933
26521,-4.685452,1.893813,-5.832275,-0.024115,0.002132,0.004130
26536,-4.632780,1.946486,-5.918467,-0.025314,0.014922,0.004530
26551,-4.570531,1.953669,-6.047753,-0.023449,0.007328,0.008527
26566,-4.575319,1.893813,-5.908890,-0.019718,0.003597,0.008260
26581,-4.702212,1.884237,-5.930438,-0.021317,0.015721,0.008793
26596,-4.642357,1.936909,-5.872977,-0.018919,-0.001732,0.006395
26611,-4.616021,1.833959,-5.959168,-0.028245,0.014522,0.007861
26626,-4.575319,1.841141,-5.997475,-0.037838,0.007328,0.009593
26641,-4.683058,1.939303,-6.004658,-0.038770,0.021850,0.002398
26656,-4.671087,1.905784,-5.908890,-0.030776,0.011991,-0.003730
26671,-4.572925,1.934515,-5.880159,-0.027845,0.011191,-0.004663
26686,-4.637568,1.920150,-5.961562,-0.032642,0.012923,-0.003198
26701,-4.666299,1.900996,-5.923255,-0.029444,0.009992,-0.003597
26716,-4.735731,1.958457,-5.930438,-0.025447,0.017187,-0.001865
26731,-4.556166,1.953669,-5.875371,-0.021850,0.012391,-0.000799
26746,-4.527435,2.018312,-5.949591,-0.025847,0.017453,0.003198
26761,-4.695029,1.872266,-5.973533,-0.023982,0.009992,0.005729
26776,-4.716577,1.867477,-5.949591,-0.024781,0.016654,0.006528
26791,-4.613626,1.960851,-5.920861,-0.030910,0.010658,0.003064
26806,-4.553771,1.958457,-5.987898,-0.024914,0.012524,0.000799
26821,-4.685452,1.790863,-5.949591,-0.028511,0.015588,0.000933
26836,-4.687847,1.814805,-5.992687,-0.040502,0.021983,0.003198
26851,-4.632780,1.958457,-5.987898,-0.029044,0.005196,-0.002398
26866,-4.582502,1.841141,-5.872977,-0.022250,0.001199,-0.002931
26881,-4.625597,1.867477,-5.920861,-0.025714,0.011325,-0.002132
26896,-4.733336,1.889025,-5.968745,-0.030377,0.008394,0.003597
26911,-4.616021,1.912967,-5.894525,-0.031309,0.016254,0.006262
26926,-4.613626,1.984793,-5.963956,-0.034640,0.023449,0.009726
26941,-4.596867,1.982399,-5.901707,-0.030910,0.007727,0.008527
26956,-4.728548,1.855506,-5.865794,-0.031043,0.016654,0.006795
26971,-4.659116,1.980005,-5.925649,-0.033974,0.014789,0.005063
26986,-4.503493,2.006341,-5.956774,-0.030510,0.010126,0.005995
27001,-4.683058,1.879448,-5.889736,-0.023848,0.011325,0.002531
27016,-4.733336,1.879448,-5.951985,-0.027579,0.008926,0.001066
27031,-4.687847,1.855506,-5.932832,-0.031576,0.011325,0.002665
27046,-4.632780,1.939303,-6.023811,-0.029444,0.013590,0.003864
27061,-4.673481,1.853112,-5.892130,-0.035440,0.010126,0.005063
27076,-4.723760,1.884237,-5.856217,-0.039570,0.018786,0.006129
27091,-4.678270,1.896208,-5.918467,-0.041302,0.016787,0.004930
27106,-4.563348,1.960851,-5.997475,-0.039303,0.017320,0.003730
27121,-4.613626,1.912967,-5.892130,-0.034374,0.015588,0.006528
27136,-4.618415,1.912967,-5.865794,-0.031842,0.014922,0.004263
27151,-4.690241,1.970428,-5.932832,-0.029044,0.018386,0.006928
27166,-4.556166,2.020706,-5.937620,-0.027579,0.016387,0.004130
27181,-4.632780,1.941698,-5.827487,-0.025580,0.024248,0.003730
27196,-4.754885,1.905784,-5.987898,-0.022516,0.014256,0.006129
27211,-4.678270,1.829170,-6.009446,-0.023315,0.013057,0.006262
27226,-4.651934,1.872266,-5.980716,-0.020118,0.009726,0.003864
27241,-4.616021,1.824382,-5.911284,-0.023715,0.014789,0.005329
27256,-4.627992,1.848324,-5.951985,-0.028778,0.014789,0.004530
27271,-4.752491,1.800440,-5.995081,-0.035706,0.015721,0.005596
27286,-4.608838,1.912967,-5.920861,-0.046631,0.018386,0.007194
27301,-4.627992,1.965640,-5.925649,-0.049029,0.014655,0.002265
27316,-4.644751,1.982399,-5.951985,-0.048096,0.017320,-0.004130
27331,-4.663905,1.970428,-5.863400,-0.037438,0.016387,-0.004130
27346,-4.599261,2.013524,-5.932832,-0.035440,0.024248,-0.002531
27361,-4.608838,1.958457,-5.966351,-0.032242,0.015588,-0.001732
27376,-4.649539,1.893813,-5.937620,-0.029444,0.020518,0.000133
27391,-4.613626,1.934515,-5.820304,-0.026380,0.023848,0.005329
27406,-4.651934,1.865083,-5.896919,-0.023848,0.021184,0.009060
27421,-4.639963,1.920150,-5.923255,-0.021583,0.015721,0.010126
27436,-4.671087,1.896208,-5.951985,-0.017853,0.019452,0.010392
27451,-4.570531,1.867477,-5.954380,-0.016521,0.003730,0.013456
27466,-4.620809,1.826776,-5.961562,-0.022916,0.014922,0.011058
27481,-4.702212,1.881842,-6.102820,-0.033708,-0.000266,0.012124
27496,-4.759673,1.867477,-5.930438,-0.039436,0.008127,0.006395
27511,-4.606444,1.989582,-5.849035,-0.036372,0.009726,0.005596
27526,-4.565742,1.956063,-5.949591,-0.029711,0.008260,-0.000933
27541,-4.651934,1.953669,-5.973533,-0.034507,0.014256,-0.003198
27556,-4.680664,1.874660,-5.923255,-0.027845,0.002398,0.001332
27571,-4.611232,1.956063,-5.882554,-0.026247,0.001732,0.001466
27586,-4.541800,1.884237,-5.908890,-0.027446,0.002531,0.003331
27601,-4.757279,1.893813,-5.951985,-0.037438,0.004530,0.009859
27616,-4.721365,1.929726,-5.877765,-0.032642,0.005063,0.006528
27631,-4.685452,1.977611,-5.911284,-0.028778,0.017986,0.005596
27646,-4.618415,1.805228,-5.932832,-0.029044,0.007861,0.004263
27661,-4.730942,1.831564,-5.975927,-0.035972,0.019851,0.006528
27676,-4.735731,1.807622,-5.877765,-0.038770,0.016920,0.007194
27691,-4.604050,1.912967,-5.920861,-0.034773,0.020251,0.004130
27706,-4.659116,1.869871,-5.913678,-0.035573,0.027179,0.001732
27721,-4.606444,1.893813,-5.832275,-0.029044,0.007461,0.005063
27736,-4.666299,1.862689,-5.935226,-0.035040,0.022250,0.002531
27751,-4.695029,1.980005,-5.844246,-0.033841,0.018119,0.002665
27766,-4.572925,1.980005,-5.880159,-0.026113,0.014256,0.003198
27781,-4.702212,1.893813,-5.875371,-0.034240,0.017187,0.002798
27796,-4.642357,2.001553,-5.940014,-0.036239,0.008926,0.003864
27811,-4.687847,1.996764,-5.935226,-0.026913,0.020651,0.001466
27826,-4.644751,1.991976,-5.932832,-0.025714,0.009992,0.005063
27841,-4.606444,1.805228,-5.839458,-0.029844,0.013323,0.005596
27856,-4.666299,1.893813,-5.973533,-0.036505,0.026779,0.006262
27871,-4.659116,2.039860,-5.997475,-0.025980,0.007861,0.001066
27886,-4.625597,1.912967,-5.899313,-0.017986,0.014389,-0.001466
27901,-4.580108,1.800440,-5.889736,-0.031709,0.009726,0.004796
27916,-4.721365,1.824382,-5.887342,-0.041035,0.015588,0.005329
27931,-4.752491,1.968034,-5.875371,-0.036372,0.021983,0.007328
27946,-4.611232,1.915361,-5.975927,-0.031842,0.017853,0.003597
27961,-4.541800,1.932121,-5.942409,-0.038371,0.016254,0.006129
27976,-4.632780,1.984793,-5.975927,-0.037571,0.011191,0.001732
27991,-4.594473,1.917755,-5.942409,-0.033708,0.012257,0.004130
28006,-4.580108,2.047042,-6.016629,-0.032642,0.010658,0.000533
28021,-4.565742,1.951274,-5.911284,-0.026113,0.001998,-0.001599
28036,-4.740520,1.874660,-5.889736,-0.034907,0.002531,-0.000799
28051,-4.685452,1.917755,-5.841852,-0.037438,0.007461,0.002265
28066,-4.606444,1.953669,-5.884948,-0.036639,0.017853,0.000799
28081,-4.608838,1.970428,-5.863400,-0.031975,0.008926,0.004130
28096,-4.711789,1.867477,-5.942409,-0.030910,0.020651,0.004663
28111,-4.812346,1.776498,-5.863400,-0.027046,0.014256,0.004663
28126,-4.599261,1.927332,-5.877765,-0.030776,0.016387,0.005995
28141,-4.611232,1.956063,-5.925649,-0.031176,0.021717,0.004663
28156,-4.637568,1.874660,-5.966351,-0.031309,0.018253,0.004796
28171,-4.699818,1.896208,-5.918467,-0.037571,0.021184,0.006795
28186,-4.637568,1.917755,-5.928043,-0.039436,0.014655,0.006528
28201,-4.520253,2.037466,-5.942409,-0.035972,0.014522,0.000266
28216,-4.637568,1.941698,-5.928043,-0.032508,0.026113,0.002132
28231,-4.740520,1.893813,-5.920861,-0.030510,0.013989,-0.000400
28246,-4.639963,1.924938,-5.959168,-0.033441,0.017853,0.001066
28261,-4.577713,2.018312,-5.935226,-0.026646,0.016787,0.001066
28276,-4.644751,1.877054,-6.009446,-0.022783,0.003064,0.003730
28291,-4.680664,1.874660,-5.944803,-0.024914,0.015455,0.001466
28306,-4.757279,1.881842,-5.861006,-0.025980,0.010658,0.005462
28321,-4.539406,1.932121,-5.825093,-0.032242,0.011058,0.006395
28336,-4.632780,1.884237,-5.973533,-0.032242,0.018519,0.007727
28351,-4.723760,1.896208,-5.918467,-0.033308,0.019052,0.004397
28366,-4.654328,1.972822,-5.868188,-0.029178,0.025181,0.001066
28381,-4.508282,1.912967,-5.887342,-0.031975,0.015721,0.002132
28396,-4.582502,1.958457,-5.949591,-0.033175,0.014123,0.002665
28411,-4.718971,1.970428,-5.930438,-0.032775,0.014389,0.001732
28426,-4.584896,1.953669,-5.851429,-0.030110,0.015055,0.001066
28441,-4.601655,1.929726,-6.052542,-0.028511,0.013057,0.002798
28456,-4.584896,1.879448,-5.935226,-0.025580,0.010126,0.003864
28471,-4.709394,1.879448,-5.825093,-0.031842,0.011991,0.006262
28486,-4.685452,1.893813,-5.956774,-0.032375,0.020384,0.005329
28501,-4.608838,1.970428,-5.954380,-0.032775,0.014123,0.003864
28516,-4.625597,1.896208,-5.937620,-0.036639,0.021051,0.005462
28531,-4.663905,1.855506,-5.987898,-0.034640,0.013190,0.004397
28546,-4.690241,1.929726,-5.894525,-0.036239,0.017720,0.000133
28561,-4.584896,1.970428,-5.853823,-0.030776,0.013989,-0.000133
28576,-4.570531,1.886631,-5.916072,-0.029178,0.010392,0.001599
28591,-4.651934,1.891419,-5.899313,-0.032109,0.015855,0.000933
28606,-4.728548,1.951274,-5.829881,-0.027712,0.011724,0.004530
28621,-4.594473,1.991976,-5.930438,-0.029977,0.015455,0.005063
28636,-4.522647,1.905784,-5.920861,-0.036905,0.015455,0.004263
28651,-4.709394,1.941698,-6.009446,-0.037571,0.011858,0.006662
