T,AX,AY,AZ,GX,GY,GZ
46,0.299275,5.765238,-5.975927,0.171602,-0.155081,0.337208
61,0.440533,5.688623,-5.872977,0.155481,-0.169204,0.346401
76,0.459687,5.803545,-5.731719,0.195051,-0.155614,0.323352
91,0.368707,5.714959,-5.784391,0.247677,-0.146554,0.283250
106,0.296881,5.600038,-5.801151,0.260334,-0.107784,0.257536
121,0.263362,5.437232,-5.837064,0.229158,-0.075276,0.261666
136,0.500388,5.401319,-5.779603,0.167871,-0.067548,0.275655
151,0.682347,5.714959,-5.707777,0.150951,-0.122706,0.287513
166,0.584185,5.647922,-5.734113,0.129900,-0.138960,0.310828
181,0.478840,5.779603,-5.676652,0.113113,-0.120574,0.341738
196,0.531513,6.007052,-5.674258,0.166406,-0.105519,0.347734
211,0.763750,6.033388,-5.691017,0.243946,-0.122040,0.335743
226,0.677559,6.040571,-5.669469,0.336542,-0.137761,0.331746
241,0.605733,5.784391,-5.714959,0.369450,-0.153216,0.348666
256,0.651223,5.480328,-5.638345,0.356394,-0.175332,0.379975
271,0.742203,5.427655,-5.846641,0.329614,-0.181861,0.422610
286,0.804452,5.422867,-5.942409,0.320021,-0.235153,0.445659
301,-0.258574,6.852205,-5.884948,0.520002,-0.341472,0.396096
316,-0.316035,4.824317,-5.877765,0.365986,-0.112980,0.475636
331,0.380678,5.391742,-6.416461,0.305233,-0.184525,0.560637
346,0.450110,4.819528,-6.263232,0.304300,0.018253,0.598075
361,0.555455,4.910508,-6.344635,0.257270,0.033441,0.614196
376,0.905008,4.865018,-6.227318,0.247677,0.050628,0.587283
391,1.395820,4.594473,-5.932832,0.265263,-0.070346,0.548913
406,1.350330,4.443638,-6.045359,0.250874,-0.167338,0.536655
421,1.185130,4.522647,-5.928043,0.240083,-0.193851,0.534524
436,0.984017,4.508282,-6.019023,0.252473,-0.225560,0.515605
451,1.024718,4.563348,-6.042965,0.281518,-0.210905,0.480299
466,1.048660,4.367024,-6.229712,0.270459,-0.208907,0.461913
481,0.861913,4.355053,-6.344635,0.242081,-0.214502,0.468574
496,0.646434,4.134786,-6.411672,0.200779,-0.226093,0.495887
511,0.584185,3.952827,-6.466739,0.123372,-0.198115,0.527862
526,0.818817,4.019865,-6.289568,0.081804,-0.206908,0.523998
541,0.859518,4.197035,-6.196194,0.082870,-0.199447,0.496553
556,0.773327,4.276044,-6.279991,0.138560,-0.235286,0.423276
571,0.778116,3.861847,-6.524199,0.204910,-0.232222,0.342671
586,1.046266,4.077325,-6.543353,0.251807,-0.229291,0.249809
601,0.715866,3.847482,-6.789956,0.325884,-0.294841,0.151217
616,0.502782,3.459621,-6.878541,0.303101,-0.274723,0.098058
631,0.167594,2.932897,-6.801927,0.179995,-0.244080,0.088732
646,0.069432,3.023877,-6.943185,0.010925,-0.162809,0.112847
661,0.234632,3.593697,-6.880936,-0.102322,-0.049962,0.137095
676,0.270545,4.058172,-6.787562,-0.126836,-0.001066,0.137495
691,0.608127,4.611232,-6.663063,-0.072211,0.010658,0.114579
706,0.634463,4.790798,-6.660669,0.012790,0.004930,0.088332
721,0.746991,4.654328,-6.648698,0.101522,0.011991,0.065283
736,0.699107,4.520253,-6.524199,0.142957,-0.005462,0.063152
751,0.600945,4.120421,-6.617573,0.137361,0.009193,0.067415
766,0.639252,4.120421,-6.576872,0.113113,0.024115,0.079539
781,0.833182,3.969586,-6.531382,0.147887,0.017587,0.048230
796,0.497994,3.320758,-6.514623,0.062752,0.063685,0.044766
811,0.658405,3.435679,-6.318298,-0.044766,0.084735,0.048763
826,1.019930,3.500323,-6.150704,-0.154681,0.057423,0.062352
841,1.187524,3.921702,-6.236896,-0.271925,-0.008793,0.115911
856,1.101333,4.814740,-6.196194,-0.315891,-0.033175,0.180129
871,1.036689,5.300763,-6.337452,-0.140692,-0.062219,0.152017
886,0.972046,5.415684,-6.382942,0.065550,-0.073544,0.114579
901,1.027112,4.951209,-6.612785,0.222230,-0.106052,0.071678
916,0.751779,4.319140,-6.710947,0.289911,-0.093662,0.048496
931,0.490811,3.390190,-6.828263,0.248343,-0.071412,0.033041
946,0.392649,2.851494,-6.713341,0.046098,0.033175,0.060221
961,0.919373,3.033453,-6.548141,-0.130966,0.027179,0.070613
976,1.027112,3.493140,-6.512228,-0.252740,0.021717,0.078207
991,0.995988,4.158728,-6.452374,-0.286980,0.007461,0.090730
1006,0.876278,4.850653,-6.438008,-0.220364,-0.022916,0.081671
1021,0.995988,5.293580,-6.327875,-0.047564,-0.063152,0.041035
1036,0.878672,4.965574,-6.423643,0.098991,-0.079539,0.012657
1051,0.895431,4.398149,-6.548141,0.148553,-0.116311,0.001332
1066,0.818817,4.187459,-6.598420,0.144556,-0.124038,0.008127
1081,0.610521,3.828328,-6.663063,0.093528,-0.097392,0.023982
1096,0.593762,3.718195,-6.672640,-0.039303,-0.031576,0.063951
1111,0.581791,3.742137,-6.560112,-0.169737,0.013856,0.098458
1126,0.761356,4.113238,-6.488286,-0.226893,0.016254,0.120175
1141,1.058237,4.419696,-6.268020,-0.208773,-0.034773,0.108317
1156,1.130063,4.704606,-6.342240,-0.124438,-0.090997,0.084202
1171,0.924162,4.802769,-6.275203,0.014123,-0.126436,0.039436
1186,0.687136,4.819528,-6.459556,0.144289,-0.109649,0.000266
1201,0.646434,4.613626,-6.720524,0.252606,-0.122306,-0.021983
1216,0.653617,4.137180,-6.914454,0.221564,-0.072611,0.001732
1231,0.567426,3.888184,-6.806715,0.135629,-0.068881,0.062752
1246,0.450110,3.687071,-6.780379,0.022516,-0.036239,0.097792
1261,0.790087,3.778050,-6.629544,-0.029178,-0.063152,0.098991
1276,0.873884,3.790021,-6.457162,-0.038371,-0.091796,0.063285
1291,1.027112,3.866636,-6.181828,-0.014256,-0.155747,0.004397
1306,0.737414,3.926491,-6.315904,0.023715,-0.220231,-0.051827
1321,0.418985,4.015076,-6.426037,0.044632,-0.193585,-0.085934
1336,0.423774,4.149151,-6.742072,0.064084,-0.184792,-0.087799
1351,0.167594,4.084508,-6.880936,0.044632,-0.126303,-0.059554
1366,0.165200,4.144363,-7.022193,0.008394,-0.060087,-0.012657
1381,0.232238,4.199430,-6.955156,-0.016654,-0.012124,0.018519
1396,0.478840,4.288015,-6.909666,-0.004130,0.002798,0.028911
1411,0.545878,4.115633,-6.749255,-0.024248,0.005196,0.052093
1426,0.536301,3.928885,-6.531382,-0.066882,0.030377,0.072478
1441,0.675165,4.163517,-6.289568,-0.061420,0.001599,0.072877
1456,0.909797,4.189853,-6.320693,-0.010259,-0.043966,0.036772
1471,0.818817,4.170699,-6.289568,0.062885,-0.094994,-0.000533
1486,0.603339,3.842694,-6.382942,0.062219,-0.121773,-0.001199
1501,0.344765,3.864241,-6.648698,-0.015855,-0.121773,0.045165
1516,0.447716,4.010288,-6.531382,-0.064484,-0.112447,0.084602
1531,0.402226,4.170699,-6.737284,-0.082737,-0.089531,0.103121
1546,0.328006,4.194641,-6.766014,-0.023049,-0.078473,0.081271
1561,0.179565,4.077325,-6.816292,-0.013057,-0.038104,0.076741
1576,0.311246,3.948039,-6.821081,-0.012391,-0.032775,0.073943
1591,0.598550,3.892972,-6.718130,-0.003730,-0.042634,0.059954
1606,0.328006,3.665523,-6.694188,-0.056623,-0.045165,0.073943
1621,0.328006,3.713407,-6.710947,-0.129634,-0.047164,0.088199
1636,0.371101,4.027047,-6.696582,-0.137228,-0.041701,0.079273
1651,0.351948,4.316746,-6.751649,-0.090864,-0.035839,0.058355
1666,0.380678,4.632780,-6.806715,-0.021850,-0.038104,0.044766
1681,0.174777,4.101267,-6.931214,0.071279,-0.028245,0.016654
1696,0.191536,3.969586,-6.631938,0.104587,-0.015721,-0.006528
1711,0.409408,3.564966,-6.679822,0.067948,0.004663,-0.017853
1726,0.569820,3.581726,-6.629544,-0.004530,-0.026913,-0.015455
1741,0.447716,3.696647,-6.675034,-0.059688,-0.035040,-0.020917
1756,0.316035,3.971981,-6.789956,-0.064217,-0.061420,-0.040369
1771,0.203507,3.995923,-6.842628,-0.037038,-0.032642,-0.064351
1786,0.141258,3.964798,-6.878541,0.010259,-0.010525,-0.091530
1801,0.079009,3.620033,-6.818686,-0.010792,0.048496,-0.100856
1816,0.023942,3.699042,-6.593631,-0.066216,0.098858,-0.088332
1831,0.325611,4.228160,-6.710947,-0.160144,0.090064,-0.013856
1846,0.811634,4.857835,-6.502652,-0.137361,0.063152,0.018786
1861,0.804452,5.023035,-6.308722,-0.041435,-0.020118,0.034107
1876,0.627281,4.886566,-6.378153,0.062219,-0.046498,0.027179
1891,0.699107,4.793192,-6.495469,0.163608,-0.070879,0.011724
1906,0.529119,4.259285,-6.732495,0.210772,-0.088732,0.012790
1921,0.368707,3.696647,-6.821081,0.206642,-0.077141,0.005596
1936,0.172383,3.033453,-6.861782,0.134297,-0.054225,-0.004930
1951,0.304064,3.028665,-6.782773,0.001466,-0.013323,-0.001732
1966,0.404620,3.335123,-6.742072,-0.094727,-0.027446,0.002398
1981,0.347159,3.821146,-6.600814,-0.148420,-0.026113,0.003864
1996,0.129287,4.237737,-6.634333,-0.130433,-0.035573,-0.002531
2011,0.081403,4.635174,-6.600814,-0.036505,-0.028645,-0.009060
2026,0.198719,4.548983,-6.607996,0.067149,-0.022783,-0.030643
2041,0.323217,4.213795,-6.670246,0.133897,-0.023582,-0.061819
2056,0.193930,4.019865,-6.770802,0.167472,-0.036372,-0.080205
2071,0.119710,3.567360,-6.852205,0.154815,-0.020784,-0.094861
2086,0.222661,3.490746,-6.821081,0.049429,-0.013057,-0.064484
2101,0.380678,3.605668,-6.727706,-0.049162,-0.000133,-0.030377
2116,0.354342,3.837905,-6.641515,-0.109250,-0.013057,-0.005995
2131,0.407014,4.096479,-6.562507,-0.106718,-0.034907,-0.000400
2146,0.500388,4.288015,-6.581660,-0.057556,-0.061686,-0.009859
2161,0.366313,4.484340,-6.782773,0.015988,-0.079273,-0.017453
2176,0.098162,4.326323,-6.938396,0.087133,-0.069813,-0.014922
2191,0.023942,4.046201,-6.950367,0.134830,-0.068881,-0.020118
2206,0.033519,3.588908,-7.015011,0.138694,-0.047430,-0.027446
2221,-0.021548,3.251326,-6.950367,0.058355,0.001865,-0.014256
2236,0.167594,3.165135,-6.837840,-0.030643,0.015455,-0.019718
2251,0.074220,3.390190,-6.682217,-0.094594,0.002798,-0.028511
2266,0.208296,3.581726,-6.560112,-0.126037,-0.014655,-0.035040
2281,0.198719,3.871424,-6.490681,-0.105786,-0.016787,-0.046364
2296,0.210690,4.024653,-6.440403,-0.058222,-0.039303,-0.066616
2311,0.146046,3.969586,-6.593631,-0.033041,-0.041035,-0.071279
2326,0.158017,4.122815,-6.727706,0.004263,-0.063018,-0.069813
2341,0.076614,4.244920,-6.749255,0.028645,-0.035839,-0.054092
2356,-0.057461,4.115633,-6.837840,-0.003331,-0.027579,-0.005596
2371,0.043096,4.192247,-6.969521,-0.013590,0.009060,0.037838
2386,0.035913,3.744531,-6.859388,0.015588,-0.013723,0.028911
2401,0.095768,3.646369,-6.751649,-0.009459,-0.007328,0.029044
2416,0.019154,3.385401,-6.689399,-0.045032,-0.001998,0.017187
2431,0.086191,3.572149,-6.528988,-0.069014,0.000799,-0.006795
2446,0.090980,3.739743,-6.497863,-0.042634,-0.019185,-0.038237
2461,0.102951,3.869030,-6.627150,-0.031043,-0.036772,-0.051161
2476,0.033519,3.928885,-6.787562,-0.041035,-0.039570,-0.046897
2491,-0.150835,4.149151,-6.883330,-0.004796,-0.009060,-0.051028
2506,-0.191536,3.900155,-6.947973,0.014123,0.001332,-0.047963
2521,-0.174777,3.801992,-6.940791,-0.068348,0.055158,-0.004530
2536,0.162806,4.120421,-6.813898,-0.107118,0.071545,0.026113
2551,0.217872,4.249708,-6.526594,-0.085668,0.034374,0.039170
2566,0.117316,3.940856,-6.512228,-0.043433,0.019718,0.023982
2581,0.248997,4.134786,-6.404490,-0.010126,-0.005995,0.009326
2596,0.126893,3.873818,-6.385336,0.045165,-0.036106,-0.021983
2611,0.191536,3.660734,-6.483498,0.056623,-0.040769,-0.043567
2626,0.083797,3.383007,-6.596025,0.048629,-0.077940,-0.059554
2641,-0.098162,3.327940,-6.749255,-0.010126,-0.072078,-0.057156
2656,0.004788,3.507505,-6.885724,-0.041168,-0.054092,-0.055824
2671,-0.124498,3.572149,-6.892907,-0.063418,-0.035839,-0.061286
2686,-0.284910,3.655946,-6.971915,-0.079939,0.000666,-0.049296
2701,-0.428562,3.940856,-6.933608,-0.102855,0.042368,-0.019452
2716,-0.220267,4.108450,-6.785168,-0.116977,0.087666,0.018652
2731,0.043096,4.129998,-6.665457,-0.073144,0.094061,0.022516
2746,0.043096,3.993528,-6.672640,-0.046897,0.082870,0.022116
2761,0.059855,3.706224,-6.514623,-0.045565,0.049029,0.019185
2776,0.325611,3.687071,-6.438008,-0.051960,0.029977,0.009459
2791,0.225055,3.711013,-6.406884,-0.057556,-0.007328,-0.001199
2806,0.167594,3.706224,-6.552930,-0.063152,-0.023315,-0.016254
2821,0.155623,3.804386,-6.710947,-0.053692,-0.051161,-0.030643
2836,0.155623,3.914520,-6.847417,-0.048096,-0.074476,-0.033574
2851,-0.062249,4.055778,-6.900089,-0.062485,-0.045165,-0.018253
2866,-0.169988,4.134786,-6.988675,-0.053426,0.007061,0.003864
2881,-0.258574,3.998317,-7.019799,-0.082737,0.023315,0.054225
2896,0.052672,4.374207,-6.931214,-0.111381,0.043034,0.081937
2911,0.038307,3.983952,-6.933608,-0.058222,0.005596,0.055957
2926,0.031125,3.916914,-6.684611,-0.026513,0.013190,0.017720
2941,-0.038307,3.794810,-6.677428,0.029844,-0.012391,-0.032642
2956,-0.023942,3.622427,-6.536170,0.006928,-0.026646,-0.050495
2971,0.035913,3.885789,-6.720524,-0.028645,-0.014789,-0.057156
2986,-0.019154,4.173093,-6.804321,0.000799,-0.033175,-0.075142
3001,-0.172383,4.118027,-6.830657,0.039037,-0.033974,-0.093528
3016,-0.198719,4.077325,-6.828263,0.070346,-0.030243,-0.092862
3031,-0.112527,3.730166,-6.789956,0.075542,-0.010259,-0.082870
3046,-0.110133,3.517082,-6.677428,-0.010126,0.020118,-0.044233
3061,-0.011971,3.629610,-6.555324,-0.080871,0.033308,-0.006129
3076,0.000000,3.746926,-6.629544,-0.122706,0.007061,0.014123
3091,0.105345,4.067749,-6.641515,-0.134830,0.000000,0.021051
3106,0.138864,4.252102,-6.382942,-0.068881,-0.015588,0.003597
3121,-0.112527,4.082114,-6.488286,-0.005596,-0.016254,-0.016121
3136,-0.069432,3.871424,-6.581660,0.037305,-0.038904,-0.035306
3151,-0.047884,3.778050,-6.701370,0.046764,-0.043300,-0.038770
3166,-0.098162,3.562572,-6.821081,0.007994,-0.027712,-0.022783
3181,-0.134075,3.617639,-6.672640,-0.067415,-0.019585,0.006528
3196,-0.260968,3.775656,-6.770802,-0.105652,-0.011058,0.026513
3211,-0.165200,4.089296,-6.768408,-0.100856,-0.006795,0.028911
3226,-0.196325,4.206612,-6.900089,-0.037172,0.007194,0.015721
3241,-0.196325,3.926491,-6.885724,0.004263,0.023982,0.005862
3256,-0.280122,3.691859,-6.888118,-0.002132,0.020651,0.014655
3271,-0.174777,3.754108,-6.763620,-0.049828,0.048496,0.030910
3286,-0.119710,3.778050,-6.694188,-0.070613,0.026380,0.034374
3301,-0.201113,3.787627,-6.596025,-0.077674,0.059554,0.026513
3316,-0.325611,3.804386,-6.725312,-0.049029,0.066749,0.009593
3331,-0.129287,3.766079,-6.639121,-0.005063,0.062619,-0.029577
3346,0.062249,3.620033,-6.564901,0.006928,0.043034,-0.058888
3361,-0.076614,3.555389,-6.785168,-0.047164,0.036106,-0.057423
3376,-0.119710,3.785233,-6.677428,-0.064750,0.017187,-0.062619
3391,-0.268151,3.883395,-6.687005,-0.057822,0.025580,-0.071412
3406,-0.088585,4.103662,-6.665457,-0.038104,0.036639,-0.078473
3421,-0.071826,4.206612,-6.734890,0.001199,0.043567,-0.079406
3436,-0.265756,4.012682,-6.641515,-0.012391,0.069014,-0.055957
3451,-0.282516,3.993528,-6.816292,-0.098458,0.068747,0.008660
3466,0.102951,4.378995,-6.473921,-0.148286,0.084335,0.071012
3481,0.052672,4.247314,-6.670246,-0.105652,0.051960,0.077274
3496,0.146046,4.285621,-6.514623,-0.022649,0.023049,0.047031
3511,0.026336,3.871424,-6.497863,0.046631,-0.006662,0.007461
3526,0.117316,3.600879,-6.564901,0.031443,-0.033974,-0.003464
3541,0.040701,3.610456,-6.698976,-0.010525,-0.025847,-0.012524
3556,-0.119710,3.722984,-6.770802,-0.010925,-0.041568,-0.023848
3571,-0.282516,3.718195,-6.971915,-0.052893,-0.012524,-0.009859
3586,-0.215478,3.890578,-7.024588,-0.079672,0.006795,0.013057
3601,-0.119710,3.933673,-7.062895,-0.108184,0.050228,0.031975
3616,-0.177171,3.967192,-6.979098,-0.078207,0.047031,0.025714
3631,-0.169988,3.955221,-6.751649,-0.052227,0.073544,0.013723
3646,0.023942,3.995923,-6.603208,-0.045965,0.058222,0.023848
3661,0.052672,3.969586,-6.428432,-0.072345,0.053959,0.037038
3676,0.292093,4.261679,-6.301539,-0.042501,-0.011991,0.035306
3691,-0.047884,4.050989,-6.540959,-0.034773,-0.017187,0.046231
3706,0.225055,3.950433,-6.536170,0.009593,-0.019585,0.020651
3721,-0.155623,3.751714,-6.660669,0.031443,-0.019985,-0.004663
3736,-0.172383,3.677494,-6.782773,-0.003064,-0.008127,-0.006662
3751,-0.074220,3.706224,-6.840234,-0.047297,0.000933,-0.003730
3766,-0.088585,3.912126,-6.864176,-0.061953,0.007328,-0.004796
3781,-0.237026,3.926491,-6.900089,-0.056623,0.027446,-0.008527
3796,-0.055067,4.177882,-6.823475,-0.027712,0.042101,-0.025314
3811,0.023942,4.086902,-6.713341,-0.003730,0.023049,-0.037172
3826,0.174777,4.082114,-6.694188,0.011724,-0.012790,-0.031309
3841,0.026336,4.082114,-6.579266,-0.034507,-0.018253,0.001998
3856,0.028730,4.247314,-6.584054,-0.058489,-0.023315,0.027579
3871,0.102951,4.268862,-6.687005,-0.030377,-0.055025,0.027312
3886,0.033519,4.201824,-6.777985,0.015322,-0.045565,0.015188
3901,0.074220,3.983952,-6.799533,0.065683,-0.047297,-0.006662
3916,-0.241814,3.517082,-6.916849,0.051427,-0.052760,-0.015988
3931,-0.229843,3.612850,-6.732495,0.037038,-0.034240,-0.030643
3946,-0.263362,3.354276,-6.775591,0.005862,-0.004263,-0.039170
3961,-0.141258,3.617639,-6.624756,-0.029444,0.004663,-0.048629
3976,-0.141258,3.651158,-6.615179,-0.045032,-0.002931,-0.053426
3991,-0.160412,3.701436,-6.524199,-0.071145,-0.029178,-0.047031
4006,-0.102951,3.835511,-6.478710,-0.095660,-0.036372,-0.029577
4021,-0.184354,4.118027,-6.538565,-0.091663,-0.034640,-0.016787
4036,-0.292093,4.297592,-6.653486,-0.088466,-0.004397,0.000533
4051,-0.342371,4.378995,-6.670246,-0.025047,-0.014922,-0.003597
4066,-0.263362,4.443638,-6.775591,0.034240,0.007328,-0.010925
4081,-0.191536,4.060566,-6.809110,0.111648,0.000933,-0.031443
4096,-0.253785,3.536236,-6.813898,0.069014,0.017720,-0.019319
4111,-0.227449,3.392584,-6.780379,-0.016121,0.012923,0.002931
4126,-0.086191,3.555389,-6.746861,-0.057822,0.000533,-0.006129
4141,-0.009577,3.754108,-6.691793,-0.066349,-0.013190,-0.028645
4156,-0.093374,3.907337,-6.777985,-0.061686,-0.025714,-0.043833
4171,-0.179565,3.986346,-6.780379,-0.053959,-0.032242,-0.045965
4186,-0.265756,4.062960,-6.835446,-0.040502,-0.024648,-0.041968
4201,-0.208296,4.108450,-6.828263,-0.041568,-0.009193,-0.022649
4216,-0.181959,4.115633,-6.727706,-0.055025,-0.003597,-0.001066
4231,-0.280122,4.228160,-6.792350,-0.043167,0.014389,0.015588
4246,-0.191536,4.295198,-6.682217,-0.019585,0.005196,0.022383
4261,-0.136469,4.225766,-6.713341,0.031309,-0.008394,0.009859
4276,-0.179565,3.842694,-6.624756,0.073544,0.005596,-0.007328
4291,-0.258574,3.524265,-6.663063,0.059821,-0.009859,-0.018786
4306,-0.248997,3.531447,-6.670246,0.013057,-0.020651,-0.020917
4321,-0.119710,3.605668,-6.557718,-0.022516,-0.027579,-0.028378
4336,-0.129287,3.720589,-6.672640,-0.037704,-0.044233,-0.034107
4351,-0.318429,3.804386,-6.677428,-0.037704,-0.052626,-0.034773
4366,-0.356736,3.806781,-6.610391,-0.038504,-0.039037,-0.023982
4381,-0.191536,3.962404,-6.706159,-0.034507,-0.037305,-0.017720
4396,-0.196325,4.237737,-6.842628,-0.000400,-0.029311,-0.017986
4411,-0.395043,4.103662,-6.825869,-0.017587,-0.029044,0.019985
4426,-0.351948,4.206612,-6.952762,-0.021583,-0.000533,0.043167
4441,-0.313640,4.065354,-7.089231,0.009593,-0.011058,0.042234
4456,-0.225055,4.010288,-6.955156,0.031576,-0.004130,0.035972
4471,-0.375890,3.679888,-6.799533,0.075542,0.010925,-0.002931
4486,-0.177171,3.476381,-6.619967,0.082204,0.002931,-0.039703
4501,-0.067038,3.459621,-6.567295,0.060087,-0.037571,-0.055957
4516,0.031125,3.485958,-6.555324,0.007328,-0.069147,-0.059021
4531,-0.201113,3.653552,-6.505046,-0.026113,-0.088865,-0.048096
4546,-0.493206,3.787627,-6.670246,-0.048096,-0.087799,-0.020651
4561,-0.541090,4.029441,-6.698976,-0.034374,-0.054092,-0.005063
4576,-0.505177,4.031836,-6.782773,-0.014256,-0.033441,0.020384
4591,-0.536301,3.971981,-6.837840,-0.001998,-0.004796,0.036239
4606,-0.577003,3.888184,-6.687005,0.034640,0.023582,0.023848
4621,-0.517148,3.459621,-6.687005,0.042368,0.018119,0.020784
4636,-0.385466,3.359065,-6.670246,-0.006795,0.033974,0.016387
4651,-0.284910,3.385401,-6.641515,-0.038904,0.013989,0.011724
4666,-0.347159,3.442862,-6.641515,-0.079139,0.017187,0.003864
4681,-0.328006,3.847482,-6.636727,-0.063685,-0.010525,-0.022783
4696,-0.390255,3.979163,-6.787562,-0.021717,-0.021717,-0.051960
4711,-0.423774,4.060566,-6.864176,0.013590,-0.022116,-0.058089
4726,-0.639252,3.955221,-6.943185,0.024781,-0.003864,-0.053692
4741,-0.646434,3.938462,-7.031770,0.015988,0.028378,-0.035573
4756,-0.584185,3.955221,-6.904878,-0.000666,0.038504,0.006795
4771,-0.442927,3.964798,-6.828263,-0.009593,0.061686,0.032109
4786,-0.363919,3.761291,-6.799533,-0.019718,0.063152,0.032908
4801,-0.301669,3.955221,-6.698976,-0.007061,0.040769,0.022649
4816,-0.361524,3.756502,-6.689399,0.048096,0.020518,-0.016387
4831,-0.110133,3.509900,-6.564901,0.058222,0.013989,-0.040902
4846,-0.069432,3.478775,-6.651092,0.064484,-0.029711,-0.065816
4861,-0.193930,3.327940,-6.777985,0.027046,-0.056890,-0.073277
4876,-0.270545,3.622427,-6.852205,-0.018386,-0.060221,-0.067415
4891,-0.177171,3.885789,-6.914454,-0.025847,-0.060487,-0.066349
4906,-0.304064,4.031836,-7.046135,-0.011058,-0.046631,-0.053292
4921,-0.426168,4.041412,-7.062895,0.005729,-0.034374,-0.033574
4936,-0.476446,4.175488,-7.086837,0.019452,-0.026646,-0.012524
4951,-0.316035,4.168305,-7.055712,0.060487,-0.039436,-0.009593
4966,-0.404620,3.912126,-6.861782,0.135230,-0.053692,-0.037038
4981,-0.591368,3.454833,-6.976704,0.141492,-0.045698,-0.055291
4996,-0.543484,3.315969,-6.885724,0.123505,-0.066882,-0.081271
5011,-0.536301,3.308787,-6.916849,0.110315,-0.058489,-0.104054
5026,-0.656011,3.378219,-6.904878,0.074476,-0.039703,-0.114579
5041,-0.718261,3.469198,-6.892907,0.069813,-0.017853,-0.121907
5056,-0.699107,3.610456,-6.710947,0.082337,-0.001332,-0.124038
5071,-0.430956,3.636792,-6.562507,0.075542,-0.003730,-0.114179
5086,-0.445322,3.624821,-6.617573,0.063818,-0.007861,-0.098058
5101,-0.555455,3.608062,-6.505046,0.056890,-0.020784,-0.065683
5116,-0.598550,3.869030,-6.545747,0.055025,-0.015988,-0.027179
5131,-0.502782,3.615244,-6.576872,0.103787,-0.055957,-0.030776
5146,-0.462081,3.636792,-6.775591,0.142025,-0.067149,-0.045832
5161,-0.940921,3.107674,-6.878541,0.154282,-0.059421,-0.058222
5176,-1.043872,3.011906,-6.900089,0.138560,-0.026380,-0.074476
5191,-0.888249,2.774880,-6.823475,0.085401,-0.000400,-0.081937
5206,-0.780510,2.911349,-6.715735,0.022250,0.017054,-0.078207
5221,-0.586579,3.098097,-6.720524,0.000000,0.010658,-0.082870
5236,-0.495600,3.145981,-6.579266,-0.047830,-0.004930,-0.067681
5251,-0.409408,3.366247,-6.785168,-0.079806,-0.045032,-0.048496
5266,-0.428562,3.639187,-6.789956,-0.069014,-0.053026,-0.045032
5281,-0.632069,3.775656,-6.892907,-0.042234,-0.042368,-0.030110
5296,-0.632069,3.586514,-6.883330,-0.008260,-0.033041,-0.024381
5311,-0.699107,3.543418,-6.837840,0.023715,-0.041035,-0.030776
5326,-0.706289,3.363853,-7.022193,0.035706,-0.029977,-0.033441
5341,-0.653617,3.198653,-6.909666,0.049296,-0.025847,-0.045299
5356,-0.723049,3.057395,-6.971915,0.017320,-0.051694,-0.044366
5371,-0.730232,3.189077,-6.991069,-0.015988,-0.050228,-0.038904
5386,-0.701501,3.406949,-7.003040,-0.042234,-0.060887,-0.027712
5401,-0.711078,3.459621,-6.964733,-0.063685,-0.053426,-0.012657
5416,-0.905008,3.517082,-6.847417,-0.057689,-0.049429,-0.009060
5431,-0.984017,3.541024,-6.713341,-0.013057,-0.039969,-0.019185
5446,-0.897826,3.552995,-6.744466,0.000666,-0.031443,-0.013323
5461,-0.847547,3.593697,-6.639121,0.019185,-0.026913,-0.004130
5476,-0.893037,3.354276,-6.840234,0.065017,-0.044632,-0.015855
5491,-1.086968,3.055001,-6.933608,0.074077,-0.038371,-0.008660
5506,-1.130063,2.947262,-7.000646,0.047297,0.000933,0.007461
5521,-1.070208,2.753332,-6.957550,-0.006928,0.027979,0.021983
5536,-1.125275,2.568978,-6.849811,-0.070213,0.083003,0.027712
5551,-0.972046,2.882619,-6.667851,-0.100057,0.088732,0.020384
5566,-0.670376,3.229778,-6.533776,-0.073943,0.080738,-0.016387
5581,-0.562637,3.452439,-6.629544,-0.034507,0.029711,-0.047564
5596,-0.727837,3.473987,-6.751649,-0.039436,0.020384,-0.042767
5611,-0.835576,3.579331,-6.861782,-0.059421,0.006795,-0.011325
5626,-0.859518,3.818752,-7.074866,-0.072611,0.015721,0.028245
5641,-0.948104,3.890578,-7.098808,-0.066349,0.057289,0.070213
5656,-0.711078,3.629610,-7.055712,0.012257,0.031842,0.046498
5671,-0.871489,3.280056,-7.082048,0.059688,0.047564,0.019185
5686,-0.792481,2.935291,-6.904878,0.061819,0.045432,-0.014389
5701,-0.768539,2.863465,-6.912060,0.028911,0.047963,-0.032109
5716,-0.694318,2.806004,-6.799533,-0.022250,0.058489,-0.033841
5731,-0.713472,3.119645,-6.801927,-0.053559,0.048896,-0.029577
5746,-0.828394,3.385401,-6.780379,-0.040902,0.045565,-0.039570
5761,-0.639252,3.483563,-6.780379,-0.015188,0.048230,-0.046897
5776,-0.536301,3.462016,-6.897695,0.003464,0.035173,-0.048896
5791,-0.684742,3.325546,-6.770802,0.011991,0.018786,-0.044100
5806,-0.782904,3.275268,-6.775591,-0.033175,0.022783,-0.003730
5821,-0.629675,3.435679,-6.708553,-0.104320,0.012790,0.063551
5836,-0.572214,3.550601,-6.801927,-0.095660,0.024115,0.076608
5851,-0.706289,3.469198,-6.897695,-0.039969,0.003730,0.051560
5866,-0.909797,3.289633,-7.072472,0.033574,-0.012524,0.015055
5881,-0.900220,2.923320,-7.086837,0.027179,0.015588,-0.007727
5896,-0.940921,2.688689,-7.170634,-0.007727,0.030643,-0.022783
5911,-0.938527,2.655170,-6.993463,-0.061020,0.060087,-0.040902
5926,-0.794875,2.932897,-6.914454,-0.086600,0.048496,-0.062619
5941,-0.651223,3.294421,-6.833052,-0.069147,0.033308,-0.085002
5956,-0.632069,3.380613,-6.959944,-0.043833,0.044499,-0.090064
5971,-0.483629,3.574543,-6.868965,-0.019718,0.021983,-0.086201
5986,-0.636858,3.392584,-6.986280,-0.004796,0.021450,-0.076075
6001,-0.679953,3.397372,-7.005434,-0.013057,0.013723,-0.053825
6016,-0.665588,3.428497,-6.950367,-0.039570,0.027979,-0.022516
6031,-0.636858,3.339911,-6.842628,-0.068081,0.038637,0.015322
6046,-0.603339,3.462016,-6.904878,-0.053292,0.019718,0.031176
6061,-0.502782,3.452439,-6.878541,-0.012124,-0.002798,0.014655
6076,-0.627281,3.258508,-6.974309,0.042634,-0.023182,-0.024115
6091,-0.749385,3.019088,-6.907272,0.048096,-0.011458,-0.035440
6106,-1.019930,2.846706,-6.993463,0.019052,0.014655,-0.036905
6121,-0.960075,2.820369,-6.890512,-0.022383,0.023449,-0.047297
6136,-0.744597,3.011906,-6.902483,-0.049029,0.014522,-0.058489
6151,-0.790087,3.078943,-6.890512,-0.061020,0.018253,-0.065816
6166,-0.871489,3.177106,-6.962338,-0.074343,0.031043,-0.057689
6181,-0.993594,3.344700,-6.967127,-0.080605,0.019718,-0.045565
6196,-0.802058,3.550601,-7.022193,-0.081538,0.052227,-0.015055
6211,-0.701501,3.586514,-6.904878,-0.071412,0.057556,0.011991
6226,-0.778116,3.529053,-6.943185,-0.052893,0.062086,0.033841
6241,-0.823605,3.301604,-6.962338,-0.037571,0.067015,0.041835
6256,-0.617704,3.112462,-6.794744,-0.018919,0.071812,0.029311
6271,-0.502782,2.865859,-6.761226,-0.021184,0.058222,0.002265
6286,-0.593762,2.786851,-6.682217,-0.055691,0.038237,-0.017453
6301,-0.744597,2.925714,-6.746861,-0.073943,0.017054,-0.041435
6316,-0.782904,3.069366,-6.888118,-0.088066,0.012524,-0.061420
6331,-0.715866,3.236961,-7.036559,-0.059821,0.019718,-0.093928
6346,-0.746991,3.150769,-7.113173,-0.030110,0.027579,-0.124438
6361,-1.051054,3.047819,-7.079654,-0.034374,0.053159,-0.141358
6376,-0.940921,3.055001,-7.146692,-0.068614,0.086334,-0.144023
6391,-0.916979,3.160346,-7.046135,-0.081271,0.106985,-0.144423
6406,-0.931344,3.088520,-6.993463,-0.121773,0.121640,-0.133897
6421,-0.931344,3.119645,-6.931214,-0.151750,0.149619,-0.122440
6436,-0.861913,3.181894,-6.986280,-0.131100,0.122573,-0.137495
6451,-0.794875,3.064578,-6.988675,-0.080871,0.143224,-0.186391
6466,-0.749385,3.023877,-6.988675,-0.031176,0.139893,-0.254472
6481,-0.857124,2.705448,-6.988675,-0.028245,0.143757,-0.315492
6496,-0.881066,2.865859,-6.983886,-0.045698,0.145888,-0.355461
6511,-0.883460,2.822764,-7.082048,-0.077141,0.159211,-0.373181
6526,-0.912191,2.954445,-7.034164,-0.138694,0.187856,-0.356127
6541,-0.936133,3.251326,-7.072472,-0.179063,0.236619,-0.334943
6556,-0.787692,3.521871,-6.971915,-0.175599,0.232089,-0.320688
6571,-0.519542,3.679888,-6.943185,-0.170669,0.229691,-0.309629
6586,-0.478840,3.699042,-6.797139,-0.168937,0.209706,-0.284848
6601,-0.483629,3.976769,-6.622362,-0.182926,0.187723,-0.242214
6616,-0.545878,4.046201,-6.675034,-0.156680,0.162809,-0.207841
6631,-0.339977,4.070143,-6.619967,-0.097392,0.121240,-0.198781
6646,-0.328006,3.790021,-6.596025,-0.044766,0.067681,-0.208374
6661,-0.452504,3.615244,-6.526594,0.006795,0.029311,-0.237152
6676,-0.660800,3.344700,-6.543353,0.054891,0.019851,-0.276855
6691,-0.758962,2.870648,-6.478710,0.039037,0.010525,-0.319622
6706,-0.713472,2.521094,-6.528988,-0.111515,0.040769,-0.309496
6721,-0.730232,2.920926,-6.497863,-0.226626,0.011458,-0.289112
6736,-0.804452,3.217807,-6.390124,-0.264064,-0.018386,-0.296439
6751,-0.909797,3.670311,-6.624756,-0.237152,-0.036639,-0.308164
6766,-0.957681,3.991134,-6.732495,-0.193585,-0.038904,-0.293508
6781,-1.027112,3.821146,-6.912060,-0.122040,-0.009593,-0.297772
6796,-1.122881,3.787627,-7.031770,-0.039436,0.007861,-0.322686
6811,-1.259350,3.639187,-7.094019,0.030110,0.025447,-0.346934
6826,-1.007959,3.028665,-7.094019,0.073277,0.050228,-0.402358
6841,-1.273715,2.401384,-7.031770,-0.118842,0.120441,-0.378244
6856,-1.154005,2.825158,-7.127538,-0.275522,0.183859,-0.332412
6871,-0.952892,3.394978,-6.967127,-0.312427,0.180928,-0.330680
6886,-0.711078,3.751714,-6.847417,-0.266329,0.172401,-0.353329
6901,-0.708684,3.715801,-6.885724,-0.209040,0.162142,-0.370649
6916,-0.861913,3.603273,-6.969521,-0.154415,0.156680,-0.386237
6931,-1.082179,3.414132,-7.046135,-0.134031,0.168937,-0.391167
6946,-1.058237,3.442862,-7.232883,-0.029044,0.208773,-0.444060
6961,-0.986411,3.167529,-7.184999,0.098058,0.213037,-0.553309
6976,-1.063026,2.712631,-7.141903,0.185991,0.206375,-0.674283
6991,-1.307234,1.965640,-6.897695,0.149619,0.218233,-0.768878
7006,-1.537077,1.302446,-6.593631,-0.116711,0.274190,-0.747161
7021,-1.249773,1.731008,-6.651092,-0.487893,0.353462,-0.650435
7036,-0.787692,2.995146,-6.579266,-0.598475,0.289378,-0.624588
7051,-0.876278,3.574543,-6.493075,-0.553443,0.249542,-0.655764
7066,-0.869095,4.046201,-6.514623,-0.458182,0.204643,-0.694002
7081,-0.890643,4.141969,-6.490681,-0.390900,0.195850,-0.695334
7096,-1.120486,4.431667,-6.655880,-0.355994,0.231689,-0.662426
7111,-1.259350,4.532224,-6.811504,-0.272458,0.259268,-0.644839
7126,-1.168370,4.326323,-6.742072,-0.252873,0.324818,-0.609000
7141,-0.837971,4.398149,-6.672640,-0.296306,0.362789,-0.522533
7156,-0.588974,4.678270,-6.593631,-0.331346,0.348933,-0.440729
7171,-0.505177,4.824317,-6.603208,-0.308164,0.316158,-0.373847
7186,-0.380678,4.936844,-6.409278,-0.243680,0.273124,-0.336809
7201,-0.296881,4.824317,-6.354211,-0.171069,0.226760,-0.314026
7216,-0.335188,4.618415,-6.457162,-0.124971,0.177064,-0.297772
7231,-0.512359,4.405331,-6.471527,-0.088199,0.145089,-0.294974
7246,-0.653617,4.254497,-6.564901,-0.063018,0.126570,-0.291243
7261,-0.806846,3.821146,-6.488286,-0.122040,0.122573,-0.266063
7276,-0.725443,3.988740,-6.349423,-0.228358,0.141625,-0.213436
7291,-0.687136,4.345476,-6.299145,-0.251807,0.115245,-0.181861
7306,-0.648829,4.671087,-6.368577,-0.187989,0.054758,-0.182260
7321,-0.531513,4.618415,-6.394913,-0.100723,0.017853,-0.193052
7336,-0.624887,4.455609,-6.382942,-0.027312,-0.012923,-0.212237
7351,-0.814029,4.369418,-6.382942,0.030243,-0.012790,-0.225560
7366,-0.964863,4.292804,-6.430826,0.090864,-0.019985,-0.243014
7381,-0.912191,4.278439,-6.538565,0.162942,-0.022783,-0.277521
7396,-0.967257,4.082114,-6.667851,0.255271,-0.033841,-0.323485
7411,-1.268927,3.639187,-6.720524,0.294974,-0.046897,-0.349865
7426,-1.642422,2.796427,-6.775591,0.127369,0.023982,-0.302835
7441,-1.335965,3.268085,-6.845023,-0.063018,0.098858,-0.231423
7456,-1.048660,3.581726,-6.789956,-0.130034,0.085401,-0.215835
7471,-1.118092,3.775656,-6.799533,-0.148953,0.104986,-0.228092
7486,-0.993594,4.067749,-6.703764,-0.092196,0.083936,-0.256603
7501,-0.945710,4.213795,-6.679822,0.000133,0.076741,-0.290577
7516,-1.199495,3.952827,-6.799533,0.111781,0.068481,-0.338407
7531,-1.247379,3.581726,-6.801927,0.171469,0.093262,-0.385172
7546,-1.089362,3.241749,-6.734890,0.170003,0.088998,-0.431802
7561,-0.991199,3.066972,-6.629544,0.156147,0.084469,-0.478433
7576,-1.098939,3.055001,-6.624756,0.153749,0.071145,-0.533991
7591,-1.146823,3.124433,-6.457162,0.174400,0.037305,-0.579289
7606,-1.213860,2.973598,-6.560112,0.137761,0.026247,-0.596476
7621,-1.089362,3.308787,-6.490681,0.128968,0.010925,-0.606069
7636,-1.331176,2.995146,-6.775591,0.107251,-0.014789,-0.602871
7651,-1.462857,2.918532,-6.794744,-0.017587,0.024248,-0.555708
7666,-1.510741,3.153164,-6.926425,-0.101655,0.028645,-0.513873
7681,-1.474828,3.246537,-6.955156,-0.155614,0.082603,-0.489092
7696,-1.575385,3.524265,-6.945579,-0.166006,0.125371,-0.471239
7711,-1.580173,3.792415,-6.876147,-0.137361,0.196649,-0.469640
7726,-1.371878,3.730166,-6.835446,-0.103121,0.200113,-0.464178
7741,-1.122881,3.612850,-6.615179,-0.159744,0.193985,-0.426473
7756,-1.005565,3.507505,-6.569689,-0.235553,0.152150,-0.372381
7771,-1.127669,3.816357,-6.495469,-0.239017,0.122839,-0.344003
7786,-1.091756,4.098873,-6.505046,-0.171602,0.087133,-0.360790
7801,-0.995988,4.290410,-6.691793,-0.005196,0.040902,-0.419812
7816,-1.192312,4.022259,-6.763620,0.120708,0.021850,-0.468441
7831,-1.503559,3.742137,-6.833052,0.189588,0.026380,-0.476302
7846,-1.544260,3.347094,-6.864176,0.145222,0.049562,-0.448989
7861,-1.472434,3.150769,-6.919243,0.025314,0.080738,-0.389168
7876,-1.491588,3.179500,-6.811504,-0.122706,0.120708,-0.321087
7891,-1.472434,3.612850,-6.847417,-0.206375,0.127769,-0.264198
7906,-1.561020,3.794810,-6.809110,-0.235819,0.140825,-0.229824
7921,-1.443704,4.192247,-6.799533,-0.206508,0.136695,-0.206642
7936,-1.374272,4.091691,-6.758832,-0.149485,0.143890,-0.204110
7951,-1.441309,4.036624,-6.655880,-0.108983,0.136162,-0.206775
7966,-1.359907,3.940856,-6.653486,-0.063018,0.124038,-0.213436
7981,-1.249773,3.950433,-6.555324,0.009859,0.089132,-0.234221
7996,-1.242591,3.852270,-6.675034,0.083802,0.049828,-0.249942
8011,-1.300051,3.603273,-6.734890,0.148686,0.021583,-0.283783
8026,-1.599327,3.246537,-6.854599,0.190787,0.006528,-0.316158
8041,-1.745373,2.822764,-6.775591,0.162675,0.033441,-0.341605
8056,-1.649605,2.616862,-6.967127,0.062885,0.071812,-0.345202
8071,-1.616086,2.604891,-6.804321,-0.033041,0.093262,-0.344403
8086,-1.697489,2.767697,-6.722918,-0.103654,0.104720,-0.344802
8101,-1.644817,3.028665,-6.722918,-0.138028,0.099524,-0.337341
8116,-1.527501,3.165135,-6.651092,-0.196649,0.116844,-0.320688
8131,-1.448492,3.612850,-6.579266,-0.134164,0.073277,-0.333478
8146,-1.656788,3.457227,-6.648698,-0.096992,0.083403,-0.355194
8161,-1.620875,3.737349,-6.684611,0.008527,0.057822,-0.386237
8176,-1.570596,3.296816,-6.782773,0.042900,0.063152,-0.398095
8191,-1.611298,3.043030,-6.864176,-0.025580,0.089665,-0.370383
8206,-1.659182,3.019088,-6.785168,-0.097792,0.104054,-0.337341
8221,-1.683124,3.145981,-6.849811,-0.130966,0.114312,-0.317890
8236,-1.474828,3.280056,-6.797139,-0.119508,0.115378,-0.319755
8251,-1.410185,3.390190,-6.763620,-0.088332,0.128035,-0.332012
8266,-1.403002,3.541024,-6.689399,-0.009326,0.121640,-0.357193
8281,-1.312023,3.596091,-6.706159,0.106052,0.082204,-0.401692
8296,-1.235408,3.780444,-6.696582,0.282717,0.025714,-0.473237
8311,-1.527501,3.043030,-6.727706,0.333744,0.007994,-0.511608
8326,-1.745373,2.334347,-6.842628,0.183726,0.067015,-0.464577
8341,-1.659182,2.530671,-6.883330,0.018253,0.064750,-0.404224
8356,-1.620875,2.729390,-6.914454,-0.070613,0.069547,-0.373714
8371,-1.618480,3.224990,-6.859388,-0.053026,0.071545,-0.377444
8386,-1.711854,3.299210,-6.770802,0.027446,0.076075,-0.420744
8401,-1.786074,3.430891,-6.655880,0.128435,0.083003,-0.466842
8416,-1.716643,3.356671,-6.569689,0.242614,0.059421,-0.508544
8431,-1.623269,2.719813,-6.485892,0.205842,0.046098,-0.494688
8446,-1.587356,2.482787,-6.426037,0.068881,0.033841,-0.438331
8461,-1.496376,2.726996,-6.564901,-0.033708,-0.009459,-0.388103
8476,-1.620875,2.980781,-6.682217,-0.023715,-0.053159,-0.386504
8491,-1.561020,3.167529,-6.727706,0.023715,-0.066349,-0.408887
8506,-1.692701,3.385401,-6.734890,0.135230,-0.084069,-0.436199
8521,-2.061408,2.947262,-6.955156,0.213836,-0.086201,-0.460314
8536,-2.281674,2.233790,-7.015011,0.108317,-0.040103,-0.424075
8551,-2.281674,2.377442,-7.062895,-0.030243,0.015855,-0.356927
8566,-2.353500,2.511518,-7.082048,-0.164674,0.088732,-0.279652
8581,-2.197877,2.964022,-7.005434,-0.203577,0.106985,-0.237418
8596,-1.977611,3.359065,-6.847417,-0.105253,0.090464,-0.260067
8611,-1.745373,3.718195,-6.722918,0.129767,0.046498,-0.349066
8626,-1.491588,4.137180,-6.718130,0.537588,-0.029844,-0.500816
8641,-1.848324,2.346318,-6.679822,0.697599,-0.125237,-0.591946
8656,-2.296039,0.553061,-6.852205,0.324018,-0.043167,-0.512008
8671,-2.166753,0.624887,-6.866570,-0.162142,-0.039037,-0.337608
8686,-1.956063,1.599327,-7.046135,-0.458582,-0.006395,-0.225294
8701,-2.116474,2.746149,-7.038953,-0.465776,-0.022516,-0.223562
8716,-2.300828,3.323152,-7.086837,-0.291510,0.002531,-0.295773
8731,-2.233790,3.428497,-7.125144,-0.054891,0.012391,-0.386637
8746,-2.176329,3.380613,-7.060501,0.145355,0.035972,-0.453919
8761,-2.336741,2.535460,-6.962338,0.235953,0.034773,-0.468974
8776,-2.454057,1.568202,-6.833052,0.071012,0.094594,-0.398894
8791,-2.334347,1.683124,-6.797139,-0.169204,0.100723,-0.290844
8806,-2.147599,2.281674,-6.631938,-0.294041,0.115645,-0.221031
8821,-2.030283,2.609680,-6.584054,-0.289645,0.099124,-0.214902
8836,-2.097321,2.954445,-6.581660,-0.193452,0.058622,-0.246211
8851,-2.085350,2.959233,-6.713341,-0.035573,0.014123,-0.308430
8866,-2.037466,2.528277,-6.789956,0.049562,0.006928,-0.357992
8881,-2.015918,2.355894,-6.904878,0.135363,-0.011458,-0.417147
8896,-2.037466,1.752556,-6.916849,0.123106,-0.020384,-0.465110
8911,-1.975216,1.683124,-6.821081,0.049695,-0.025181,-0.490691
8926,-2.006341,1.558625,-6.859388,-0.057956,-0.039170,-0.482697
8941,-2.138022,1.680730,-6.794744,-0.201579,-0.004796,-0.439130
8956,-2.377442,2.015918,-6.825869,-0.310962,0.004130,-0.394364
8971,-2.449268,2.528277,-6.833052,-0.326816,0.014256,-0.368518
8986,-2.444480,3.071761,-6.883330,-0.211704,0.013323,-0.389168
9001,-2.427721,3.098097,-6.945579,-0.063418,0.003730,-0.430470
9016,-2.473210,2.870648,-6.833052,0.073677,0.005596,-0.472971
9031,-2.442086,2.322376,-6.804321,0.121507,-0.009726,-0.497352
9046,-2.293645,2.070984,-6.797139,0.085801,-0.020917,-0.494421
9061,-2.310405,1.855506,-6.694188,0.007994,-0.020518,-0.465510
9076,-2.358289,1.865083,-6.677428,-0.074077,-0.021983,-0.435266
9091,-2.415750,1.908179,-6.801927,-0.138427,-0.018786,-0.423009
9106,-2.384625,2.221819,-6.751649,-0.149219,-0.024248,-0.428338
9121,-2.317587,2.406173,-6.701370,-0.095394,-0.035040,-0.458182
9136,-2.511518,2.334347,-6.801927,-0.031043,-0.052493,-0.486827
9151,-2.748544,2.030283,-6.840234,-0.045299,-0.062086,-0.479499
9166,-2.829946,1.972822,-6.835446,-0.140692,-0.053692,-0.429671
9181,-2.815581,2.075773,-6.842628,-0.234887,-0.033574,-0.366652
9196,-2.829946,2.327164,-6.840234,-0.273124,-0.012124,-0.331479
9211,-2.841917,2.609680,-6.773197,-0.234221,-0.015721,-0.329614
9226,-2.703054,2.705448,-6.732495,-0.132698,-0.019851,-0.355328
9241,-2.765303,2.387019,-6.916849,-0.083403,-0.020917,-0.374646
9256,-2.873042,1.924938,-6.940791,-0.139493,0.002665,-0.350531
9271,-2.997540,1.944092,-6.840234,-0.234753,0.019585,-0.309896
9286,-3.114856,2.200271,-6.734890,-0.283916,0.050628,-0.279253
9301,-2.889802,2.566584,-6.538565,-0.267395,0.047297,-0.267662
9316,-2.820369,2.731784,-6.557718,-0.196783,0.024381,-0.271525
9331,-2.846706,2.638410,-6.557718,-0.106985,-0.002265,-0.295907
9346,-2.858677,2.557007,-6.684611,-0.026380,-0.029711,-0.314159
9361,-2.858677,2.300828,-6.799533,0.002398,-0.042234,-0.327349
9376,-2.968810,2.176329,-6.912060,0.002398,-0.042767,-0.339207
9391,-3.114856,1.968034,-6.859388,-0.010925,-0.024381,-0.343337
9406,-3.081337,2.035071,-6.892907,-0.028112,0.009726,-0.344802
9421,-2.990358,2.087744,-6.720524,-0.050628,0.024248,-0.342937
9436,-2.899378,2.224213,-6.641515,-0.065017,0.021717,-0.329348
9451,-2.877831,2.181118,-6.636727,-0.077541,-0.000133,-0.310429
9466,-3.002329,2.463634,-6.622362,-0.056623,-0.013323,-0.301902
9481,-2.968810,2.418144,-6.722918,-0.007194,-0.026113,-0.310162
9496,-2.952051,2.329558,-6.734890,0.005196,-0.011325,-0.310162
9511,-2.913743,2.422932,-6.775591,0.056890,-0.020917,-0.322286
9526,-2.937685,2.415750,-6.653486,0.127236,-0.035440,-0.336809
9541,-2.868254,2.161964,-6.552930,0.135096,-0.048230,-0.325217
9556,-2.817975,2.039860,-6.663063,0.110582,-0.053825,-0.300703
9571,-2.858677,2.049437,-6.720524,0.093395,-0.065417,-0.280452
9586,-2.961627,1.800440,-6.828263,0.049828,-0.068747,-0.255671
9601,-3.095703,1.781286,-6.823475,-0.005462,-0.054092,-0.227026
9616,-2.937685,1.843535,-6.739678,-0.040769,-0.055424,-0.203844
9631,-3.023877,1.810017,-6.754043,-0.105519,-0.030243,-0.175199
9646,-3.050213,1.910573,-6.739678,-0.137894,-0.029311,-0.159478
9661,-2.999935,2.025495,-6.667851,-0.129634,-0.030377,-0.157879
9676,-2.916138,2.130840,-6.572083,-0.111914,-0.039836,-0.150018
9691,-2.947262,2.073379,-6.720524,-0.093262,-0.054358,-0.152550
9706,-3.016694,1.946486,-6.730101,-0.052093,-0.053692,-0.167871
9721,-3.045424,1.929726,-6.825869,-0.002931,-0.066482,-0.201446
9736,-3.040636,1.786074,-6.742072,0.018253,-0.065017,-0.237418
9751,-3.002329,1.821988,-6.627150,0.021450,-0.055424,-0.257136
9766,-3.117250,1.759738,-6.677428,0.023715,-0.068481,-0.269394
9781,-3.359065,1.790863,-6.689399,0.030110,-0.071412,-0.277254
9796,-3.426103,1.898602,-6.572083,0.040369,-0.067815,-0.263531
9811,-3.418920,1.872266,-6.739678,0.054358,-0.054758,-0.241815
9826,-3.404555,1.958457,-6.749255,0.081804,-0.061420,-0.228358
9841,-3.445256,1.833959,-6.660669,0.104453,-0.071279,-0.214902
9856,-3.313575,1.582567,-6.754043,0.093662,-0.074609,-0.210639
9871,-3.244143,1.369483,-6.672640,0.051560,-0.075009,-0.206775
9886,-3.325546,1.436521,-6.651092,0.031709,-0.068214,-0.220231
9901,-3.411737,1.434127,-6.734890,0.017054,-0.077008,-0.230623
9916,-3.404555,1.493982,-6.701370,0.017587,-0.087133,-0.233554
9931,-3.251326,1.620875,-6.536170,0.017453,-0.084202,-0.240882
9946,-3.421314,1.836353,-6.615179,0.065150,-0.114312,-0.257136
9961,-3.591302,1.757344,-6.521805,0.129101,-0.103387,-0.279786
9976,-3.557784,1.896208,-6.323087,0.211704,-0.107651,-0.288046
9991,-3.323152,1.951274,-6.291962,0.278587,-0.131766,-0.280985
10006,-3.445256,1.486799,-6.418855,0.292576,-0.185991,-0.249675
10021,-3.497929,0.754174,-6.593631,0.132965,-0.199314,-0.171069
10036,-3.622427,0.933739,-6.677428,0.005329,-0.212770,-0.106319
10051,-3.718195,1.086968,-6.880936,-0.076741,-0.189855,-0.079806
10066,-3.665523,1.091756,-6.878541,-0.109916,-0.140959,-0.077407
10081,-3.775656,1.012747,-6.936002,-0.140825,-0.088066,-0.092995
10096,-3.677494,1.063026,-6.895301,-0.132698,-0.047830,-0.131233
10111,-3.464410,1.144428,-6.766014,-0.112714,-0.053292,-0.179196
10126,-3.533842,1.216254,-6.641515,-0.103521,-0.074210,-0.197315
10141,-3.756502,1.194707,-6.737284,-0.103121,-0.072877,-0.195450
10156,-3.921702,1.252167,-6.672640,-0.108184,-0.036905,-0.175599
10171,-3.806781,1.211466,-6.627150,-0.130433,-0.009859,-0.152417
10186,-3.768473,1.321599,-6.454768,-0.160011,-0.002265,-0.123106
10201,-3.936068,1.426944,-6.514623,-0.168937,0.002398,-0.092063
10216,-3.933673,1.611298,-6.493075,-0.152150,0.023582,-0.069547
10231,-3.801992,1.640028,-6.457162,-0.108983,0.009593,-0.057556
10246,-3.699042,1.656788,-6.394913,-0.054891,0.000533,-0.060753
10261,-3.818752,1.328782,-6.385336,-0.035306,-0.011724,-0.071145
10276,-3.981557,1.249773,-6.291962,-0.035040,-0.001599,-0.073943
10291,-3.737349,1.256956,-6.251261,-0.044100,-0.007994,-0.073810
10306,-3.536236,1.304840,-6.169858,-0.049562,-0.034240,-0.077407
10321,-3.584120,1.412579,-6.129156,-0.003198,-0.073544,-0.090864
10336,-3.739743,1.273715,-6.105214,0.025314,-0.107384,-0.102188
10351,-3.782839,1.357512,-6.229712,0.030910,-0.119908,-0.102721
10366,-3.670311,1.386243,-6.428432,0.058489,-0.154815,-0.106718
10381,-3.883395,1.532289,-6.584054,0.142557,-0.174133,-0.132698
10396,-4.134786,1.139640,-6.797139,0.192386,-0.173734,-0.152150
10411,-4.362236,0.770933,-6.871359,0.141625,-0.118043,-0.155081
10426,-4.163517,0.663194,-6.766014,0.048896,-0.055824,-0.137628
10441,-4.074931,0.605733,-6.737284,-0.055824,-0.017587,-0.116311
10456,-3.995923,0.787692,-6.524199,-0.131499,-0.006795,-0.106718
10471,-4.007894,0.852336,-6.471527,-0.188655,0.009593,-0.102721
10486,-3.948039,1.110910,-6.325481,-0.207974,0.005063,-0.098325
10501,-3.804386,1.216254,-6.253655,-0.193985,-0.019985,-0.097525
10516,-3.907337,1.441309,-6.234501,-0.146688,-0.053959,-0.109383
10531,-3.931279,1.620875,-6.294356,-0.062885,-0.070213,-0.129634
10546,-3.859453,1.675941,-6.306327,0.045165,-0.083802,-0.153216
10561,-3.823540,1.515530,-6.217741,0.113913,-0.100323,-0.167605
10576,-3.950433,1.151611,-6.193799,0.142824,-0.115645,-0.169070
10591,-4.139575,0.782904,-6.378153,0.060087,-0.101123,-0.144023
10606,-4.019865,0.845153,-6.342240,-0.012790,-0.081538,-0.111648
10621,-3.936068,0.648829,-6.452374,-0.104453,-0.058888,-0.080205
10636,-4.005499,0.739808,-6.380548,-0.206642,-0.037438,-0.043567
10651,-4.101267,1.003170,-6.260838,-0.247810,-0.040902,-0.025714
10666,-4.007894,1.321599,-6.251261,-0.233288,-0.035573,-0.024648
10681,-3.948039,1.450886,-6.289568,-0.193319,-0.052227,-0.029844
10696,-4.007894,1.261744,-6.157887,-0.172534,-0.066749,-0.030243
10711,-4.041412,1.225831,-6.469133,-0.166273,-0.094861,-0.033175
10726,-4.247314,1.338359,-6.476315,-0.145888,-0.107518,-0.034507
10741,-4.345476,1.259350,-6.588843,-0.146421,-0.088998,-0.034907
10756,-4.419696,1.218649,-6.598420,-0.171069,-0.032242,-0.021583
10771,-4.489128,1.177947,-6.540959,-0.196649,0.007861,-0.007994
10786,-4.369418,1.256956,-6.505046,-0.191320,0.029311,-0.017187
10801,-4.077325,1.331176,-6.370971,-0.173334,0.024381,-0.025980
10816,-4.058172,1.271321,-6.294356,-0.164541,0.001998,-0.024648
10831,-4.244920,1.163582,-6.265626,-0.161743,-0.015855,-0.015721
10846,-4.134786,1.149217,-6.145916,-0.170270,-0.026113,-0.000533
10861,-4.163517,1.297657,-6.253655,-0.183459,-0.036106,0.009726
10876,-4.137180,1.424550,-6.289568,-0.176265,-0.038237,0.009193
10891,-4.343082,1.261744,-6.327875,-0.142025,-0.013856,-0.020784
10906,-4.319140,1.165976,-6.186617,-0.131766,0.021450,-0.052360
10921,-4.103662,1.161188,-6.095637,-0.127236,0.032642,-0.085135
10936,-3.957615,1.094150,-6.040571,-0.150685,0.023315,-0.110982
10951,-4.012682,1.122881,-6.107608,-0.146954,0.007194,-0.141358
10966,-4.046201,1.154005,-6.040571,-0.132299,-0.006928,-0.159877
10981,-4.017470,1.067814,-5.942409,-0.165606,-0.022649,-0.155614
10996,-4.024653,0.976834,-6.047753,-0.261799,-0.025447,-0.124305
11011,-4.144363,1.079785,-5.973533,-0.338008,-0.030643,-0.099391
11026,-4.280833,1.221043,-6.066907,-0.362389,-0.045032,-0.107118
11041,-4.259285,1.335965,-6.169858,-0.348000,-0.043833,-0.131233
11056,-4.314352,1.599327,-6.148310,-0.343337,-0.049029,-0.144556
11071,-4.343082,1.520318,-6.222530,-0.298571,-0.051427,-0.170802
11086,-4.489128,1.458069,-6.078878,-0.268061,-0.055957,-0.188922
11101,-4.431667,1.570596,-6.129156,-0.260600,-0.048230,-0.191187
11116,-4.383783,1.685518,-6.229712,-0.224628,-0.048629,-0.195983
11131,-4.395754,1.537077,-6.191405,-0.189322,-0.050095,-0.211172
11146,-4.537012,1.319205,-6.105214,-0.197449,-0.062619,-0.221164
11161,-4.565742,1.410185,-6.215347,-0.240216,-0.074077,-0.206375
11176,-4.575319,1.436521,-6.318298,-0.288979,-0.083802,-0.183459
11191,-4.728548,1.544260,-6.236896,-0.333877,-0.060753,-0.152683
11206,-4.888960,1.771709,-6.244078,-0.349466,-0.016787,-0.130433
11221,-4.769250,1.982399,-6.296751,-0.299371,0.024381,-0.144556
11236,-4.527435,2.037466,-6.311116,-0.244080,0.027312,-0.159744
11251,-4.491522,1.994370,-6.327875,-0.200779,0.010925,-0.176132
11266,-4.517859,1.721431,-6.124368,-0.197982,-0.000400,-0.174000
11281,-4.489128,1.726219,-5.954380,-0.220231,-0.019452,-0.166939
11296,-4.352659,1.944092,-5.801151,-0.248609,-0.041701,-0.150018
11311,-4.537012,2.066196,-5.908890,-0.260067,-0.039170,-0.132032
11326,-4.560954,2.130840,-5.868188,-0.231156,-0.010392,-0.118842
11341,-4.517859,1.996764,-5.889736,-0.248077,0.016121,-0.090331
11356,-4.450821,1.896208,-6.114791,-0.284982,0.043700,-0.053026
11371,-4.515464,1.987187,-6.050148,-0.286447,0.018386,-0.038770
11386,-4.517859,2.070984,-6.100426,-0.271392,0.018786,-0.037038
11401,-4.232948,2.145205,-5.940014,-0.244746,-0.016521,-0.041302
11416,-4.362236,2.169147,-5.841852,-0.227159,-0.050228,-0.032109
11431,-4.489128,2.195483,-5.899313,-0.202778,-0.085534,-0.021051
11446,-4.592079,2.164358,-5.829881,-0.184126,-0.116711,-0.010525
11461,-4.738125,2.154782,-5.951985,-0.184525,-0.088732,-0.003597
11476,-4.819528,2.008735,-5.935226,-0.198781,-0.046897,0.007061
11491,-4.759673,1.939303,-5.983110,-0.222496,-0.007727,0.018253
11506,-4.589684,2.047042,-5.810728,-0.229691,-0.001199,0.019319
11521,-4.398149,2.020706,-5.777209,-0.230890,-0.017853,0.010259
11536,-4.381389,1.996764,-5.595249,-0.229424,-0.038237,-0.011191
11551,-4.405331,1.982399,-5.650316,-0.247011,-0.057423,-0.015588
11566,-4.589684,2.061408,-5.798757,-0.271126,-0.075809,-0.014655
11581,-4.565742,2.229002,-5.839458,-0.266329,-0.083403,-0.010525
11596,-4.572925,2.255338,-5.846641,-0.249142,-0.084202,-0.019718
11611,-4.862624,2.322376,-6.033388,-0.246744,-0.068881,-0.012257
11626,-4.922479,2.365471,-6.236896,-0.225694,-0.027579,-0.012124
11641,-5.056554,2.324770,-6.464345,-0.293109,-0.012524,0.009859
11656,-4.723760,2.324770,-6.186617,-0.255538,0.037571,0.018652
11671,-4.900931,2.925714,-6.394913,-0.261533,-0.000933,0.041968
11686,-5.250484,2.810793,-6.438008,-0.165074,0.065283,0.005729
11701,-4.709394,2.252944,-6.186617,-0.173067,0.099923,0.001199
11716,-4.742914,2.798822,-6.347029,-0.158412,0.091397,0.012391
11731,-4.692635,2.252944,-6.143521,-0.143357,0.081005,-0.004530
11746,-4.683058,1.987187,-5.789180,-0.190521,0.050228,0.013456
11761,-4.721365,2.291251,-5.930438,-0.204243,0.081937,0.022516
11776,-4.865018,2.791639,-6.196194,-0.209706,0.107384,0.022250
11791,-4.709394,2.485181,-5.815516,-0.201046,0.118309,0.031043
11806,-4.635174,2.138022,-5.657498,-0.231023,0.092063,0.038237
11821,-4.575319,2.114080,-5.770026,-0.261266,0.150951,0.035839
11836,-4.323928,2.181118,-5.549759,-0.265930,0.108184,0.029044
11851,-4.343082,2.315193,-5.439626,-0.273391,0.092196,0.016121
11866,-4.400543,2.518700,-5.389348,-0.302035,0.100989,0.015322
11881,-4.412514,2.372654,-5.540183,-0.336409,0.082337,0.018786
11896,-4.534618,2.547431,-5.695806,-0.409020,0.134164,0.051028
11911,-4.496311,2.681506,-5.863400,-0.420478,0.183193,0.071279
11926,-4.501099,3.028665,-5.930438,-0.446325,0.196116,0.092063
11941,-4.644751,3.086126,-6.124368,-0.376245,0.160277,0.069680
11956,-4.584896,3.442862,-6.131550,-0.327616,0.216368,0.054225
11971,-4.422091,3.552995,-5.884948,-0.244479,0.193185,0.026913
11986,-4.273650,3.428497,-5.846641,-0.196783,0.181994,0.025847
12001,-4.050989,3.287239,-5.961562,-0.130433,0.122573,0.007061
12016,-4.101267,3.260903,-5.623980,-0.099124,0.074077,0.004796
12031,-4.170699,3.129222,-5.645527,-0.031043,-0.003464,-0.025580
12046,-4.316746,2.892196,-5.664681,-0.041435,-0.008793,-0.018652
12061,-4.527435,2.964022,-5.920861,-0.063685,-0.012257,-0.001732
12076,-4.620809,3.136404,-5.935226,-0.074210,0.036372,0.010792
12091,-4.580108,3.191471,-5.959168,-0.069280,0.101522,0.012391
12106,-4.402937,3.086126,-5.899313,-0.073677,0.148686,0.008127
12121,-4.209006,3.055001,-5.686229,-0.074476,0.139893,-0.009459
12136,-4.072537,3.184288,-5.623980,-0.062219,0.116444,-0.021450
12151,-4.060566,3.473987,-5.686229,-0.012124,0.087000,-0.043833
12166,-4.271256,3.495534,-5.837064,0.054758,0.098191,-0.062485
12181,-4.295198,3.337517,-5.815516,0.103920,0.078473,-0.071279
12196,-4.132392,3.014300,-5.753267,0.134963,0.078740,-0.082070
12211,-4.254497,3.023877,-5.877765,0.153616,0.062219,-0.082204
12226,-4.364630,3.028665,-5.841852,0.157613,0.089398,-0.075675
12241,-4.378995,2.758120,-5.932832,0.145355,0.165606,-0.071412
12256,-4.180276,2.985569,-5.810728,0.116844,0.146554,-0.057023
12271,-3.804386,2.801216,-5.861006,0.132832,0.067415,-0.085934
12286,-3.785233,2.789245,-5.894525,0.149086,0.045299,-0.138427
12301,-4.335899,2.679112,-5.937620,0.150951,0.016387,-0.152683
12316,-4.340688,3.088520,-5.832275,0.160144,-0.025181,-0.143623
12331,-4.376601,2.971204,-5.894525,0.161077,-0.009859,-0.127636
12346,-4.290410,2.583344,-6.143521,0.109250,0.034507,-0.093662
12361,-4.522647,2.238579,-5.990293,0.041835,0.100856,-0.069547
12376,-4.331111,2.149993,-5.937620,-0.011325,0.107651,-0.054092
12391,-4.225766,2.427721,-5.880159,-0.053692,0.115112,-0.050761
12406,-4.170699,2.492364,-6.016629,-0.096859,0.111515,-0.039170
12421,-4.211401,2.712631,-5.868188,-0.095926,0.101922,-0.035706
12436,-4.182670,2.899378,-5.966351,-0.059421,0.062485,-0.048763
12451,-4.134786,2.961627,-5.947197,-0.040902,0.033441,-0.047430
12466,-4.036624,2.806004,-5.999869,-0.005862,0.027446,-0.051294
12481,-4.259285,2.573767,-6.011840,-0.005862,0.035972,-0.048230
12496,-4.381389,2.504335,-6.071695,-0.019319,0.077141,-0.031709
12511,-4.177882,2.676718,-5.975927,-0.018652,0.064351,-0.034507
12526,-4.129998,2.461239,-5.971139,-0.039703,0.058489,-0.029577
12541,-4.122815,2.518700,-6.045359,-0.063418,0.046631,-0.019851
12556,-4.163517,2.607285,-6.064513,-0.080738,0.003064,-0.019319
12571,-4.158728,2.655170,-6.066907,-0.092862,0.000666,-0.017986
12586,-4.158728,2.631228,-6.074090,-0.098858,0.010925,-0.019185
12601,-4.230554,2.770091,-5.983110,-0.106452,0.007461,-0.013590
12616,-4.252102,2.700660,-5.918467,-0.094594,0.036106,-0.020917
12631,-4.220977,2.839523,-5.932832,-0.081404,0.028778,-0.028245
12646,-4.156334,2.817975,-6.011840,-0.074476,0.031975,-0.031842
12661,-4.074931,2.686294,-6.004658,-0.076475,0.035706,-0.030776
12676,-4.264073,2.638410,-5.966351,-0.079672,0.024515,-0.029844
12691,-4.254497,2.659958,-6.019023,-0.089398,0.017720,-0.022116
12706,-4.118027,2.712631,-6.023811,-0.094328,0.019585,-0.023848
12721,-4.134786,2.738967,-5.913678,-0.082737,0.030110,-0.027179
12736,-4.299986,2.750938,-5.796362,-0.069547,0.047830,-0.018786
12751,-4.292804,2.719813,-5.942409,-0.061153,0.040236,-0.011058
12766,-4.106056,2.734178,-5.992687,-0.062619,0.051161,-0.011058
12781,-4.127604,2.640805,-5.985504,-0.067015,0.049695,-0.011458
12796,-4.120421,2.750938,-5.997475,-0.067282,0.042101,-0.015721
12811,-4.242526,2.873042,-6.076484,-0.051294,0.037305,-0.021983
12826,-4.103662,2.858677,-5.944803,-0.047963,0.023582,-0.028511
12841,-4.168305,2.825158,-5.846641,-0.042501,0.018119,-0.032109
12856,-4.199430,2.726996,-5.944803,-0.041568,0.030243,-0.042368
12871,-4.266468,2.762909,-6.021417,-0.042101,0.019585,-0.042234
12886,-4.204218,2.679112,-5.913678,-0.055424,0.033574,-0.042101
12901,-4.113238,2.791639,-5.844246,-0.054092,0.035306,-0.037704
12916,-4.192247,2.810793,-5.849035,-0.039969,0.043700,-0.038770
12931,-4.211401,2.801216,-5.872977,-0.033175,0.044233,-0.031176
12946,-4.192247,2.681506,-5.932832,-0.035173,0.040369,-0.023049
12961,-4.113238,2.547431,-5.971139,-0.053159,0.041968,-0.017720
12976,-4.232948,2.643199,-5.916072,-0.077008,0.046498,0.000400
12991,-4.213795,2.715025,-5.959168,-0.058755,0.024381,0.000000
13006,-4.156334,2.762909,-5.980716,-0.043167,0.039170,-0.005462
13021,-4.082114,2.695871,-5.999869,-0.040502,0.026913,-0.006395
13036,-4.118027,2.712631,-6.057330,-0.035173,0.037971,-0.007061
13051,-4.302381,2.715025,-6.026206,-0.037038,0.036505,-0.007461
13066,-4.141969,2.700660,-6.045359,-0.044100,0.034107,-0.003464
13081,-4.086902,2.741361,-5.930438,-0.045965,0.038504,0.000000
13096,-4.031836,2.779668,-5.961562,-0.041835,0.033175,-0.000799
13111,-4.220977,2.796427,-6.009446,-0.033175,0.036772,0.001865
13126,-4.153940,2.746149,-5.918467,-0.024781,0.026380,0.004397
13141,-4.067749,2.707842,-6.019023,-0.031709,0.031176,0.004397
13156,-4.027047,2.712631,-5.995081,-0.051560,0.025580,0.005196
13171,-4.137180,2.777274,-6.035782,-0.055691,0.029044,0.004663
13186,-4.211401,2.856282,-6.021417,-0.041701,0.019319,-0.002665
13201,-4.137180,2.841917,-6.081272,-0.033041,0.025181,-0.011724
13216,-4.065354,2.834735,-5.968745,-0.017720,0.032775,-0.013590
13231,-4.118027,2.729390,-6.009446,-0.003730,0.022916,-0.020118
13246,-4.170699,2.662352,-5.913678,0.002265,0.028112,-0.014123
13261,-4.094085,2.700660,-5.906496,0.006528,0.027179,-0.008926
13276,-4.060566,2.724602,-5.951985,0.025714,0.027712,-0.002265
13291,-4.201824,2.621651,-5.968745,0.025847,0.016121,0.003464
13306,-4.211401,2.571373,-6.023811,0.009060,0.031443,0.007194
13321,-4.134786,2.681506,-5.949591,0.000666,0.029577,0.013856
13336,-4.072537,2.734178,-6.014235,-0.001199,0.038637,0.015055
13351,-4.199430,2.652776,-6.054936,-0.004130,0.043433,0.013323
13366,-4.189853,2.652776,-6.035782,-0.009326,0.048230,0.015988
13381,-4.106056,2.655170,-6.035782,-0.023182,0.047564,0.010658
13396,-4.005499,2.726996,-6.028600,-0.030643,0.052093,0.010925
13411,-4.084508,2.726996,-5.992687,-0.022116,0.043300,0.006395
13426,-4.189853,2.712631,-6.047753,-0.017853,0.049695,0.004397
13441,-4.144363,2.624045,-6.045359,-0.023715,0.045698,0.003997
13456,-3.979163,2.738967,-6.119579,-0.037038,0.052626,0.007861
13471,-4.007894,2.760514,-6.062119,-0.038104,0.030110,0.008394
13486,-4.082114,2.691083,-6.004658,-0.037571,0.034374,0.005995
13501,-4.106056,2.767697,-6.054936,-0.038904,0.021317,0.005729
13516,-3.974375,2.849100,-5.992687,-0.033574,0.013323,-0.000266
13531,-4.050989,2.719813,-6.052542,-0.024515,0.013456,0.005862
13546,-4.098873,2.614468,-6.035782,-0.027712,0.017853,0.005196
13561,-4.089296,2.669535,-6.112397,-0.028511,0.024381,0.006262
13576,-4.060566,2.652776,-5.987898,-0.032508,0.019319,0.006662
13591,-4.050989,2.693477,-6.002264,-0.035173,0.029444,0.005862
13606,-4.194641,2.726996,-5.990293,-0.033041,0.029711,0.001199
13621,-4.156334,2.691083,-6.057330,-0.029178,0.041035,-0.005462
13636,-4.031836,2.726996,-6.042965,-0.028112,0.038237,-0.003198
13651,-3.964798,2.691083,-5.987898,-0.033841,0.040502,-0.002665
13666,-4.067749,2.655170,-5.995081,-0.035573,0.038770,0.007994
13681,-4.125209,2.631228,-6.064513,-0.034773,0.040369,0.006662
13696,-4.010288,2.784456,-6.047753,-0.027046,0.035040,0.010126
13711,-3.967192,2.712631,-6.119579,-0.031176,0.031309,0.015055
13726,-4.034230,2.655170,-6.064513,-0.040902,0.028645,0.014922
13741,-4.134786,2.683900,-5.951985,-0.041835,0.029977,0.015988
13756,-4.050989,2.817975,-6.016629,-0.030643,0.023449,0.011191
13771,-3.991134,2.767697,-6.071695,-0.021184,0.021983,0.007594
13786,-4.034230,2.624045,-6.066907,-0.025580,0.022916,0.006129
13801,-4.129998,2.636016,-6.009446,-0.035706,0.023848,0.011458
13816,-4.058172,2.619257,-6.107608,-0.045165,0.023182,0.013856
13831,-3.991134,2.750938,-6.071695,-0.042234,0.021184,0.013190
13846,-4.034230,2.669535,-6.083666,-0.039303,0.023049,0.014123
13861,-4.101267,2.750938,-5.963956,-0.030910,0.022250,0.013190
13876,-4.010288,2.750938,-5.983110,-0.027046,0.020518,0.009992
13891,-3.971981,2.743755,-6.119579,-0.031043,0.033175,0.008926
13906,-3.960010,2.762909,-6.076484,-0.025181,0.017320,0.009593
13921,-4.048595,2.674323,-6.030994,-0.025314,0.028911,0.011858
13936,-4.046201,2.784456,-6.026206,-0.022250,0.015322,0.013989
13951,-3.931279,2.784456,-6.028600,-0.029044,0.022516,0.017453
13966,-3.993528,2.779668,-6.081272,-0.029444,0.026779,0.016121
13981,-4.086902,2.724602,-6.011840,-0.027446,0.022516,0.011191
13996,-4.082114,2.770091,-6.038177,-0.026247,0.022516,0.008527
14011,-3.993528,2.683900,-6.081272,-0.024381,0.024381,0.011458
14026,-3.988740,2.715025,-6.083666,-0.025047,0.022649,0.011191
14041,-4.048595,2.686294,-6.086061,-0.026513,0.025447,0.011058
14056,-4.079720,2.643199,-6.030994,-0.024515,0.021850,0.014522
14071,-4.048595,2.762909,-6.088455,-0.029444,0.019052,0.007994
14086,-3.919308,2.758120,-6.021417,-0.028911,0.024781,0.007328
14101,-4.046201,2.743755,-5.918467,-0.028645,0.025047,0.003331
14116,-4.058172,2.722207,-6.023811,-0.025047,0.031309,0.006795
14131,-4.003105,2.772485,-6.028600,-0.024515,0.031975,0.002132
14146,-3.890578,2.791639,-6.066907,-0.018919,0.033974,0.002798
14161,-3.979163,2.738967,-6.126762,-0.018386,0.027179,-0.000933
14176,-4.024653,2.676718,-6.093243,-0.022783,0.015322,-0.005329
14191,-3.993528,2.719813,-6.016629,-0.028511,0.010259,-0.001732
14206,-3.931279,2.750938,-6.165069,-0.031975,0.001599,-0.002531
14221,-4.050989,2.736573,-6.081272,-0.026779,0.001998,-0.003464
14236,-4.086902,2.636016,-6.054936,-0.023848,0.008793,-0.003331
14251,-4.022259,2.746149,-6.098032,-0.016521,0.015988,-0.001865
14266,-3.909731,2.703054,-6.112397,-0.017453,0.014789,0.004263
14281,-3.995923,2.609680,-6.004658,-0.025047,0.017720,0.003597
14296,-4.084508,2.621651,-6.102820,-0.035839,0.014256,0.004397
14311,-4.041412,2.693477,-6.153098,-0.036505,0.017054,0.008660
14326,-3.900155,2.774880,-6.059724,-0.029844,0.016387,0.008527
14341,-3.988740,2.715025,-6.026206,-0.027979,0.023049,0.007594
14356,-4.031836,2.707842,-6.107608,-0.025181,0.018119,0.003064
14371,-4.065354,2.695871,-6.074090,-0.029977,0.025714,0.004663
14386,-3.919308,2.803610,-6.021417,-0.026913,0.019585,0.000666
14401,-3.964798,2.688689,-6.100426,-0.026513,0.017720,-0.001865
14416,-4.094085,2.681506,-6.126762,-0.028778,0.026913,0.002931
14431,-4.019865,2.686294,-6.007052,-0.030776,0.019452,0.002798
14446,-3.907337,2.774880,-6.081272,-0.039969,0.023315,0.001332
14461,-3.936068,2.726996,-6.054936,-0.037038,0.018652,-0.000533
14476,-4.058172,2.607285,-5.961562,-0.037038,0.024381,0.000666
14491,-4.027047,2.691083,-6.038177,-0.039303,0.023049,0.003464
14506,-3.986346,2.667141,-6.062119,-0.041568,0.026779,0.004796
14521,-3.967192,2.746149,-6.064513,-0.036639,0.023049,0.002931
14536,-4.000711,2.667141,-6.040571,-0.031176,0.020518,0.000000
14551,-4.072537,2.703054,-6.131550,-0.032375,0.019185,0.002265
14566,-3.993528,2.724602,-6.030994,-0.034773,0.025447,-0.000533
14581,-3.943250,2.782062,-6.093243,-0.032642,0.009060,0.002531
14596,-4.010288,2.686294,-6.165069,-0.035173,0.013856,0.004397
14611,-4.048595,2.597709,-6.081272,-0.042101,0.014789,0.010259
14626,-3.931279,2.753332,-5.978322,-0.040769,0.019585,0.009326
14641,-3.940856,2.717419,-6.019023,-0.036372,0.017187,0.009193
14656,-3.983952,2.669535,-6.136339,-0.033308,0.024381,0.003997
14671,-4.098873,2.643199,-6.081272,-0.035839,0.017853,0.003064
14686,-3.955221,2.647987,-6.028600,-0.043567,0.017720,0.002665
14701,-3.950433,2.772485,-6.117185,-0.043966,0.015455,0.004397
14716,-3.900155,2.700660,-6.023811,-0.040502,0.008527,0.002132
14731,-4.072537,2.710236,-6.112397,-0.035306,0.013989,-0.001199
14746,-3.998317,2.691083,-6.057330,-0.037172,0.011858,-0.001466
14761,-3.909731,2.748544,-6.093243,-0.039303,0.020384,-0.000266
14776,-3.902549,2.707842,-6.112397,-0.041835,0.013856,-0.001865
14791,-4.072537,2.686294,-6.110003,-0.039570,0.018253,-0.001732
14806,-4.017470,2.705448,-6.083666,-0.036772,0.011991,-0.000400
14821,-3.928885,2.691083,-6.021417,-0.041035,0.011058,0.007328
14836,-3.895366,2.724602,-6.052542,-0.046231,0.020784,0.008926
14851,-4.046201,2.693477,-6.069301,-0.044100,0.017320,0.007727
14866,-4.043807,2.813187,-6.071695,-0.031709,0.020651,0.015721
14881,-4.005499,2.446874,-5.920861,-0.012257,-0.001066,0.018386
14896,-3.727772,2.777274,-6.086061,-0.068214,0.031975,0.024115
14911,-4.103662,2.762909,-6.045359,-0.053559,0.016254,0.018652
14926,-4.058172,2.877831,-6.169858,-0.034107,0.001332,0.015055
14941,-4.017470,2.683900,-5.999869,-0.036639,0.016121,0.016254
14956,-3.933673,2.669535,-6.088455,-0.043700,0.013323,0.020118
14971,-3.964798,2.604891,-6.117185,-0.055158,0.013057,0.023982
14986,-3.995923,2.743755,-6.110003,-0.054358,0.014522,0.023049
15001,-3.950433,2.935291,-6.081272,-0.036772,0.018386,0.015322
15016,-3.871424,2.825158,-5.930438,-0.027312,0.006928,0.002132
15031,-3.971981,2.782062,-6.124368,-0.032375,0.014655,0.003198
15046,-4.060566,2.726996,-6.100426,-0.031975,0.008127,-0.003597
15061,-3.945644,2.813187,-6.028600,-0.039170,0.006528,-0.004796
15076,-3.914520,2.762909,-5.999869,-0.032642,0.005329,-0.002398
15091,-3.960010,2.693477,-6.047753,-0.035306,0.009726,-0.000533
15106,-4.082114,2.691083,-6.095637,-0.037438,0.020118,0.000533
15121,-4.060566,2.779668,-6.133945,-0.032908,0.013190,0.000266
15136,-3.916914,2.770091,-6.071695,-0.031443,0.018119,-0.002798
15151,-4.060566,2.717419,-6.160281,-0.026380,0.011858,-0.001998
15166,-3.971981,2.703054,-6.090849,-0.038237,0.009459,-0.003331
15181,-3.962404,2.712631,-6.078878,-0.045165,0.011191,0.003864
15196,-4.060566,2.760514,-6.133945,-0.045299,0.006262,0.005995
15211,-4.096479,2.767697,-5.983110,-0.037305,0.006129,0.002665
15226,-3.983952,2.798822,-6.004658,-0.027579,0.004130,0.000400
15241,-3.991134,2.770091,-6.093243,-0.018386,0.003064,0.001066
15256,-3.957615,2.671929,-6.090849,-0.024381,-0.001998,-0.003464
15271,-4.098873,2.698265,-6.042965,-0.028245,0.006528,0.002931
15286,-3.969586,2.746149,-5.928043,-0.033308,0.003730,0.005862
15301,-3.974375,2.798822,-6.143521,-0.028378,0.009726,0.003730
15316,-4.046201,2.700660,-6.014235,-0.029977,0.003997,0.003064
15331,-4.070143,2.712631,-6.009446,-0.039703,0.010392,0.007727
15346,-4.034230,2.703054,-6.160281,-0.039570,0.004663,0.006662
15361,-3.878607,2.750938,-6.035782,-0.041302,0.005862,0.003198
15376,-3.993528,2.767697,-6.023811,-0.040502,0.006262,0.003597
15391,-4.067749,2.719813,-5.987898,-0.043433,0.005729,0.003597
15406,-3.979163,2.736573,-6.071695,-0.046764,0.003730,0.003864
15421,-3.938462,2.758120,-5.947197,-0.049029,0.007061,0.007194
15436,-4.019865,2.774880,-6.069301,-0.044233,0.011858,0.009593
15451,-4.110844,2.712631,-5.942409,-0.044499,0.008394,0.009060
15466,-4.120421,2.762909,-5.935226,-0.041568,0.019718,0.006262
15481,-3.998317,2.798822,-5.951985,-0.037305,0.020251,0.009193
15496,-4.050989,2.758120,-6.040571,-0.033308,0.035173,0.011591
15511,-4.060566,2.772485,-5.978322,-0.028911,0.044766,0.014655
15526,-4.072537,2.695871,-6.105214,-0.035173,0.042368,0.016787
15541,-3.890578,2.748544,-6.090849,-0.042767,0.037704,0.018386
15556,-3.895366,2.770091,-6.191405,-0.042634,0.023182,0.016387
15571,-3.983952,2.736573,-6.129156,-0.043034,0.017453,0.015188
15586,-4.036624,2.746149,-5.980716,-0.039703,0.003730,0.011724
15601,-3.960010,2.853888,-5.980716,-0.042634,0.006395,0.007194
15616,-3.895366,2.894590,-6.050148,-0.037438,0.007061,0.007994
15631,-4.070143,2.801216,-5.990293,-0.029711,0.013190,0.007194
15646,-4.115633,2.808398,-6.021417,-0.026380,0.021450,0.007461
15661,-3.960010,2.863465,-6.102820,-0.024914,0.023182,0.008527
15676,-3.912126,2.679112,-5.975927,-0.036106,0.021184,0.009992
15691,-3.993528,2.688689,-6.093243,-0.043300,0.014522,0.016121
15706,-4.053383,2.729390,-6.050148,-0.040636,0.016387,0.015721
15721,-4.010288,2.827552,-6.090849,-0.040902,0.022250,0.015322
15736,-3.948039,2.829946,-6.110003,-0.041035,0.021317,0.013456
15751,-3.936068,2.710236,-5.999869,-0.038104,0.013590,0.013057
15766,-4.108450,2.743755,-5.954380,-0.038904,0.024381,0.013989
15781,-4.019865,2.827552,-5.932832,-0.038504,0.014789,0.008260
15796,-3.957615,2.851494,-6.066907,-0.037571,0.029444,0.005462
15811,-3.952827,2.791639,-6.028600,-0.036505,0.019851,0.003864
15826,-3.988740,2.841917,-6.105214,-0.034374,0.030510,0.006262
15841,-3.986346,2.803610,-6.069301,-0.031443,0.026646,0.009060
15856,-3.857059,2.782062,-6.167463,-0.036505,0.022516,0.011191
15871,-3.943250,2.767697,-6.093243,-0.046231,0.015322,0.012524
15886,-4.031836,2.777274,-6.107608,-0.045432,0.014922,0.009060
15901,-4.024653,2.822764,-5.992687,-0.039170,0.016920,0.009726
15916,-3.948039,2.932897,-5.999869,-0.028911,0.018253,0.006528
15931,-3.883395,2.746149,-6.076484,-0.028645,0.021983,0.005729
15946,-3.991134,2.700660,-6.157887,-0.030510,0.017853,0.005063
15961,-4.053383,2.794033,-6.069301,-0.035040,0.020118,0.004930
15976,-3.950433,2.822764,-6.069301,-0.034773,0.021717,0.005596
15991,-3.907337,2.841917,-6.011840,-0.035306,0.023449,0.007194
16006,-4.043807,2.789245,-6.035782,-0.036772,0.021850,0.008793
16021,-4.012682,2.794033,-6.019023,-0.042900,0.023848,0.007727
16036,-3.960010,2.846706,-6.040571,-0.043167,0.025181,0.009726
16051,-3.792415,2.916138,-5.992687,-0.040103,0.024914,0.009726
16066,-4.034230,2.796427,-6.090849,-0.034507,0.019452,0.006262
16081,-4.017470,2.806004,-5.963956,-0.034107,0.018119,0.005862
16096,-3.952827,2.746149,-6.148310,-0.036372,0.025447,0.005462
16111,-3.888184,2.870648,-5.997475,-0.038104,0.019452,0.010658
16126,-3.967192,2.858677,-6.057330,-0.036639,0.015455,0.007994
16141,-4.050989,2.758120,-6.019023,-0.037971,0.013723,0.005596
16156,-3.948039,2.844311,-5.987898,-0.042368,0.017054,0.005196
16171,-3.866636,2.901772,-6.009446,-0.039436,0.018119,0.004530
16186,-3.909731,2.863465,-6.014235,-0.037704,0.021583,0.002398
16201,-4.055778,2.765303,-5.968745,-0.039836,0.029044,0.001599
16216,-3.991134,2.767697,-6.083666,-0.041435,0.026646,0.000133
16231,-3.837905,2.875436,-5.971139,-0.037038,0.038637,0.001332
16246,-3.866636,2.892196,-6.057330,-0.030776,0.019718,0.001199
16261,-3.986346,2.770091,-6.138733,-0.034240,0.019718,0.000133
16276,-3.957615,2.820369,-6.088455,-0.039436,0.012257,0.000933
16291,-3.881001,2.770091,-6.047753,-0.043700,0.003198,0.008260
16306,-3.904943,2.896984,-5.999869,-0.040636,0.000666,0.004663
16321,-4.029441,2.772485,-5.930438,-0.035040,0.007461,0.008660
16336,-4.039018,2.834735,-6.083666,-0.033574,0.013057,0.007994
16351,-3.940856,2.810793,-6.009446,-0.032109,0.014389,0.011058
16366,-3.916914,2.743755,-6.014235,-0.038770,0.017320,0.011325
16381,-3.993528,2.813187,-6.083666,-0.034907,0.018253,0.007727
16396,-3.979163,2.839523,-5.999869,-0.028511,0.019718,0.006395
16411,-3.916914,2.806004,-6.028600,-0.032242,0.024248,0.002132
16426,-3.859453,2.806004,-6.088455,-0.033441,0.017853,0.005196
16441,-4.000711,2.794033,-6.112397,-0.035839,0.020518,0.005329
16456,-4.022259,2.832340,-6.126762,-0.036639,0.022649,0.008260
16471,-3.859453,2.920926,-6.069301,-0.035440,0.018652,0.003464
16486,-3.871424,2.853888,-6.062119,-0.039703,0.023582,0.003864
16501,-3.971981,2.870648,-6.035782,-0.043167,0.021983,0.003997
16516,-4.053383,2.801216,-6.030994,-0.034240,0.023315,-0.003198
16531,-3.931279,2.877831,-6.088455,-0.033841,0.023582,-0.005063
16546,-3.902549,2.851494,-6.076484,-0.032642,0.019851,0.001066
16561,-3.909731,2.743755,-6.150704,-0.039037,0.016920,-0.000933
16576,-4.015076,2.753332,-6.102820,-0.046631,0.014522,0.002798
16591,-3.924097,2.865859,-6.045359,-0.046364,0.008926,0.001199
16606,-3.857059,2.899378,-6.081272,-0.039303,0.010658,0.000933
16621,-3.950433,2.832340,-6.052542,-0.036905,0.016920,-0.000266
16636,-3.967192,2.822764,-6.054936,-0.033708,0.018919,-0.000533
16651,-3.933673,2.817975,-6.007052,-0.029977,0.016787,0.000666
16666,-3.926491,2.863465,-5.999869,-0.030776,0.016387,0.002665
16681,-3.928885,2.880225,-5.978322,-0.031842,0.022383,0.001998
16696,-4.003105,2.815581,-6.033388,-0.035972,0.018919,0.005462
16711,-3.940856,2.829946,-6.045359,-0.035306,0.018786,0.001466
16726,-3.845088,2.885013,-6.002264,-0.032908,0.015188,0.005063
16741,-3.888184,2.834735,-6.129156,-0.027446,0.018253,0.005462
16756,-3.940856,2.806004,-6.107608,-0.033441,0.017320,0.004663
16771,-3.986346,2.784456,-6.066907,-0.040769,0.022116,0.005329
16786,-3.895366,2.798822,-6.035782,-0.037172,0.016920,0.003730
16801,-3.912126,2.829946,-6.133945,-0.034374,0.015588,0.003864
16816,-3.995923,2.861071,-6.066907,-0.033574,0.019585,0.003730
16831,-4.034230,2.837129,-6.030994,-0.038237,0.016254,0.003864
16846,-3.890578,2.856282,-6.093243,-0.045432,0.023449,0.002398
16861,-3.833117,2.829946,-5.992687,-0.047297,0.012657,0.006662
16876,-4.048595,2.798822,-6.028600,-0.039703,0.011591,0.007861
16891,-4.029441,2.916138,-5.944803,-0.035040,0.009060,0.001732
16906,-3.995923,2.889802,-6.102820,-0.029977,0.021317,-0.000266
16921,-3.907337,2.832340,-6.030994,-0.036905,0.021850,-0.000666
16936,-3.955221,2.837129,-5.983110,-0.037838,0.018919,-0.001466
16951,-3.933673,2.908955,-6.076484,-0.037172,0.024248,-0.005462
16966,-3.895366,2.844311,-6.021417,-0.035706,0.011058,-0.010658
16981,-3.823540,2.813187,-6.167463,-0.033841,0.006928,-0.012923
16996,-3.928885,2.772485,-6.009446,-0.040769,0.008926,-0.004263
17011,-4.012682,2.774880,-5.999869,-0.032242,0.004930,-0.001066
17026,-4.007894,2.861071,-6.076484,-0.031975,0.016920,0.004663
17041,-3.854665,2.899378,-6.045359,-0.031443,0.020518,0.003597
17056,-3.897760,2.789245,-6.119579,-0.031043,0.007461,0.000799
17071,-3.981557,2.834735,-6.019023,-0.029711,0.019851,0.003997
17086,-3.979163,2.868254,-6.047753,-0.029577,0.015588,-0.001998
17101,-3.830723,2.832340,-6.045359,-0.032775,0.020251,0.002132
17116,-3.938462,2.837129,-5.985504,-0.038904,0.022516,0.002665
17131,-4.000711,2.803610,-6.145916,-0.050095,0.020917,0.001332
17146,-4.012682,2.923320,-6.040571,-0.052760,0.021051,-0.001199
17161,-3.871424,2.952051,-6.009446,-0.043433,0.014789,-0.002132
17176,-3.912126,2.873042,-6.035782,-0.041568,0.020651,-0.006262
17191,-3.986346,2.851494,-5.980716,-0.039436,0.021184,-0.007861
17206,-3.936068,2.834735,-6.038177,-0.044366,0.019718,-0.006795
17221,-3.842694,2.940080,-6.052542,-0.040369,0.014922,-0.011325
17236,-3.859453,2.760514,-5.944803,-0.043300,0.015455,-0.004130
17251,-3.950433,2.786851,-6.069301,-0.046897,0.011458,-0.002132
17266,-3.988740,2.916138,-6.050148,-0.047297,0.010259,-0.001865
17281,-3.945644,2.896984,-6.040571,-0.045299,0.006795,-0.001066
17296,-3.909731,2.899378,-5.983110,-0.043300,0.017587,-0.001066
17311,-4.003105,2.794033,-6.035782,-0.041835,0.014123,0.000000
17326,-4.027047,2.834735,-6.153098,-0.046098,0.017054,0.005063
17341,-3.916914,2.920926,-6.035782,-0.041168,0.015988,0.004796
17356,-3.818752,2.892196,-6.062119,-0.035306,0.011058,0.004796
17371,-3.948039,2.882619,-5.985504,-0.038371,0.011991,0.002798
17386,-3.974375,2.825158,-6.045359,-0.031709,0.012657,0.002665
17401,-3.919308,2.810793,-6.035782,-0.032642,0.007727,0.004130
17416,-3.878607,2.865859,-6.095637,-0.039836,0.012257,0.004930
17431,-3.919308,2.789245,-6.002264,-0.040369,0.012524,0.003730
17446,-4.048595,2.937685,-5.983110,-0.039170,0.015455,0.003464
17461,-3.950433,2.928109,-6.014235,-0.033308,0.007994,-0.001066
17476,-3.866636,2.882619,-6.042965,-0.038504,0.009326,0.002665
17491,-3.924097,2.913743,-6.009446,-0.037305,0.008660,0.002398
17506,-3.976769,2.808398,-6.081272,-0.036639,0.014922,0.002665
17521,-3.955221,2.916138,-6.054936,-0.036905,0.014389,0.001332
17536,-3.866636,2.956839,-6.023811,-0.032375,0.009593,0.002931
17551,-3.897760,2.870648,-6.088455,-0.033841,0.009859,0.002398
17566,-4.041412,2.901772,-6.071695,-0.034107,0.004663,0.005196
17581,-4.000711,2.887407,-5.966351,-0.039303,0.015855,0.004130
17596,-3.890578,2.928109,-6.038177,-0.035306,0.009060,0.003730
17611,-3.857059,2.846706,-6.040571,-0.039037,0.011991,0.003597
17626,-4.039018,2.791639,-6.078878,-0.040502,0.016121,0.002265
17641,-3.938462,2.882619,-5.930438,-0.039303,0.011058,0.003464
17656,-3.902549,2.937685,-6.007052,-0.034907,0.010525,-0.001732
17671,-3.878607,2.837129,-6.165069,-0.039570,0.005995,-0.000133
17686,-3.938462,2.822764,-6.042965,-0.039836,-0.002931,-0.000933
17701,-4.000711,2.896984,-5.995081,-0.033441,0.000000,0.002798
17716,-3.921702,2.935291,-6.062119,-0.029178,0.006528,0.001066
17731,-3.897760,2.920926,-6.026206,-0.033041,0.009726,0.000400
17746,-3.993528,2.820369,-5.987898,-0.033574,0.011724,0.003331
17761,-3.986346,2.873042,-6.007052,-0.035839,0.009060,0.002265
17776,-3.979163,2.844311,-6.050148,-0.032642,0.011858,0.001998
17791,-3.900155,2.968810,-5.990293,-0.032508,0.019851,0.001466
17806,-4.017470,2.851494,-5.868188,-0.027979,0.016787,0.004397
17821,-4.079720,2.851494,-5.980716,-0.019052,0.021184,0.001066
17836,-3.981557,2.911349,-6.129156,-0.014522,0.022116,0.004130
17851,-3.818752,2.834735,-6.007052,-0.020251,0.022383,0.007994
17866,-3.964798,2.820369,-5.999869,-0.033041,0.026513,0.008926
17881,-4.029441,2.856282,-5.992687,-0.030110,0.016254,0.008260
17896,-3.957615,2.940080,-6.004658,-0.024381,0.017187,0.009726
17911,-3.924097,2.935291,-6.083666,-0.017187,0.020917,0.001865
17926,-3.957615,2.870648,-6.095637,-0.025580,0.027312,0.004130
17941,-4.017470,2.851494,-6.114791,-0.032508,0.027446,0.004663
17956,-3.955221,2.856282,-5.913678,-0.038237,0.022916,0.007194
17971,-3.859453,3.014300,-6.086061,-0.029311,0.025580,0.001998
17986,-3.914520,2.913743,-6.138733,-0.029844,0.018119,0.002931
18001,-3.960010,2.851494,-5.980716,-0.034374,0.021983,0.003064
18016,-3.969586,2.858677,-5.987898,-0.025181,0.016254,-0.000400
18031,-3.857059,2.925714,-6.074090,-0.018519,0.019718,0.001199
18046,-3.933673,2.844311,-6.102820,-0.015055,0.018652,0.006262
18061,-4.031836,2.820369,-6.081272,-0.012391,0.024381,0.011191
18076,-4.048595,2.789245,-6.042965,-0.022783,0.026513,0.016254
18091,-3.878607,2.956839,-6.184223,-0.039037,0.026646,0.016521
18106,-3.873818,2.954445,-6.071695,-0.029178,0.018386,0.011591
18121,-4.007894,2.908955,-6.136339,-0.020651,0.019718,0.007594
18136,-3.938462,2.896984,-5.940014,-0.017054,0.018919,0.008660
18151,-3.945644,2.978387,-6.066907,-0.004263,0.016254,0.005329
18166,-3.885789,2.923320,-6.045359,-0.000799,0.011724,0.003864
18181,-3.962404,2.911349,-6.057330,0.005063,0.016521,0.011858
18196,-3.967192,2.810793,-6.071695,0.006662,0.017453,0.007861
18211,-3.857059,2.839523,-6.105214,0.001466,0.022649,0.015455
18226,-3.861847,2.932897,-6.131550,0.009726,0.020118,0.014123
18241,-3.998317,2.908955,-6.083666,0.028645,0.022383,0.012790
18256,-4.034230,2.794033,-6.117185,0.047697,0.018919,0.009060
18271,-3.921702,2.767697,-6.088455,0.048096,0.015188,0.017853
18286,-3.854665,2.753332,-6.093243,0.041701,0.013723,0.022783
18301,-3.988740,2.609680,-5.990293,0.028245,0.004397,0.041968
18316,-4.000711,2.528277,-6.107608,-0.016254,0.012524,0.060087
18331,-3.892972,2.738967,-6.086061,-0.054625,0.022649,0.069413
18346,-3.768473,2.975993,-6.102820,-0.040769,0.014522,0.053559
18361,-3.921702,3.016694,-6.019023,-0.009992,0.007994,0.039570
18376,-3.983952,2.779668,-5.983110,0.005196,-0.009060,0.032109
18391,-3.892972,2.779668,-6.117185,0.008127,-0.026247,0.028378
18406,-3.825934,2.652776,-6.186617,-0.029444,-0.007994,0.029311
18421,-3.835511,2.825158,-6.150704,-0.049962,-0.030110,0.032109
18436,-3.969586,2.875436,-5.973533,-0.044100,-0.031176,0.029044
18451,-3.995923,2.875436,-6.016629,-0.025580,-0.027046,0.023449
18466,-3.840299,2.743755,-6.148310,-0.034507,-0.024248,0.023715
18481,-3.960010,2.741361,-6.141127,-0.055691,-0.036639,0.027845
18496,-3.936068,2.782062,-6.038177,-0.069547,-0.042101,0.029044
18511,-4.041412,2.954445,-6.026206,-0.056623,-0.041968,0.017853
18526,-3.921702,3.009511,-5.971139,-0.039570,-0.042767,0.009459
18541,-3.938462,2.896984,-5.999869,-0.029044,-0.037838,0.003464
18556,-4.019865,2.856282,-5.980716,-0.026646,-0.035573,0.001466
18571,-4.091691,2.896984,-5.937620,-0.014123,-0.027446,0.002665
18586,-3.988740,2.937685,-5.961562,0.001066,-0.020651,0.008926
18601,-3.979163,2.892196,-5.975927,0.014789,-0.019718,0.014522
18616,-4.106056,2.743755,-6.095637,0.040769,-0.050228,-0.005462
18631,-4.017470,2.813187,-6.107608,0.003198,0.012391,0.012790
18646,-4.017470,2.691083,-6.023811,-0.023982,-0.020384,0.022649
18661,-3.916914,2.918532,-5.992687,-0.025447,-0.028112,0.019319
18676,-3.950433,2.932897,-6.057330,-0.000799,-0.019718,0.010126
18691,-4.022259,2.894590,-6.028600,0.020518,-0.037438,-0.000666
18706,-4.017470,2.829946,-6.052542,0.023182,-0.037838,-0.005729
18721,-3.945644,2.786851,-6.064513,0.015322,-0.038770,-0.005862
18736,-4.015076,2.777274,-6.145916,0.008926,-0.039836,-0.009060
18751,-4.062960,2.717419,-6.002264,-0.006662,-0.048496,-0.009193
18766,-4.067749,2.762909,-5.995081,-0.010126,-0.056490,-0.012257
18781,-3.926491,2.803610,-6.078878,-0.028511,-0.048496,-0.007861
18796,-4.017470,2.770091,-6.145916,-0.044899,-0.042101,-0.006262
18811,-4.141969,2.789245,-6.069301,-0.048096,-0.059421,-0.008793
18826,-3.964798,2.758120,-5.999869,-0.053426,-0.072611,-0.006928
18841,-4.070143,2.767697,-5.904101,-0.064617,-0.077407,-0.009060
18856,-4.031836,2.870648,-5.920861,-0.058888,-0.083669,-0.008926
18871,-4.161122,2.813187,-5.951985,-0.045165,-0.087933,-0.011458
18886,-4.132392,2.870648,-5.975927,-0.034507,-0.088998,-0.014123
18901,-4.161122,2.853888,-5.949591,-0.020784,-0.092995,-0.013856
18916,-4.163517,2.726996,-5.734113,-0.010792,-0.082070,-0.018652
18931,-4.192247,2.731784,-5.877765,-0.011991,-0.066616,-0.011724
18946,-4.290410,2.619257,-5.861006,-0.014922,-0.054358,-0.008926
18961,-4.163517,2.767697,-5.930438,-0.024914,-0.039037,-0.006662
18976,-4.256891,2.710236,-5.825093,-0.025047,-0.029444,-0.002132
18991,-4.223372,2.841917,-5.820304,-0.022783,-0.010525,-0.001865
19006,-4.197035,2.885013,-5.781997,-0.015455,-0.006662,-0.003464
19021,-4.220977,2.829946,-5.928043,-0.012391,0.003730,-0.005329
19036,-4.256891,2.813187,-5.949591,-0.017054,0.003997,-0.006262
19051,-4.199430,2.851494,-5.935226,-0.023049,-0.002265,-0.005729
19066,-4.139575,2.810793,-5.992687,-0.027979,-0.017187,-0.009593
19081,-4.192247,2.813187,-5.944803,-0.024515,-0.024914,-0.012923
19096,-4.307169,2.777274,-5.894525,-0.014922,-0.033441,-0.015455
19111,-4.280833,2.726996,-6.009446,-0.009992,-0.030110,-0.015322
19126,-4.278439,2.726996,-5.841852,-0.009593,-0.028645,-0.018919
19141,-4.228160,2.662352,-5.861006,-0.021983,-0.026247,-0.013190
19156,-4.331111,2.636016,-5.954380,-0.030910,-0.023582,-0.005596
19171,-4.280833,2.645593,-5.899313,-0.034773,-0.022383,-0.001732
19186,-4.249708,2.839523,-5.896919,-0.030510,-0.015855,0.001332
19201,-4.163517,2.748544,-5.851429,-0.023049,-0.013590,0.001732
19216,-4.237737,2.815581,-5.906496,-0.014522,0.001599,-0.002531
19231,-4.367024,2.796427,-5.928043,-0.010392,-0.009459,-0.000133
19246,-4.201824,2.753332,-5.956774,-0.021717,-0.015322,0.002132
19261,-4.201824,2.777274,-5.928043,-0.031443,-0.024248,0.007328
19276,-4.343082,2.770091,-5.923255,-0.034374,-0.043700,0.014655
19291,-4.376601,2.748544,-5.851429,-0.038637,-0.024648,0.013989
19306,-4.218583,2.834735,-5.820304,-0.040902,-0.053292,0.013590
19321,-4.252102,2.803610,-5.853823,-0.037838,-0.037038,0.007594
19336,-4.314352,2.825158,-5.901707,-0.031975,-0.048230,0.001998
19351,-4.388572,2.827552,-5.889736,-0.023715,-0.029711,-0.005596
19366,-4.359841,2.798822,-5.834670,-0.021450,-0.055824,-0.009992
19381,-4.213795,2.762909,-5.906496,-0.024914,-0.071412,-0.014256
19396,-4.247314,2.707842,-5.975927,-0.029311,-0.064617,-0.011724
19411,-4.446033,2.597709,-5.913678,-0.047164,-0.060753,-0.009726
19426,-4.340688,2.674323,-5.844246,-0.058622,-0.076608,-0.002931
19441,-4.247314,2.695871,-5.975927,-0.076475,-0.058355,0.003597
19456,-4.340688,2.786851,-5.963956,-0.073544,-0.076475,0.001865
19471,-4.367024,2.798822,-5.865794,-0.063152,-0.094194,-0.005596
19486,-4.438850,2.815581,-5.827487,-0.059421,-0.084469,-0.006262
19501,-4.374207,2.851494,-5.827487,-0.062086,-0.098325,-0.010259
19516,-4.414908,2.746149,-5.825093,-0.065150,-0.083536,-0.015188
19531,-4.520253,2.913743,-5.786786,-0.051827,-0.077407,-0.023848
19546,-4.484340,3.105279,-5.667075,0.000799,-0.064617,-0.035839
19561,-4.436456,3.122039,-5.561730,0.067815,-0.066749,-0.056490
19576,-4.489128,2.944868,-5.640739,0.118576,-0.053825,-0.061553
19591,-4.556166,2.647987,-5.612009,0.133498,-0.057689,-0.063285
19606,-4.582502,2.652776,-5.774815,0.132565,-0.042634,-0.055691
19621,-4.479551,2.499547,-5.849035,0.112314,-0.049828,-0.048896
19636,-4.496311,2.664747,-5.829881,0.097792,-0.054758,-0.042634
19651,-4.525041,2.600103,-5.904101,0.106851,-0.087266,-0.048496
19666,-4.644751,2.734178,-5.963956,0.114712,-0.105119,-0.047564
19681,-4.587290,2.774880,-5.894525,0.124971,-0.107251,-0.053026
19696,-4.503493,2.726996,-5.801151,0.173067,-0.132032,-0.074210
19711,-4.709394,2.640805,-5.853823,0.196250,-0.116178,-0.066083
19726,-4.879383,2.595315,-5.748478,0.191587,-0.147087,-0.049562
19741,-4.596867,2.418144,-5.755661,0.186124,-0.153882,-0.041968
19756,-4.589684,2.430115,-5.772420,0.179462,-0.127636,-0.042767
19771,-4.817134,2.442086,-5.614403,0.168404,-0.105519,-0.037172
19786,-4.771644,2.197877,-5.717353,0.114712,-0.115112,-0.023049
19801,-4.884171,2.097321,-5.659893,0.076342,-0.062485,-0.020784
19816,-4.606444,2.128445,-5.576096,0.040103,-0.069413,0.003997
19831,-4.917690,2.130840,-5.762844,-0.007861,-0.094461,0.019052
19846,-4.690241,2.042254,-5.758055,-0.073943,0.016121,0.045965
19861,-4.707000,2.432509,-5.746084,-0.056623,-0.024648,0.046098
19876,-4.481946,2.396596,-5.714959,-0.046231,-0.037172,0.039570
19891,-4.678270,2.439692,-5.755661,-0.048763,-0.035972,0.033574
19906,-4.738125,2.626439,-5.102044,-0.084202,-0.073011,0.032375
19921,-4.699818,3.311181,-5.734113,0.061020,-0.035839,0.005596
19936,-4.750096,2.293645,-5.566519,0.120974,-0.090064,-0.018919
19951,-4.659116,2.229002,-5.695806,0.093928,-0.042101,-0.016121
19966,-4.819528,1.877054,-5.571307,0.063551,-0.037838,-0.011591
19981,-4.771644,1.869871,-5.719748,-0.026513,-0.031176,-0.002398
19996,-4.747702,2.039860,-5.576096,-0.072211,0.004530,-0.002265
20011,-4.795586,2.360683,-5.698200,-0.080738,0.001332,0.000000
20026,-4.797980,2.518700,-5.686229,-0.052360,0.010792,-0.007727
20041,-5.011064,2.463634,-5.638345,-0.030377,0.010525,-0.012790
20056,-4.833893,2.557007,-5.585672,-0.014389,0.003198,-0.017853
20071,-4.750096,2.408567,-5.664681,0.022250,-0.020384,-0.036239
20086,-4.910508,2.434903,-5.710171,0.041835,-0.021983,-0.039303
20101,-4.953603,2.279280,-5.777209,0.022516,-0.014522,-0.022783
20116,-4.855441,2.324770,-5.714959,0.020651,-0.042501,-0.014655
20131,-4.774038,2.149993,-5.758055,0.016654,-0.028112,-0.017853
20146,-4.853047,2.126051,-5.638345,-0.019052,0.007727,-0.001865
20161,-5.193023,2.197877,-5.700594,-0.039969,-0.025847,0.022516
20176,-4.606444,2.391808,-5.698200,-0.022516,0.003064,0.012657
20191,-4.809951,2.358289,-5.748478,0.001466,-0.024648,0.006662
20206,-4.850653,2.224213,-5.726930,-0.003198,-0.001199,0.009859
20221,-4.886566,2.164358,-5.659893,-0.025314,0.020518,0.013989
20236,-4.821922,2.221819,-5.580884,-0.024781,0.037305,0.013723
20251,-4.776433,2.188300,-5.664681,-0.034640,0.051028,0.021583
20266,-4.740520,2.147599,-5.499481,-0.051560,0.080338,0.031709
20281,-4.922479,2.008735,-5.468357,-0.080738,0.109383,0.048496
20296,-4.790798,2.133234,-5.588067,-0.121640,0.119508,0.068348
20311,-4.793192,2.322376,-5.657498,-0.130034,0.139360,0.073277
20326,-4.774038,2.454057,-5.738902,-0.114046,0.139360,0.067948
20341,-4.929661,2.549825,-5.896919,-0.104720,0.120175,0.055424
20356,-4.824317,2.578555,-5.863400,-0.077008,0.091663,0.041968
20371,-4.718971,2.633622,-5.880159,-0.050628,0.081404,0.024914
20386,-4.613626,2.504335,-5.772420,-0.028911,0.054225,0.016521
20401,-4.738125,2.351106,-5.741296,-0.029044,0.061553,0.017320
20416,-4.819528,2.343923,-5.650316,-0.030377,0.062485,0.023848
20431,-4.673481,2.291251,-5.717353,-0.026380,0.071279,0.031842
20446,-4.623203,2.171541,-5.803545,-0.043433,0.078740,0.042501
20461,-4.702212,2.341529,-5.796362,-0.053559,0.077940,0.045832
20476,-4.754885,2.487576,-5.772420,-0.038770,0.076475,0.044632
20491,-4.632780,2.473210,-5.669469,-0.018386,0.071012,0.039969
20506,-4.663905,2.487576,-5.662287,0.001066,0.079806,0.038504
20521,-4.704606,2.303222,-5.736507,0.011991,0.089398,0.047297
20536,-4.757279,2.209848,-5.698200,0.005995,0.094194,0.062485
20551,-4.599261,2.217031,-5.784391,-0.019452,0.118043,0.093662
20566,-4.690241,2.214637,-5.839458,-0.069280,0.162409,0.146155
20581,-4.623203,2.231396,-5.686229,-0.050761,0.183593,0.162675
20596,-4.821922,2.382231,-5.638345,-0.066349,0.171602,0.164274
20611,-4.764462,2.554613,-5.916072,-0.053159,0.241815,0.154415
20626,-4.230554,2.894590,-6.141127,0.016521,0.086201,0.113513
20641,-4.558560,2.681506,-6.042965,0.037971,0.028645,0.088466
20656,-4.532224,2.343923,-5.904101,0.001998,0.015721,0.087799
20671,-4.563348,2.511518,-5.947197,-0.016387,0.003331,0.082337
20686,-4.309563,2.391808,-5.956774,-0.038104,-0.044233,0.076608
20701,-4.520253,2.439692,-6.035782,-0.079939,-0.027712,0.085002
20716,-4.462792,2.736573,-5.975927,-0.084868,-0.018652,0.097925
20731,-4.402937,2.523489,-5.930438,-0.105386,-0.092196,0.083536
20746,-4.479551,2.449268,-6.028600,-0.110848,-0.024515,0.086334
20761,-4.338294,2.293645,-5.956774,-0.109916,-0.084602,0.081404
20776,-4.577713,2.403779,-5.928043,-0.143357,-0.054358,0.079939
20791,-4.654328,2.614468,-5.793968,-0.173734,-0.071945,0.086867
20806,-4.525041,2.834735,-5.908890,-0.145755,-0.073943,0.085401
20821,-4.582502,2.777274,-5.791574,-0.123106,-0.064084,0.073810
20836,-4.654328,2.736573,-5.765238,-0.101522,-0.058089,0.060753
20851,-4.750096,3.062184,-5.669469,-0.033574,-0.099657,0.026779
20866,-4.527435,3.110068,-5.714959,0.025580,-0.109649,0.011858
20881,-4.836287,3.057395,-5.750873,0.065150,-0.083003,0.011858
20896,-4.783615,2.892196,-5.616797,0.105786,-0.076075,0.035173
20911,-4.953603,2.923320,-5.669469,0.145489,-0.062885,0.073544
20926,-4.862624,2.942474,-5.736507,0.182260,-0.039170,0.089398
20941,-4.795586,2.691083,-5.315128,0.146288,-0.084335,0.129767
20956,-4.908113,2.851494,-5.961562,0.194384,-0.060221,0.144822
20971,-5.310339,3.148375,-6.227318,0.247011,-0.034640,0.174799
20986,-4.903325,2.671929,-5.987898,0.213570,0.032242,0.224761
21001,-4.716577,2.820369,-5.987898,0.187590,0.022250,0.278320
21016,-4.814740,2.683900,-5.963956,0.150418,0.039836,0.304567
21031,-4.642357,2.549825,-5.547365,0.090064,0.019052,0.356127
21046,-4.771644,2.964022,-5.702988,0.103254,0.051028,0.367319
21061,-4.505888,3.256114,-5.746084,0.158012,0.033708,0.393832
21076,-4.577713,3.485958,-6.035782,0.231822,0.039836,0.414482
21091,-4.656722,3.193865,-5.985504,0.321087,0.000133,0.394498
21106,-4.769250,3.023877,-6.086061,0.364254,0.011458,0.389568
21121,-4.826711,2.956839,-6.354211,0.414882,0.068214,0.375312
21136,-4.508282,2.351106,-6.098032,0.353063,0.103254,0.409553
21151,-4.570531,2.252944,-6.186617,0.255937,0.142025,0.441262
21166,-4.371812,2.329558,-6.019023,0.212504,0.161743,0.444726
21181,-4.230554,2.324770,-6.030994,0.216501,0.141758,0.411685
21196,-4.132392,2.245761,-5.913678,0.228625,0.134963,0.377711
21211,-4.158728,2.159570,-5.913678,0.226760,0.117243,0.349599
21226,-4.189853,2.059013,-5.798757,0.190387,0.104453,0.346135
21241,-4.237737,2.102109,-5.772420,0.139227,0.096326,0.365720
21256,-4.249708,2.094926,-5.911284,0.079406,0.111648,0.390634
21271,-4.321534,2.207454,-5.971139,0.017320,0.143623,0.416081
21286,-4.319140,2.236184,-5.954380,-0.016387,0.140959,0.418613
21301,-4.180276,2.497152,-6.009446,-0.034907,0.154681,0.415681
21316,-4.024653,2.260126,-6.026206,-0.099657,0.153216,0.444726
21331,-4.050989,2.463634,-5.999869,-0.162809,0.166139,0.479366
21346,-4.005499,2.614468,-6.098032,-0.150951,0.155348,0.479632
21361,-3.845088,2.734178,-6.102820,-0.069014,0.174400,0.437931
21376,-3.806781,2.681506,-5.932832,0.025047,0.172401,0.373847
21391,-3.823540,2.530671,-5.949591,0.072478,0.158545,0.332545
21406,-3.790021,2.578555,-6.066907,0.081538,0.152283,0.312694
21421,-3.799598,2.722207,-6.009446,0.117110,0.114046,0.300836
21436,-3.799598,2.609680,-5.904101,0.130300,0.094994,0.306698
21451,-3.857059,2.015918,-5.959168,0.046764,0.052227,0.330147
21466,-3.890578,2.272097,-6.026206,-0.175732,0.097259,0.414482
21481,-4.103662,2.803610,-6.093243,-0.318289,0.085934,0.497086
21496,-3.821146,3.409343,-6.143521,-0.324818,0.114845,0.542917
21511,-3.837905,3.845088,-6.016629,-0.210772,0.105386,0.554109
21526,-3.892972,3.909731,-6.074090,-0.056357,0.110582,0.544916
21541,-3.675100,4.101267,-6.062119,0.160011,0.116178,0.496153
21556,-3.569755,3.782839,-6.088455,0.356127,0.083003,0.445925
21571,-3.440468,3.184288,-6.083666,0.455784,0.080871,0.412617
21586,-3.584120,2.360683,-5.980716,0.441795,0.028245,0.397962
21601,-3.699042,2.363077,-6.222530,0.312560,0.036505,0.414349
21616,-3.579331,2.370260,-6.303933,0.190521,0.041835,0.449256
21631,-3.493140,2.729390,-6.220136,0.115511,0.036905,0.469640
21646,-3.624821,2.803610,-6.289568,0.093795,0.058489,0.476568
21661,-3.517082,2.932897,-6.323087,0.087799,0.068081,0.489492
21676,-3.430891,2.865859,-6.308722,0.050361,0.106452,0.511208
21691,-3.315969,3.083732,-6.505046,0.061153,0.130167,0.501083
21706,-3.208230,2.834735,-6.509834,0.116711,0.130966,0.447524
21721,-3.234566,2.614468,-6.454768,0.130300,0.144956,0.406489
21736,-3.093308,2.185906,-6.289568,0.063951,0.160677,0.385971
21751,-2.832340,2.111686,-6.251261,-0.068481,0.136695,0.395297
21766,-2.940080,2.358289,-6.136339,-0.174400,0.113646,0.404757
21781,-3.031059,2.449268,-6.162675,-0.283516,0.113779,0.442594
21796,-2.983175,2.808398,-6.162675,-0.384239,0.100989,0.493355
21811,-3.009511,3.359065,-6.287174,-0.387170,0.103521,0.501882
21826,-3.167529,3.502717,-6.466739,-0.324818,0.109250,0.478966
21841,-3.193865,3.603273,-6.361394,-0.241815,0.110049,0.436066
21856,-3.062184,3.620033,-6.308722,-0.168937,0.109383,0.403557
21871,-2.782062,3.672705,-6.162675,-0.096859,0.087933,0.385704
21886,-2.801216,3.663129,-6.198588,-0.031709,0.053959,0.377444
21901,-2.990358,3.801992,-6.086061,0.046231,0.038904,0.366919
21916,-2.928109,3.766079,-6.042965,0.160677,0.014522,0.329481
21931,-2.748544,3.521871,-6.004658,0.225427,0.025714,0.287913
21946,-2.710236,3.244143,-6.121974,0.219032,0.010126,0.276055
21961,-2.705448,3.040636,-6.071695,0.183726,0.009326,0.264864
21976,-2.820369,3.222595,-6.256049,0.173067,-0.000266,0.251541
21991,-2.585738,3.296816,-6.289568,0.169870,-0.015721,0.235286
22006,-2.535460,3.272874,-6.260838,0.165074,-0.025447,0.234887
22021,-2.767697,3.303998,-6.368577,0.164940,-0.033974,0.234487
22036,-2.827552,3.308787,-6.435614,0.154415,-0.040236,0.243280
22051,-2.837129,3.265691,-6.543353,0.141758,-0.028378,0.243680
22066,-2.817975,3.344700,-6.694188,0.136162,-0.009193,0.243680
22081,-2.925714,3.186682,-6.648698,0.124172,0.014256,0.239017
22096,-2.856282,3.074155,-6.672640,0.078606,0.041302,0.256070
22111,-2.726996,3.203442,-6.567295,0.046631,0.043433,0.271792
22126,-2.616862,3.301604,-6.497863,0.017453,0.041701,0.284848
22141,-2.832340,3.392584,-6.469133,-0.023049,0.045165,0.316824
22156,-2.863465,3.442862,-6.457162,-0.043300,0.065550,0.345069
22171,-2.638410,3.830723,-6.335058,-0.008260,0.063152,0.355061
22186,-2.430115,3.720589,-6.361394,0.064217,0.020251,0.340406
22201,-2.473210,3.411737,-6.263232,0.051294,-0.000133,0.348933
22216,-2.710236,3.385401,-6.349423,0.036905,-0.002798,0.359191
22231,-2.619257,3.512294,-6.332664,0.022783,0.002531,0.368651
22246,-2.501941,3.703830,-6.347029,0.052227,0.002398,0.372914
22261,-2.513912,3.655946,-6.418855,0.096326,-0.016521,0.374779
22276,-2.588132,3.533842,-6.442797,0.103121,-0.007994,0.389035
22291,-2.590526,3.634398,-6.430826,0.119375,0.004663,0.406888
22306,-2.458845,3.435679,-6.521805,0.140559,0.006795,0.405956
22321,-2.451663,3.162740,-6.533776,0.098325,0.020784,0.412351
22336,-2.437297,3.330334,-6.385336,0.111381,-0.003864,0.398628
22351,-2.336741,3.105279,-6.464345,0.121640,-0.006395,0.372781
22366,-2.212242,2.990358,-6.308722,0.092196,-0.021983,0.361723
22381,-2.114080,2.966416,-6.227318,0.072877,-0.051427,0.352263
22396,-2.327164,2.657564,-6.418855,-0.040103,-0.044632,0.380775
22411,-2.398990,2.643199,-6.411672,-0.182260,-0.052626,0.425674
22426,-2.446874,2.870648,-6.564901,-0.282717,-0.041701,0.450322
22441,-2.458845,3.409343,-6.651092,-0.277254,-0.016920,0.428338
22456,-2.545036,3.643975,-6.698976,-0.194917,0.022783,0.379043
22471,-2.444480,3.564966,-6.660669,-0.114845,0.039969,0.331080
22486,-2.279280,3.739743,-6.543353,-0.036905,0.030776,0.294974
22501,-2.147599,3.663129,-6.517017,0.025980,0.021717,0.267395
22516,-2.240973,3.684676,-6.428432,0.089265,0.020651,0.251141
22531,-2.310405,3.502717,-6.473921,0.098991,0.021850,0.247810
22546,-2.293645,3.272874,-6.426037,0.034507,0.019851,0.272325
22561,-2.147599,3.215413,-6.435614,-0.098724,0.005729,0.318156
22576,-2.296039,3.366247,-6.600814,-0.176265,0.029311,0.347334
22591,-2.288857,3.845088,-6.502652,-0.161343,0.025181,0.345335
22606,-2.106897,4.292804,-6.471527,-0.041035,0.008527,0.304567
22621,-1.970428,4.218583,-6.445191,0.126570,-0.007328,0.244613
22636,-2.262521,3.545813,-6.418855,0.174666,-0.003464,0.224628
22651,-2.346318,3.028665,-6.562507,0.054891,0.019585,0.273524
22666,-2.250550,3.035848,-6.390124,-0.146821,0.050761,0.352930
22681,-2.051831,3.469198,-6.399701,-0.290577,0.056623,0.418613
22696,-2.042254,4.084508,-6.366182,-0.310962,0.043034,0.442594
22711,-2.202666,4.390966,-6.406884,-0.227692,0.052760,0.435133
22726,-2.138022,4.723760,-6.385336,-0.106585,0.078340,0.420611
22741,-2.042254,4.702212,-6.421249,0.047164,0.080338,0.396496
22756,-1.867477,4.527435,-6.390124,0.167472,0.070213,0.385971
22771,-1.853112,4.163517,-6.406884,0.208907,0.059288,0.396363
22786,-1.568202,4.034230,-6.263232,0.217167,0.018652,0.411685
22801,-1.455675,3.995923,-6.327875,0.213836,-0.029311,0.416081
22816,-1.635240,3.801992,-6.373365,0.208773,-0.072078,0.419812
22831,-1.673547,3.816357,-6.337452,0.195317,-0.088066,0.436066
22846,-1.733402,3.971981,-6.629544,0.193452,-0.070746,0.451387
22861,-1.865083,3.998317,-6.610391,0.241415,-0.063951,0.446325
22876,-2.059013,3.878607,-6.833052,0.280319,-0.034240,0.436332
22891,-2.044648,3.605668,-6.816292,0.278720,-0.007461,0.438997
22906,-1.865083,3.428497,-6.897695,0.244613,0.014256,0.443660
22921,-1.757344,3.306392,-6.852205,0.206908,0.027046,0.448723
22936,-1.874660,3.196259,-6.943185,0.130433,0.067415,0.475902
22951,-1.613692,3.136404,-6.847417,0.073810,0.096593,0.491490
22966,-1.268927,3.100491,-6.773197,0.015188,0.088332,0.496153
22981,-1.350330,3.215413,-6.799533,0.003064,0.069147,0.467775
22996,-1.580173,3.201048,-6.734890,0.033308,0.068881,0.421144
23011,-1.458069,3.258508,-6.619967,0.085002,0.072478,0.354528
23026,-1.321599,3.134010,-6.505046,0.119375,0.077674,0.292709
23041,-1.216254,3.059790,-6.627150,0.070746,0.057956,0.278320
23056,-1.197101,3.536236,-6.655880,0.070879,0.012790,0.266462
23071,-1.350330,3.572149,-6.572083,0.094861,-0.005196,0.260201
23086,-1.326388,3.660734,-6.670246,0.110715,-0.026913,0.263931
23101,-1.412579,3.610456,-6.567295,0.070213,-0.016920,0.291510
23116,-1.429338,3.569755,-6.684611,-0.012524,-0.010126,0.347201
23131,-1.491588,3.912126,-6.897695,0.007461,-0.014655,0.362389
23146,-1.266533,4.096479,-6.653486,0.091130,-0.016787,0.348666
23161,-1.165976,4.077325,-6.713341,0.206375,-0.030377,0.312960
23176,-1.302446,3.682282,-6.689399,0.269127,-0.042368,0.292842
23191,-1.525106,3.351882,-6.840234,0.249809,-0.023449,0.309629
23206,-1.482011,3.165135,-6.983886,0.149752,0.016387,0.352930
23221,-1.393425,3.124433,-6.921637,0.047031,0.062219,0.395164
23236,-1.323994,3.124433,-6.926425,-0.045432,0.072345,0.411685
23251,-1.465251,3.289633,-6.926425,-0.079939,0.091530,0.405956
23266,-1.616086,3.770868,-6.885724,-0.052760,0.115778,0.389568
23281,-1.714248,4.012682,-6.890512,0.030377,0.155614,0.370516
23296,-1.235408,3.804386,-6.708553,0.066482,0.194518,0.388769
23311,-1.029507,3.406949,-6.710947,0.052227,0.147221,0.426606
23326,-0.833182,3.342305,-6.670246,0.000266,0.112447,0.443127
23341,-0.746991,3.507505,-6.643909,-0.009726,0.056757,0.439663
23356,-0.723049,3.845088,-6.725312,0.065150,0.028911,0.396096
23371,-0.909797,3.857059,-6.811504,0.195184,0.021317,0.342804
23386,-0.830788,3.672705,-6.754043,0.297372,-0.009060,0.295907
23401,-0.730232,3.430891,-6.847417,0.345602,-0.020917,0.270593
23416,-0.751779,3.162740,-6.763620,0.316025,-0.040103,0.284049
23431,-0.833182,2.959233,-6.878541,0.243280,-0.040769,0.310029
23446,-0.940921,3.009511,-7.036559,0.159478,-0.036772,0.343337
23461,-0.928950,3.062184,-7.079654,0.072877,-0.018919,0.377044
23476,-0.881066,3.169923,-7.232883,0.015855,0.006262,0.398361
23491,-1.235408,3.236961,-7.240066,-0.035839,0.067415,0.431669
23506,-1.467646,3.665523,-7.287950,-0.065017,0.103787,0.454319
23521,-2.906561,3.727772,-7.922413,0.083136,0.368118,0.444726
23536,-0.289698,3.952827,-6.749255,0.039037,0.239150,0.525064
23551,-0.521936,3.423708,-6.931214,-0.051028,0.412484,0.604603
23566,-0.146046,3.421314,-6.890512,-0.123372,0.242747,0.656430
23581,0.052672,3.667917,-6.696582,-0.118576,0.225560,0.669087
23596,0.138864,3.612850,-6.639121,-0.123239,0.154948,0.666956
23611,0.220267,3.991134,-6.629544,-0.041968,0.119508,0.654032
23626,0.138864,4.194641,-6.797139,0.145888,0.059554,0.599940
23641,0.244209,4.046201,-6.926425,0.319355,-0.013989,0.546648
23656,0.256180,3.782839,-6.818686,0.413949,-0.048096,0.531193
23671,0.074220,3.406949,-7.046135,0.420345,-0.077674,0.563435
23686,-0.047884,3.169923,-7.146692,0.341472,-0.096060,0.625787
23701,-0.407014,2.865859,-7.381324,0.195717,-0.074476,0.706925
23716,-0.339977,3.081337,-7.383718,0.082204,-0.013723,0.770077
23731,-0.380678,2.975993,-7.328651,-0.003064,0.040103,0.801386
23746,-0.229843,3.098097,-7.278373,-0.067681,0.095127,0.825501
23761,-0.043096,3.138798,-7.041347,-0.070746,0.074876,0.831896
23776,0.093374,3.215413,-6.845023,-0.037172,0.053825,0.821770
23791,0.129287,3.088520,-6.880936,-0.025847,0.038104,0.813244
23806,0.002394,2.987964,-6.837840,-0.017587,0.043034,0.800453
23821,0.100556,2.999935,-6.789956,-0.002798,0.043833,0.778070
23836,0.378284,2.932897,-6.713341,0.014123,-0.007061,0.746228
23851,0.452504,3.019088,-6.639121,0.074476,-0.081538,0.703994
23866,0.359130,3.066972,-6.660669,0.171335,-0.166539,0.638444
23881,0.062249,2.894590,-6.634333,0.259534,-0.204243,0.580222
23896,-0.067038,2.552219,-6.883330,0.260467,-0.201979,0.553443
23911,0.033519,2.384625,-7.046135,0.221963,-0.193185,0.529194
23926,-0.064643,2.066196,-7.182605,0.128968,-0.190254,0.514672
23941,-0.225055,2.001553,-7.249643,-0.011591,-0.170136,0.521467
23956,-0.088585,2.437297,-7.426814,-0.084335,-0.137095,0.506412
23971,-0.031125,2.829946,-7.381324,-0.051427,-0.126703,0.463511
23986,-0.016759,2.827552,-7.410054,0.014256,-0.090464,0.417813
24001,0.014365,2.669535,-7.295133,0.054625,-0.081138,0.383839
24016,-0.110133,2.506729,-7.187393,0.079939,-0.060753,0.353596
24031,0.000000,2.078167,-7.208941,0.013456,-0.029711,0.345202
24046,0.064643,1.972822,-7.141903,-0.130300,0.014922,0.371982
24061,0.155623,2.149993,-7.180211,-0.276055,0.031043,0.397695
24076,0.306458,2.461239,-7.158663,-0.382640,0.037838,0.424075
24091,0.426168,3.093308,-7.201758,-0.428605,0.055957,0.436732
24106,0.490811,3.550601,-7.170634,-0.365587,0.054225,0.421144
24121,0.488417,3.627216,-7.089231,-0.238884,0.049029,0.392899
24136,0.543484,3.636792,-7.086837,-0.123772,0.025714,0.375979
24151,0.775721,3.749320,-6.945579,-0.019052,-0.008926,0.368917
24166,0.907402,3.902549,-6.986280,0.100456,-0.050361,0.355594
24181,0.768539,3.852270,-6.816292,0.247810,-0.099657,0.341472
24196,0.763750,3.517082,-6.730101,0.362655,-0.128168,0.333744
24211,0.720655,3.095703,-6.825869,0.368118,-0.147487,0.351597
24226,0.754174,2.834735,-6.878541,0.323619,-0.185191,0.371315
24241,0.509965,2.841917,-6.756437,0.307498,-0.223562,0.381308
24256,0.229843,2.516306,-6.952762,0.267795,-0.209040,0.396629
24271,0.174777,2.523489,-6.904878,0.197182,-0.167338,0.429005
24286,0.497994,2.552219,-6.950367,0.130433,-0.166006,0.452986
24301,0.407014,2.736573,-6.921637,0.120441,-0.168538,0.470306
24316,0.313640,2.691083,-6.955156,0.132698,-0.178796,0.472438
24331,0.246603,2.664747,-6.868965,0.162276,-0.175998,0.460047
24346,0.397437,2.449268,-6.806715,0.195717,-0.185858,0.429671
24361,0.205901,2.231396,-6.730101,0.207175,-0.204243,0.396096
24376,0.000000,1.970428,-6.698976,0.190121,-0.196783,0.370250
24391,0.043096,1.874660,-6.744466,0.119109,-0.170936,0.373181
24406,0.280122,2.042254,-6.792350,0.072478,-0.182793,0.368917
24421,0.383072,2.276886,-6.959944,0.055424,-0.226360,0.348266
24436,0.136469,2.279280,-7.151480,0.069147,-0.245945,0.329214
24451,0.052672,2.200271,-7.302315,0.045965,-0.204910,0.331479
24466,0.203507,2.274492,-7.386112,0.043034,-0.185325,0.324285
24481,0.272939,2.257732,-7.479486,0.071678,-0.208107,0.282583
24496,0.011971,2.027889,-7.390901,0.068881,-0.205309,0.247410
24511,0.035913,1.769315,-7.343017,-0.006395,-0.192253,0.242481
24526,0.189142,2.159570,-7.266402,-0.056357,-0.202245,0.236086
24541,0.045490,2.363077,-7.335834,-0.033308,-0.189588,0.214636
24556,-0.016759,2.236184,-7.445967,-0.028112,-0.187057,0.196383
24571,-0.081403,2.188300,-7.307104,-0.073277,-0.174133,0.200380
24586,-0.090980,2.343923,-7.445967,-0.108983,-0.162942,0.208640
24601,-0.201113,2.506729,-7.417237,-0.111515,-0.141092,0.211971
24616,-0.354342,2.240973,-7.405266,-0.160410,-0.076874,0.234753
24631,-0.268151,2.372654,-7.287950,-0.228092,-0.039570,0.264997
24646,-0.158017,2.705448,-7.328651,-0.238484,-0.026646,0.264331
24661,-0.026336,2.822764,-7.201758,-0.217167,-0.027979,0.251141
24676,-0.220267,2.901772,-7.177816,-0.187323,-0.026247,0.258335
24691,-0.363919,3.007117,-7.213729,-0.169204,0.029577,0.276055
24706,-0.347159,3.093308,-7.206547,-0.110182,0.105253,0.281251
24721,-0.023942,2.844311,-6.981492,-0.077274,0.127902,0.276588
24736,0.232238,2.707842,-7.034164,-0.077541,0.135363,0.271659
24751,0.148441,2.521094,-7.005434,-0.066083,0.017187,0.247943
24766,0.229843,2.540248,-6.983886,-0.077274,0.009593,0.229024
24781,0.158017,2.609680,-6.957550,-0.094328,-0.024648,0.217034
24796,0.098162,2.631228,-7.098808,-0.124571,0.001466,0.216634
24811,-0.079009,2.695871,-7.103596,-0.155614,0.033308,0.229424
24826,0.090980,2.849100,-7.151480,-0.193718,0.034773,0.251407
24841,0.165200,3.043030,-7.223306,-0.216767,0.042101,0.272724
24856,0.205901,3.337517,-7.134721,-0.186923,0.050361,0.285115
24871,0.088585,3.258508,-7.089231,-0.111781,0.039436,0.276055
24886,0.064643,2.980781,-7.019799,-0.037438,0.043700,0.258069
24901,0.270545,2.650381,-7.101202,-0.040103,0.048763,0.239283
24916,0.550666,2.477999,-7.015011,-0.082470,0.049962,0.221697
24931,0.598550,2.559402,-7.012617,-0.110182,-0.034240,0.191853
24946,0.301669,2.643199,-7.084443,-0.153749,-0.049162,0.191986
24961,0.294487,3.141193,-7.072472,-0.159877,-0.034507,0.210772
24976,0.392649,3.323152,-7.029376,-0.091663,-0.070479,0.204776
24991,0.227449,3.354276,-6.976704,-0.018119,-0.089665,0.196383
25006,0.110133,3.162740,-7.206547,0.037704,-0.092729,0.187323
25021,-0.004788,3.107674,-7.321469,0.081671,-0.078873,0.185191
25036,0.174777,2.794033,-7.419631,0.115511,-0.039037,0.170403
25051,-0.009577,2.451663,-7.357382,0.097259,-0.013856,0.158678
25066,-0.047884,1.972822,-7.232883,0.020917,0.006262,0.153349
25081,0.177171,2.056619,-7.249643,-0.063285,0.027579,0.142025
25096,0.320823,2.384625,-7.273585,-0.107651,0.011991,0.110848
25111,0.368707,2.370260,-7.153874,-0.123106,-0.020651,0.081671
25126,0.318429,2.533065,-7.137115,-0.145888,-0.040502,0.076741
25141,0.320823,3.074155,-7.110779,-0.121907,-0.063951,0.071279
25156,0.308852,3.179500,-7.067683,-0.059821,-0.057689,0.048230
25171,0.241814,3.217807,-7.110779,0.027579,-0.023582,0.028778
25186,0.000000,2.588132,-7.220912,0.015855,0.021583,0.031842
25201,0.237026,2.473210,-7.220912,-0.065150,0.032642,0.051560
25216,0.335188,2.504335,-7.086837,-0.145089,0.022783,0.070080
25231,0.349553,2.296039,-6.971915,-0.250475,0.019052,0.100856
25246,0.167594,2.571373,-6.933608,-0.363988,0.048763,0.123905
25261,0.339977,3.299210,-6.744466,-0.353462,0.048363,0.118576
25276,0.536301,3.725378,-6.888118,-0.203844,0.034640,0.074609
25291,0.500388,3.536236,-6.924031,-0.101655,0.020518,0.058089
25306,0.241814,3.485958,-7.036559,-0.027712,0.005063,0.059021
25321,0.134075,3.222595,-7.058106,0.038371,0.012124,0.042900
25336,0.241814,2.916138,-7.156269,-0.008660,0.056757,0.059954
25351,0.577003,2.961627,-7.058106,-0.064351,0.027446,0.083270
25366,0.577003,2.971204,-7.072472,-0.089665,-0.027446,0.088199
25381,0.409408,3.023877,-7.153874,-0.093528,-0.052626,0.084335
25396,0.356736,3.169923,-7.072472,-0.078740,-0.058888,0.080472
25411,0.318429,3.126827,-7.086837,-0.060354,-0.042234,0.079806
25426,0.258574,3.191471,-7.058106,-0.034374,-0.028378,0.067948
25441,0.141258,3.100491,-7.101202,-0.020118,-0.013856,0.056757
25456,0.189142,3.136404,-7.096414,-0.041168,-0.023049,0.068214
25471,0.256180,3.119645,-7.125144,-0.039037,0.000799,0.074210
25486,0.155623,3.033453,-7.103596,-0.024381,0.022250,0.063951
25501,0.095768,2.904167,-6.945579,-0.011724,0.030110,0.039436
25516,0.059855,2.772485,-6.962338,-0.006262,0.020251,0.018253
25531,0.323217,2.619257,-6.804321,-0.034640,0.011191,-0.001865
25546,0.301669,2.659958,-6.902483,-0.071279,0.013723,-0.020917
25561,0.198719,2.719813,-6.998251,-0.093528,-0.012923,-0.034107
25576,0.088585,2.942474,-7.007828,-0.133764,0.011458,-0.025047
25591,0.280122,3.349488,-7.201758,-0.149086,0.029711,-0.002531
25606,0.304064,3.655946,-7.237672,-0.111381,0.033574,0.015988
25621,0.225055,3.713407,-7.228095,-0.054225,0.069547,0.025181
25636,0.129287,3.385401,-7.225700,-0.009859,0.103654,0.025181
25651,0.280122,3.213019,-7.110779,0.003064,0.120708,0.018652
25666,0.529119,2.956839,-6.912060,0.001599,0.106851,0.005462
25681,0.490811,2.813187,-6.739678,-0.044233,0.094194,0.010259
25696,0.572214,3.009511,-6.725312,-0.097126,0.055025,0.021983
25711,0.761356,3.354276,-6.859388,-0.091796,0.016121,0.021184
25726,0.651223,3.349488,-6.825869,-0.059155,-0.013723,0.015188
25741,0.512359,3.203442,-7.005434,-0.056224,-0.026913,0.027312
25756,0.337582,3.292027,-7.074866,-0.061286,-0.022916,0.040769
25771,0.342371,3.258508,-7.156269,-0.032775,-0.010792,0.042368
25786,0.385466,3.167529,-7.110779,0.006129,-0.017587,0.026247
25801,0.256180,2.947262,-7.235278,0.013323,-0.001466,0.022516
25816,0.208296,2.755726,-7.199364,-0.027579,-0.006528,0.027845
25831,0.244209,2.940080,-7.079654,-0.069946,-0.005196,0.024781
25846,0.371101,3.110068,-7.048530,-0.080472,0.006928,0.014789
25861,0.342371,3.045424,-7.012617,-0.128302,-0.001732,0.032109
25876,0.287304,3.246537,-7.048530,-0.163741,-0.015855,0.062885
25891,0.248997,3.399766,-7.000646,-0.144289,-0.026380,0.078340
25906,0.304064,3.366247,-6.979098,-0.109783,-0.025047,0.075942
25921,0.258574,3.359065,-6.952762,-0.076874,-0.010792,0.065150
25936,0.076614,3.167529,-6.988675,-0.037971,-0.007594,0.045965
25951,0.153229,3.016694,-6.974309,-0.012657,0.007861,0.021317
25966,0.222661,2.892196,-6.916849,-0.023049,0.016521,0.001599
25981,0.287304,2.928109,-6.861782,-0.038637,0.007861,-0.009326
25996,0.203507,3.052607,-6.871359,-0.039436,0.012391,-0.023049
26011,0.122104,3.157952,-7.034164,-0.040769,0.023315,-0.022250
26026,0.215478,3.179500,-7.017405,-0.073277,0.044233,-0.005196
26041,0.359130,3.351882,-7.098808,-0.118309,0.071545,0.032242
26056,0.430956,3.349488,-7.038953,-0.127103,0.079406,0.045832
26071,0.440533,3.485958,-6.959944,-0.099790,0.087799,0.050228
26086,0.620098,3.435679,-6.924031,-0.047031,0.066749,0.033574
26101,0.675165,3.476381,-6.758832,0.029044,0.037038,-0.008926
26116,0.509965,2.947262,-6.849811,0.033574,0.013723,-0.021983
26131,0.466869,2.995146,-6.718130,-0.022383,0.011325,-0.005063
26146,0.426168,3.136404,-6.763620,-0.109516,0.022250,0.039037
26161,0.682347,3.586514,-6.964733,-0.131766,-0.017587,0.066616
26176,0.454898,3.543418,-7.218518,-0.100856,-0.026247,0.073277
26191,0.287304,3.447650,-7.280767,-0.017853,-0.047031,0.044366
26206,0.294487,3.150769,-7.340622,0.020384,-0.017587,0.016254
26221,0.311246,2.992752,-7.223306,0.034507,-0.006262,-0.011058
26236,0.380678,2.743755,-7.211335,0.000266,0.024914,-0.021317
26251,0.440533,2.880225,-6.955156,-0.051960,0.024781,-0.016121
26266,0.646434,3.169923,-6.845023,-0.073810,0.003331,-0.005462
26281,0.833182,3.390190,-6.722918,-0.074876,-0.023449,0.005329
26296,0.636858,3.452439,-6.761226,-0.099923,-0.038904,0.033441
26311,0.301669,3.450045,-6.806715,-0.123772,-0.038770,0.072211
26326,0.330400,3.689465,-6.959944,-0.092063,-0.025980,0.074343
26341,0.287304,3.462016,-6.988675,-0.051294,-0.011724,0.061686
26356,0.304064,3.256114,-7.046135,-0.032242,-0.030243,0.051960
26371,0.067038,3.186682,-7.101202,-0.019585,-0.013057,0.030776
26386,-0.009577,3.160346,-7.110779,0.001732,-0.009726,0.006262
26401,0.083797,3.110068,-7.058106,-0.010259,0.019718,-0.012124
26416,0.292093,3.191471,-7.062895,-0.032109,0.024515,-0.022916
26431,0.316035,3.373430,-6.921637,-0.054758,0.028112,-0.024515
26446,0.385466,3.483563,-6.885724,-0.070479,0.000266,-0.011724
26461,0.433351,3.667917,-6.823475,-0.080338,0.000133,0.016121
26476,0.519542,3.809175,-6.938396,-0.091130,-0.007061,0.054225
26491,0.392649,3.727772,-7.038953,-0.049562,-0.008127,0.056490
26506,0.158017,3.459621,-6.916849,-0.008394,0.000533,0.041168
26521,0.244209,3.186682,-6.979098,0.022116,0.002398,0.017054
26536,0.210690,2.911349,-7.015011,0.000933,0.027179,-0.008527
26551,0.169988,2.896984,-6.902483,-0.016121,0.052360,-0.031043
26566,0.253785,2.849100,-6.859388,-0.035706,0.052493,-0.054358
26581,0.557849,3.220201,-6.868965,-0.044233,0.017853,-0.068747
26596,0.591368,3.378219,-6.763620,-0.043034,-0.008926,-0.068348
26611,0.351948,3.564966,-6.856994,-0.075276,-0.007461,-0.029577
26626,0.316035,3.773262,-6.909666,-0.077674,0.004663,0.007861
26641,0.366313,3.962404,-6.974309,-0.029178,0.017054,0.022383
26656,0.296881,3.514688,-7.211335,0.025714,-0.005462,0.012657
26671,0.248997,3.100491,-7.144298,0.044100,0.007194,-0.002132
26686,0.251391,2.896984,-7.177816,0.014655,0.009459,-0.010126
26701,0.308852,2.913743,-7.067683,-0.011724,0.004930,-0.026646
26716,0.181959,2.978387,-7.031770,-0.006395,0.039969,-0.052360
26731,0.177171,3.066972,-6.969521,-0.009326,0.031576,-0.064484
26746,0.481235,3.292027,-6.986280,0.008127,0.013590,-0.081671
26761,0.478840,3.356671,-6.880936,0.026380,0.001865,-0.090597
26776,0.354342,3.241749,-6.914454,0.025847,-0.015721,-0.076608
26791,0.059855,3.232172,-7.084443,-0.055557,0.013190,-0.016521
26806,0.181959,3.514688,-7.019799,-0.069014,0.019851,0.019319
26821,0.313640,3.557784,-7.055712,-0.045032,0.027179,0.028778
26836,0.313640,3.464410,-6.971915,0.001732,0.024115,0.020784
26851,0.141258,3.050213,-7.015011,0.018919,0.017320,0.002931
26866,0.244209,3.035848,-7.007828,0.013989,0.013190,-0.007328
26881,0.385466,3.009511,-6.888118,0.001599,0.017720,-0.018786
26896,0.344765,2.985569,-6.940791,-0.017587,0.013057,-0.020251
26911,0.227449,3.086126,-6.971915,-0.042101,0.022649,-0.021983
26926,0.251391,3.208230,-7.043741,-0.042767,0.031842,-0.023182
26941,0.351948,3.153164,-7.108385,-0.033974,0.032109,-0.026380
26956,0.215478,3.227384,-7.139509,-0.052093,0.035839,-0.019985
26971,0.126893,3.265691,-6.979098,-0.067948,0.064884,-0.001865
26986,0.349553,3.440468,-7.015011,-0.049296,0.074743,0.004663
27001,0.248997,3.541024,-7.086837,-0.080205,0.121107,0.046231
27016,0.763750,3.533842,-6.849811,-0.008527,-0.006262,0.017720
27031,0.466869,3.426103,-6.801927,0.043966,0.029577,0.001732
27046,0.474052,3.086126,-6.617573,0.031043,0.014389,-0.008793
27061,0.373495,3.162740,-6.801927,-0.001865,-0.012790,-0.003997
27076,0.416591,3.191471,-6.763620,-0.008793,-0.006395,-0.004530
27091,0.332794,3.134010,-6.897695,-0.026513,0.003198,-0.006795
27106,0.201113,3.095703,-7.029376,-0.053559,0.006129,-0.002265
27121,0.253785,3.320758,-6.967127,-0.045565,0.017853,-0.011325
27136,0.292093,3.296816,-7.137115,-0.036372,0.033175,-0.016787
27151,0.165200,3.459621,-7.070077,-0.034107,0.045565,-0.006395
27166,0.227449,3.320758,-7.094019,-0.026913,0.054092,-0.004263
27181,0.385466,3.361459,-6.909666,-0.019585,0.052493,-0.008127
27196,0.440533,3.368642,-6.931214,0.003597,0.047564,-0.024914
27211,0.421380,3.184288,-6.952762,-0.014522,0.050228,-0.025714
27226,0.380678,3.148375,-6.833052,-0.047430,0.023049,-0.013323
27241,0.505177,3.236961,-7.010222,-0.085801,0.001332,0.000799
27256,0.622492,3.483563,-6.916849,-0.074077,-0.013057,-0.002132
27271,0.378284,3.531447,-7.070077,-0.041835,-0.005462,-0.004397
27286,0.201113,3.368642,-7.086837,-0.050495,0.008260,0.011858
27301,0.296881,3.411737,-7.031770,-0.051827,0.017187,0.018652
27316,0.342371,3.514688,-7.125144,-0.034374,0.019452,0.021317
27331,0.316035,3.411737,-7.105990,-0.031176,0.024781,0.032908
27346,0.282516,3.373430,-6.938396,-0.022116,0.023982,0.039836
27361,0.179565,3.399766,-6.988675,0.009726,0.018519,0.034107
27376,0.287304,3.253720,-6.816292,0.016521,0.023982,0.032908
27391,0.383072,3.143587,-6.732495,0.010259,0.016121,0.033708
27406,0.320823,3.035848,-6.821081,0.002798,0.003064,0.016521
27421,0.268151,3.023877,-6.835446,0.008660,-0.008394,-0.007194
27436,0.375890,2.971204,-6.921637,-0.012124,-0.002132,-0.009593
27451,0.404620,2.999935,-6.969521,-0.070346,0.015455,0.003730
27466,0.361524,3.114856,-6.981492,-0.119109,0.020518,0.027312
27481,0.299275,3.440468,-7.048530,-0.136562,0.047564,0.055424
27496,0.416591,3.754108,-7.024588,-0.107651,0.039037,0.074210
27511,0.466869,3.926491,-7.046135,-0.057156,0.045965,0.089665
27526,0.500388,3.440468,-7.048530,0.003864,0.039170,0.076741
27541,0.351948,3.236961,-7.003040,0.004530,0.027979,0.071945
27556,0.371101,2.992752,-6.969521,-0.009193,0.027712,0.063551
27571,0.466869,2.920926,-7.034164,-0.037704,0.030776,0.036639
27586,0.328006,2.861071,-7.017405,-0.045299,0.030776,0.014655
27601,0.263362,3.028665,-7.046135,-0.053559,0.029444,-0.000266
27616,0.466869,3.282450,-6.921637,-0.050228,0.033175,-0.003198
27631,0.529119,3.375824,-6.924031,-0.053559,0.028645,0.001199
27646,0.553061,3.526659,-6.945579,-0.048896,0.019452,0.014256
27661,0.442927,3.622427,-7.065289,-0.042234,0.021583,0.033175
27676,0.354342,3.483563,-6.878541,-0.031576,0.029044,0.056890
27691,0.490811,3.174711,-7.003040,-0.044899,0.049562,0.063285
27706,0.505177,3.086126,-6.969521,-0.053026,0.025314,0.050761
27721,0.399832,3.026271,-7.031770,-0.050894,0.008793,0.029844
27736,0.347159,3.086126,-6.919243,-0.041835,0.019319,-0.000799
27751,0.541090,3.227384,-6.962338,-0.026380,0.016387,-0.027712
27766,0.572214,3.296816,-6.952762,-0.027712,0.015188,-0.027712
27781,0.430956,3.325546,-6.952762,-0.048363,-0.000133,-0.014789
27796,0.464475,3.375824,-6.912060,-0.069280,-0.005862,0.006928
27811,0.507571,3.490746,-6.806715,-0.109116,0.007861,0.044233
27826,0.462081,3.663129,-6.928820,-0.117510,0.000533,0.069147
27841,0.438139,3.476381,-6.998251,-0.092862,0.001066,0.075809
27856,0.323217,3.406949,-6.955156,-0.051294,-0.002531,0.063152
27871,0.373495,3.220201,-6.967127,-0.020917,0.006795,0.039436
27886,0.375890,3.078943,-7.117961,-0.009326,0.008260,0.008527
27901,0.229843,3.057395,-6.981492,-0.010126,0.027446,-0.022116
27916,0.258574,3.102885,-6.967127,-0.026513,0.024515,-0.030510
27931,0.445322,3.220201,-6.983886,-0.059954,0.015988,-0.024515
27946,0.560243,3.462016,-6.873753,-0.084735,0.001466,-0.008660
27961,0.521936,3.646369,-6.780379,-0.074476,-0.014789,-0.007727
27976,0.387861,3.684676,-6.921637,-0.037571,-0.016521,-0.005729
27991,0.387861,3.744531,-6.921637,-0.006129,-0.021184,-0.002265
28006,0.208296,3.507505,-7.125144,-0.012657,0.016121,0.028245
28021,0.241814,3.138798,-7.098808,-0.026779,0.032109,0.029711
28036,0.186748,2.853888,-7.129932,-0.057689,0.051427,0.020917
28051,0.198719,2.782062,-7.067683,-0.107917,0.062752,0.009326
28066,0.332794,2.964022,-6.940791,-0.140559,0.084202,-0.017720
28081,0.469264,3.083732,-6.801927,-0.147221,0.071412,-0.037438
28096,0.627281,3.347094,-6.617573,-0.148153,0.042900,-0.043300
28111,0.672771,3.440468,-6.607996,-0.190387,0.005329,-0.014522
28126,0.756568,3.751714,-6.651092,-0.226760,-0.023982,0.014655
28141,0.615310,4.017470,-6.689399,-0.196383,-0.047297,0.039703
28156,0.392649,4.254497,-6.754043,-0.086867,-0.020917,0.042634
28171,0.347159,4.036624,-6.842628,0.031176,-0.021717,0.038904
28186,0.418985,3.361459,-7.050924,0.074876,-0.019452,0.028911
28201,0.265756,3.145981,-7.244854,0.066083,0.006395,0.008926
28216,0.141258,2.932897,-7.244854,0.051427,0.034907,-0.027046
28231,0.222661,2.990358,-7.182605,0.043433,0.046231,-0.058489
28246,0.438139,3.004723,-7.019799,0.018919,0.040502,-0.071812
28261,0.454898,3.196259,-6.931214,-0.006795,0.037571,-0.081404
28276,0.478840,3.296816,-6.904878,-0.029577,0.041168,-0.077274
28291,0.421380,3.605668,-6.797139,-0.025847,0.043034,-0.068881
28306,0.565032,3.608062,-6.691793,-0.049162,0.036639,-0.039170
28321,0.725443,3.739743,-6.792350,-0.090864,0.019985,0.009326
28336,0.624887,3.940856,-6.749255,-0.081005,-0.002665,0.042767
28351,0.385466,3.792415,-6.821081,-0.060487,0.004130,0.063418
28366,0.375890,3.658340,-6.926425,-0.004130,-0.011858,0.052093
28381,0.411803,3.481169,-6.998251,0.043567,-0.007061,0.024781
28396,0.229843,2.940080,-7.139509,0.042101,0.024781,-0.005462
28411,0.265756,2.813187,-7.125144,0.012257,0.019319,-0.027579
28426,0.301669,2.935291,-7.072472,-0.018519,0.024781,-0.049962
28441,0.430956,3.215413,-6.933608,-0.027712,0.025847,-0.062885
28456,0.430956,3.445256,-7.019799,-0.012257,0.028911,-0.079939
28471,0.339977,3.440468,-7.000646,-0.008660,0.035573,-0.076075
28486,0.452504,3.596091,-6.991069,-0.012657,0.042368,-0.055025
28501,0.478840,3.552995,-6.907272,-0.021717,0.038904,-0.044766
28516,0.423774,3.507505,-6.756437,-0.058355,0.031709,-0.019052
28531,0.452504,3.612850,-6.734890,-0.124971,0.041568,0.035706
28546,0.648829,3.881001,-6.607996,-0.114446,0.024914,0.061686
28561,0.569820,3.871424,-6.682217,-0.052760,-0.010525,0.049962
28576,0.584185,3.524265,-6.763620,0.008660,-0.028511,0.027046
28591,0.392649,3.251326,-6.852205,0.044499,-0.028378,0.006662
28606,0.184354,2.920926,-6.909666,0.020784,-0.027712,-0.010126
28621,0.292093,3.016694,-7.103596,-0.019185,-0.029178,-0.015055
28636,0.215478,3.110068,-7.201758,-0.048230,-0.018919,-0.026779
