T,AX,AY,AZ,GX,GY,GZ
46,-3.995923,1.151611,-6.545747,0.037438,0.010392,-0.029044
61,-3.940856,1.094150,-6.634333,0.083802,-0.009060,-0.040236
76,-3.837905,0.737414,-6.629544,0.076075,-0.037571,-0.037038
91,-3.804386,0.593762,-6.497863,-0.011858,-0.039703,-0.016254
106,-3.907337,0.588974,-6.502652,-0.110582,-0.054492,-0.001865
121,-4.043807,0.900220,-6.409278,-0.152283,-0.002665,-0.001732
136,-4.027047,1.103727,-6.378153,-0.131233,0.013190,-0.004397
151,-3.885789,1.436521,-6.493075,-0.042368,0.034907,-0.012790
166,-3.931279,1.233014,-6.481104,0.053426,0.033175,-0.016521
181,-3.837905,1.074997,-6.528988,0.105786,0.000400,-0.010259
196,-3.792415,0.699107,-6.526594,0.075542,-0.011325,0.003730
211,-3.761291,0.584185,-6.500257,-0.010259,-0.005196,0.015322
226,-3.938462,0.723049,-6.555324,-0.074210,0.017187,0.015588
241,-4.077325,0.821211,-6.382942,-0.095793,0.008527,0.008527
256,-4.153940,1.003170,-6.327875,-0.062219,0.058888,-0.000799
271,-3.962404,1.060631,-6.426037,-0.001599,0.049029,-0.002132
286,-3.780444,0.926556,-6.473921,0.026113,0.034907,0.015721
301,-3.806781,0.914585,-6.545747,0.043034,0.007861,0.039570
316,-3.828328,0.720655,-6.509834,0.044766,-0.019185,0.047564
331,-3.828328,0.557849,-6.502652,-0.027979,-0.000400,0.065949
346,-3.928885,0.596156,-6.452374,-0.114179,0.005862,0.078074
361,-4.156334,1.058237,-6.390124,-0.135896,0.049429,0.071945
376,-3.931279,1.455675,-6.502652,-0.014256,0.057156,0.029311
391,-3.821146,1.312023,-6.464345,0.103254,0.057423,-0.005196
406,-3.854665,0.950498,-6.505046,0.131233,0.048496,-0.005063
421,-3.849876,0.735020,-6.579266,0.091397,0.048230,0.020251
436,-3.981557,0.653617,-6.552930,0.025181,0.053825,0.046498
451,-3.821146,0.615310,-6.588843,-0.060221,0.064750,0.078873
466,-3.806781,0.857124,-6.658275,-0.122706,0.074476,0.099391
481,-3.746926,1.194707,-6.713341,-0.124838,0.046764,0.088865
496,-3.871424,1.505953,-6.648698,-0.034773,0.018386,0.044100
511,-3.840299,1.498770,-6.667851,0.019851,-0.005995,0.009992
526,-3.691859,1.362301,-6.682217,0.086201,-0.010925,-0.035306
541,-3.775656,1.091756,-6.610391,0.108317,-0.014256,-0.062619
556,-4.096479,0.924162,-6.574478,0.068747,0.003198,-0.063018
571,-3.940856,0.758962,-6.612785,0.021850,-0.016387,-0.061020
586,-3.907337,0.720655,-6.694188,-0.045432,0.008660,-0.036772
601,-3.854665,0.878672,-6.646304,-0.081937,-0.023582,-0.004663
616,-3.964798,0.960075,-6.581660,-0.066083,-0.041568,0.003864
631,-3.948039,0.960075,-6.493075,-0.077407,-0.040636,0.011991
646,-3.967192,0.895431,-6.576872,-0.100856,-0.021583,0.012391
661,-3.926491,1.142034,-6.603208,-0.096593,0.007594,-0.000133
676,-4.022259,1.091756,-6.624756,-0.056623,0.015721,-0.024248
691,-3.864241,1.063026,-6.536170,-0.011591,0.014256,-0.043433
706,-3.852270,1.082179,-6.545747,0.034107,0.000799,-0.054092
721,-3.857059,0.828394,-6.560112,0.047564,-0.018386,-0.044899
736,-3.991134,0.802058,-6.612785,0.037438,-0.014789,-0.025580
751,-4.039018,0.711078,-6.464345,0.020917,-0.005729,-0.002265
766,-3.964798,0.857124,-6.478710,0.015322,0.005063,0.007461
781,-3.974375,0.830788,-6.528988,0.006129,0.012524,0.013323
796,-3.993528,0.730232,-6.459556,-0.029711,0.023982,0.020518
811,-4.072537,0.907402,-6.416461,-0.036905,0.026779,0.026380
826,-3.897760,1.084573,-6.426037,-0.016787,0.004530,0.018386
841,-3.794810,0.881066,-6.457162,-0.008127,0.002665,0.014123
856,-3.897760,0.835576,-6.521805,-0.017320,-0.009326,0.015855
871,-4.005499,0.960075,-6.414066,-0.018119,-0.005729,0.012657
886,-3.945644,0.873884,-6.370971,0.011191,0.000266,-0.001332
901,-3.871424,1.034295,-6.435614,0.031709,0.013057,-0.002798
916,-3.938462,0.840365,-6.303933,0.054492,0.021184,-0.006795
931,-3.995923,0.826000,-6.342240,0.047031,0.027845,0.004397
946,-3.983952,0.818817,-6.490681,0.055025,0.047164,0.000933
961,-3.871424,0.802058,-6.440403,0.031043,0.058222,0.010525
976,-3.849876,0.876278,-6.543353,0.009193,0.052893,0.013323
991,-3.960010,0.763750,-6.722918,-0.020251,0.038104,0.013590
1006,-3.866636,0.689530,-6.572083,-0.055557,0.041568,0.018386
1021,-3.770868,0.991199,-6.581660,-0.063685,0.019985,0.015988
1036,-3.797204,1.072602,-6.531382,-0.016121,-0.013456,-0.003730
1051,-4.094085,0.940921,-6.524199,0.016121,-0.006528,-0.021983
1066,-4.012682,0.924162,-6.586449,0.043567,0.003730,-0.032242
1081,-3.878607,0.737414,-6.435614,0.022250,0.009193,-0.027312
1096,-3.830723,0.691924,-6.409278,-0.029044,0.025314,-0.005462
1111,-3.895366,0.785298,-6.409278,-0.047430,0.033841,0.001466
1126,-4.005499,0.921768,-6.543353,-0.037971,0.045698,-0.002931
1141,-3.991134,0.790087,-6.687005,-0.020251,0.053292,-0.009593
1156,-3.799598,0.799663,-6.658275,-0.045832,0.055025,-0.007461
1171,-3.890578,0.871489,-6.751649,-0.043833,0.036372,-0.005462
1186,-3.933673,0.967257,-6.713341,-0.031443,0.010259,-0.015455
1201,-3.821146,0.979228,-6.679822,-0.004130,-0.014389,-0.034507
1216,-3.828328,0.895431,-6.605602,-0.012790,-0.040369,-0.049429
1231,-3.986346,0.852336,-6.687005,-0.037971,-0.036772,-0.050361
1246,-4.060566,0.761356,-6.684611,-0.046498,-0.030643,-0.060087
1261,-3.981557,0.754174,-6.739678,-0.060221,-0.000266,-0.058222
1276,-3.842694,0.890643,-6.682217,-0.077541,0.001599,-0.058489
1291,-3.794810,0.955286,-6.591237,-0.050761,-0.014922,-0.055957
1306,-4.024653,0.821211,-6.533776,-0.026247,-0.012657,-0.066749
1321,-4.127604,0.814029,-6.679822,-0.031443,-0.023715,-0.056757
1336,-4.062960,0.857124,-6.631938,-0.004796,-0.012391,-0.063418
1351,-3.869030,0.778116,-6.569689,-0.007994,-0.025847,-0.053159
1366,-4.062960,0.790087,-6.569689,0.013723,-0.025047,-0.048096
1381,-3.952827,0.821211,-6.509834,0.023582,-0.049162,-0.045698
1396,-3.976769,0.617704,-6.466739,0.009726,-0.035839,-0.032908
1411,-3.981557,0.493206,-6.378153,-0.056090,-0.030776,-0.014256
1426,-3.907337,0.569820,-6.500257,-0.108983,-0.010792,0.003331
1441,-4.007894,0.828394,-6.442797,-0.132032,-0.001865,0.007594
1456,-3.888184,1.070208,-6.428432,-0.056623,-0.013856,-0.016254
1471,-3.909731,0.895431,-6.375759,-0.005196,-0.016121,-0.035173
1486,-4.034230,0.711078,-6.363788,-0.000933,0.003997,-0.039170
1501,-4.091691,0.627281,-6.359000,-0.023982,0.012391,-0.028511
1516,-4.029441,0.636858,-6.481104,-0.041835,0.021850,-0.018386
1531,-3.854665,0.665588,-6.538565,-0.059021,0.013590,-0.005329
1546,-3.938462,0.732626,-6.526594,-0.053959,-0.005063,-0.001732
1561,-3.976769,0.893037,-6.526594,-0.019985,-0.000266,-0.014522
1576,-4.113238,0.826000,-6.466739,0.019718,0.010525,-0.023449
1591,-3.878607,0.751779,-6.574478,0.035972,0.010792,-0.031443
1606,-3.974375,0.507571,-6.552930,0.012257,0.017453,-0.028511
1621,-4.058172,0.497994,-6.519411,-0.031842,0.004796,-0.007328
1636,-4.012682,0.536301,-6.466739,-0.057956,0.003730,0.003198
1651,-3.976769,0.651223,-6.454768,-0.091796,0.010126,0.019185
1666,-3.943250,0.785298,-6.493075,-0.103787,0.004530,0.031309
1681,-4.084508,0.979228,-6.442797,-0.046364,0.004663,0.019585
1696,-4.146757,1.012747,-6.428432,0.030377,0.010259,0.004796
1711,-4.110844,0.806846,-6.440403,0.074876,0.017587,-0.004663
1726,-3.983952,0.603339,-6.481104,0.062885,0.022783,-0.001998
1741,-4.050989,0.462081,-6.469133,0.016387,0.033175,0.012124
1756,-4.106056,0.572214,-6.505046,-0.022649,0.043034,0.014789
1771,-4.019865,0.694318,-6.466739,-0.038504,0.049962,0.013456
1786,-3.902549,1.019930,-6.447585,-0.012657,0.040636,0.013723
1801,-3.948039,0.845153,-6.552930,0.037838,0.044766,0.002265
1816,-4.091691,0.770933,-6.507440,0.060354,0.040103,0.005729
1831,-4.039018,0.809240,-6.545747,0.054758,0.032242,0.007328
1846,-3.847482,0.555455,-6.639121,0.009992,0.021184,0.007861
1861,-3.971981,0.763750,-6.524199,-0.049562,0.029178,0.008260
1876,-3.988740,1.067814,-6.615179,0.008926,0.011858,-0.032508
1891,-4.007894,1.000776,-6.646304,0.065417,0.012923,-0.070746
1906,-4.024653,0.749385,-6.538565,0.074343,0.005596,-0.081804
1921,-4.019865,0.486023,-6.483498,0.035839,0.005063,-0.062619
1936,-4.185064,0.493206,-6.600814,-0.026646,0.012923,-0.025047
1951,-4.072537,0.588974,-6.646304,-0.050894,0.012923,-0.005462
1966,-3.952827,0.644040,-6.581660,-0.070613,0.016920,0.006662
1981,-4.017470,0.502782,-6.500257,-0.106718,0.007994,0.012124
1996,-3.926491,0.816423,-6.670246,-0.106585,0.016121,0.000400
2011,-3.912126,0.988805,-6.605602,-0.046364,0.001599,-0.038104
2026,-3.924097,0.849942,-6.605602,0.032375,-0.016121,-0.075142
2041,-4.077325,0.701501,-6.490681,0.075409,-0.022116,-0.093662
2056,-4.034230,0.497994,-6.519411,0.047697,-0.017587,-0.074876
2071,-3.993528,0.490811,-6.435614,0.024381,-0.016521,-0.053026
2086,-4.060566,0.450110,-6.536170,-0.007328,0.011458,-0.025980
2101,-4.122815,0.430956,-6.545747,-0.007594,0.025181,-0.015188
2116,-4.180276,0.428562,-6.655880,-0.038637,0.027179,-0.005862
2131,-3.943250,0.548272,-6.567295,-0.060087,0.009726,0.008793
2146,-3.955221,0.804452,-6.655880,-0.051427,-0.002398,0.005729
2161,-4.118027,0.809240,-6.493075,0.012524,-0.025980,-0.015988
2176,-4.046201,0.646434,-6.509834,0.039969,-0.018919,-0.030776
2191,-4.031836,0.629675,-6.552930,0.038770,-0.008660,-0.035706
2206,-3.981557,0.550666,-6.600814,0.031309,-0.003997,-0.034507
2221,-4.062960,0.428562,-6.550536,0.031709,-0.007194,-0.030510
2236,-4.094085,0.342371,-6.502652,0.007061,-0.002531,-0.017587
2251,-3.986346,0.301669,-6.473921,-0.041568,0.006528,0.013323
2266,-3.857059,0.418985,-6.378153,-0.082870,0.003198,0.027845
2281,-4.067749,0.627281,-6.406884,-0.077274,-0.002798,0.029577
2296,-4.034230,0.723049,-6.478710,-0.024515,-0.022383,0.013723
2311,-3.967192,0.907402,-6.500257,0.035839,-0.017320,-0.011858
2326,-4.003105,0.703895,-6.428432,0.080871,-0.013989,-0.035440
2341,-4.082114,0.715866,-6.315904,0.094994,0.015855,-0.047697
2356,-4.213795,0.335188,-6.426037,0.096726,0.012391,-0.051560
2371,-4.027047,0.390255,-6.490681,0.043833,0.013590,-0.030643
2386,-4.034230,0.311246,-6.488286,-0.011991,0.022116,-0.006928
2401,-4.101267,0.289698,-6.457162,-0.061020,0.034773,0.018652
2416,-4.089296,0.282516,-6.521805,-0.121507,0.032109,0.041435
2431,-3.974375,0.545878,-6.629544,-0.143490,0.015322,0.034507
2446,-3.871424,0.711078,-6.466739,-0.115911,-0.007061,0.016787
2461,-3.888184,0.876278,-6.481104,-0.065417,-0.021184,-0.013456
2476,-3.998317,0.799663,-6.449979,-0.000933,-0.029577,-0.048230
2491,-4.240131,0.646434,-6.406884,0.018119,-0.037838,-0.057023
2506,-4.165911,0.545878,-6.378153,0.015988,-0.001732,-0.053292
2521,-4.204218,0.277727,-6.464345,-0.044632,0.026247,-0.029711
2536,-4.146757,0.205901,-6.488286,-0.120574,0.039836,0.009060
2551,-4.192247,0.411803,-6.469133,-0.152283,0.037172,0.032642
2566,-4.077325,0.574608,-6.531382,-0.139093,0.029577,0.037571
2581,-4.005499,0.682347,-6.457162,-0.101389,0.017320,0.031842
2596,-4.201824,0.682347,-6.473921,-0.062619,0.028245,0.017720
2611,-4.074931,0.888249,-6.440403,0.023715,0.004130,-0.008527
2626,-3.998317,0.677559,-6.454768,0.081005,-0.016521,-0.029044
2641,-4.003105,0.342371,-6.538565,0.056757,-0.005196,-0.022516
2656,-4.101267,0.153229,-6.497863,-0.037571,0.019851,-0.000266
2671,-4.110844,0.172383,-6.490681,-0.130433,0.029577,0.024381
2686,-4.027047,0.387861,-6.469133,-0.197582,0.029711,0.046364
2701,-3.904943,0.663194,-6.399701,-0.182127,0.022916,0.045698
2716,-4.070143,0.883460,-6.284780,-0.097126,0.024515,0.021450
2731,-4.173093,0.909797,-6.392519,0.001732,0.020251,-0.000266
2746,-4.062960,0.873884,-6.471527,0.125104,0.015322,-0.033574
2761,-3.988740,0.493206,-6.552930,0.124971,0.015855,-0.015855
2776,-3.971981,0.306458,-6.509834,0.076874,0.022516,0.008793
2791,-4.141969,0.239420,-6.531382,0.006662,0.037305,0.026646
2806,-4.125209,0.344765,-6.600814,-0.055424,0.056090,0.041302
2821,-4.024653,0.452504,-6.572083,-0.114845,0.077407,0.041302
2836,-3.909731,0.543484,-6.629544,-0.144956,0.061686,0.047031
2851,-4.101267,0.636858,-6.634333,-0.138161,0.054891,0.046764
2866,-4.000711,1.115698,-6.531382,-0.055824,0.014256,0.029311
2881,-3.909731,1.204283,-6.567295,0.110982,-0.033041,-0.015055
2896,-4.017470,0.586579,-6.483498,0.140825,-0.032109,-0.025580
2911,-4.084508,0.158017,-6.540959,0.047830,-0.029444,-0.001732
2926,-4.139575,0.227449,-6.584054,-0.069680,0.008127,0.026913
2941,-4.084508,0.567426,-6.461950,-0.139626,0.013323,0.026913
2956,-3.974375,0.773327,-6.452374,-0.138161,0.031975,0.009992
2971,-4.118027,0.785298,-6.483498,-0.093129,0.035306,-0.017187
2986,-4.182670,0.696713,-6.488286,-0.056357,0.041168,-0.027579
3001,-4.180276,0.691924,-6.466739,-0.019052,0.045832,-0.031576
3016,-3.950433,0.885855,-6.569689,0.057023,0.025847,-0.033175
3031,-4.000711,0.555455,-6.607996,0.115378,0.000133,-0.032908
3046,-4.173093,0.179565,-6.612785,0.069547,-0.001466,-0.007994
3061,-4.070143,0.225055,-6.574478,-0.011591,0.000400,0.007727
3076,-3.988740,0.280122,-6.560112,-0.104986,-0.009726,0.027712
3091,-3.983952,0.545878,-6.464345,-0.143224,-0.009459,0.026113
3106,-4.106056,0.706289,-6.368577,-0.118709,-0.021983,0.008660
3121,-4.058172,0.790087,-6.478710,-0.055291,-0.023582,-0.014123
3136,-4.019865,0.735020,-6.409278,-0.011058,-0.015855,-0.025847
3151,-4.005499,0.677559,-6.378153,0.019052,0.009593,-0.020118
3166,-4.173093,0.452504,-6.382942,0.039303,0.020384,-0.004796
3181,-4.067749,0.445322,-6.490681,0.026247,0.034107,0.011058
3196,-4.017470,0.450110,-6.500257,-0.011458,0.039703,0.027446
3211,-3.869030,0.495600,-6.564901,-0.030910,0.035839,0.026779
3226,-4.058172,0.476446,-6.564901,-0.057956,0.045432,0.023982
3241,-4.079720,0.663194,-6.447585,-0.062619,0.039303,0.016121
3256,-3.962404,0.653617,-6.624756,-0.040369,0.020518,0.003064
3271,-3.976769,0.569820,-6.593631,-0.036505,-0.006928,0.006129
3286,-4.000711,0.497994,-6.536170,-0.029577,-0.030243,0.016787
3301,-4.103662,0.366313,-6.457162,-0.045032,-0.041568,0.038104
3316,-4.079720,0.502782,-6.442797,-0.066616,-0.018786,0.058888
3331,-4.019865,0.653617,-6.380548,-0.074210,-0.001466,0.068614
3346,-4.041412,0.751779,-6.303933,-0.054758,0.026646,0.057689
3361,-4.149151,0.833182,-6.397307,-0.011858,0.050228,0.022116
3376,-4.091691,0.737414,-6.354211,0.002798,0.070346,0.000400
3391,-3.940856,0.603339,-6.433220,-0.014389,0.062485,-0.014389
3406,-4.017470,0.543484,-6.548141,-0.051294,0.055025,-0.007328
3421,-4.127604,0.780510,-6.588843,-0.045565,0.046498,-0.002665
3436,-4.144363,0.768539,-6.452374,-0.002265,0.034240,-0.000533
3451,-4.027047,0.627281,-6.481104,0.001066,0.012923,0.011591
3466,-4.127604,0.677559,-6.507440,0.008926,0.003997,0.022250
3481,-4.139575,0.608127,-6.569689,0.017853,-0.004530,0.018919
3496,-4.053383,0.555455,-6.552930,0.003997,-0.009060,0.025580
3511,-3.904943,0.572214,-6.411672,-0.028645,-0.010392,0.015988
3526,-3.897760,0.557849,-6.519411,-0.068481,0.000933,0.008660
3541,-4.079720,0.591368,-6.550536,-0.075675,0.015855,-0.013456
3556,-4.175488,0.665588,-6.493075,-0.052360,0.046631,-0.028245
3571,-4.055778,0.603339,-6.607996,-0.025714,0.064351,-0.029044
3586,-3.960010,0.474052,-6.359000,-0.008394,0.060620,-0.009859
3601,-4.053383,0.529119,-6.603208,-0.003331,0.034773,0.007061
3616,-4.173093,0.524330,-6.631938,0.014389,0.021184,0.019452
3631,-4.065354,0.562637,-6.507440,0.003198,0.026779,0.024781
3646,-3.938462,0.407014,-6.596025,-0.023049,0.012257,0.025714
3661,-4.012682,0.411803,-6.663063,-0.076075,0.001066,0.030510
3676,-4.050989,0.612916,-6.598420,-0.090198,0.000799,0.019985
3691,-3.995923,0.718261,-6.493075,-0.069147,0.005063,0.009193
3706,-4.055778,0.675165,-6.572083,-0.045032,0.007328,0.006395
3721,-4.034230,0.541090,-6.540959,-0.051161,0.013323,0.015055
3736,-4.199430,0.636858,-6.500257,-0.069547,0.037704,0.027979
3751,-4.005499,0.849942,-6.485892,-0.032375,0.037571,0.031309
3766,-3.840299,0.936133,-6.404490,0.014522,0.026380,0.008527
3781,-4.060566,0.646434,-6.548141,0.050361,0.038104,-0.012524
3796,-4.053383,0.474052,-6.517017,0.018253,0.038904,-0.014389
3811,-4.141969,0.536301,-6.521805,-0.015188,0.043300,-0.011325
3826,-3.988740,0.541090,-6.562507,-0.035706,0.025181,-0.003198
3841,-3.995923,0.608127,-6.550536,-0.053959,0.015988,0.011858
3856,-4.046201,0.617704,-6.478710,-0.045965,0.001066,0.013057
3871,-4.086902,0.653617,-6.440403,-0.026646,-0.004130,0.009593
3886,-3.974375,0.754174,-6.473921,-0.005862,0.001332,-0.000400
3901,-3.981557,0.586579,-6.442797,0.005862,0.002398,-0.006795
3916,-4.053383,0.531513,-6.567295,0.008127,0.006395,-0.009726
3931,-3.998317,0.402226,-6.481104,-0.023982,0.020251,-0.004796
3946,-3.983952,0.529119,-6.555324,-0.056357,0.023582,-0.001199
3961,-3.904943,0.584185,-6.586449,-0.069946,0.040502,-0.000666
3976,-4.046201,0.577003,-6.500257,-0.077541,0.047430,0.001199
3991,-4.027047,0.837971,-6.564901,-0.032775,0.049962,-0.014389
4006,-3.971981,0.732626,-6.665457,0.030776,0.022116,-0.029711
4021,-3.924097,0.555455,-6.567295,0.049562,0.016920,-0.038504
4036,-3.995923,0.292093,-6.540959,-0.000533,0.012524,-0.020651
4051,-4.175488,0.490811,-6.512228,-0.029444,0.008127,-0.002398
4066,-4.077325,0.373495,-6.490681,-0.035573,0.010792,-0.005729
4081,-4.019865,0.471658,-6.557718,-0.063152,0.008260,0.014522
4096,-4.027047,0.596156,-6.615179,-0.064750,-0.004130,0.028645
4111,-4.141969,0.641646,-6.605602,-0.041435,-0.018119,0.036372
4126,-4.113238,0.866701,-6.588843,0.019185,-0.012657,0.019319
4141,-3.983952,0.811634,-6.447585,0.086467,-0.002798,-0.016387
4156,-4.053383,0.404620,-6.461950,0.080605,0.024248,-0.027845
4171,-4.096479,0.155623,-6.485892,0.007727,0.031709,-0.009326
4186,-3.998317,0.318429,-6.567295,-0.085135,0.033974,0.019718
4201,-4.003105,0.644040,-6.488286,-0.104587,0.006129,0.023049
4216,-4.015076,0.739808,-6.526594,-0.083536,-0.000533,0.018919
4231,-4.103662,0.952892,-6.490681,-0.028511,0.002132,0.013323
4246,-4.163517,0.780510,-6.481104,0.022516,0.009992,-0.000266
4261,-4.060566,0.677559,-6.502652,0.038770,-0.000533,-0.005462
4276,-3.943250,0.632069,-6.505046,0.026513,-0.008394,-0.008260
4291,-4.127604,0.450110,-6.509834,0.001466,-0.010392,-0.014522
4306,-4.129998,0.577003,-6.579266,-0.026913,-0.009992,-0.019319
4321,-3.940856,0.615310,-6.550536,-0.045698,0.004796,-0.021850
4336,-3.895366,0.553061,-6.531382,-0.057822,0.010126,-0.017587
4351,-3.928885,0.588974,-6.411672,-0.082070,0.010259,-0.011191
4366,-4.024653,0.569820,-6.440403,-0.098191,0.020784,-0.009459
4381,-4.058172,0.603339,-6.421249,-0.087533,0.036772,-0.019052
4396,-4.027047,0.787692,-6.490681,-0.073677,0.047430,-0.018786
4411,-3.964798,0.835576,-6.430826,0.016920,0.023182,-0.038237
4426,-4.082114,0.483629,-6.524199,0.053026,0.005995,-0.035040
4441,-4.113238,0.375890,-6.457162,0.010126,0.017187,-0.019585
4456,-3.995923,0.557849,-6.469133,-0.019851,0.017054,-0.012524
4471,-3.931279,0.586579,-6.593631,-0.022383,0.019319,-0.017853
4486,-4.022259,0.464475,-6.617573,-0.030377,0.027845,-0.019585
4501,-3.981557,0.447716,-6.505046,-0.048363,0.038904,-0.018386
4516,-3.881001,0.529119,-6.572083,-0.054891,0.032642,-0.025980
4531,-3.998317,0.452504,-6.509834,-0.049429,0.043966,-0.028112
4546,-4.153940,0.471658,-6.536170,-0.043700,0.053959,-0.026646
4561,-4.086902,0.390255,-6.538565,-0.034907,0.055158,-0.026913
4576,-4.048595,0.572214,-6.495469,-0.061553,0.039303,-0.003730
4591,-3.876213,0.804452,-6.727706,0.017320,0.000133,-0.025447
4606,-3.974375,0.445322,-6.691793,0.044499,-0.031176,-0.034773
4621,-3.983952,0.380678,-6.689399,0.007594,-0.028378,-0.029044
4636,-4.115633,0.380678,-6.593631,-0.032908,-0.016521,-0.027712
4651,-4.041412,0.409408,-6.591237,-0.059688,0.021184,-0.023715
4666,-4.146757,0.490811,-6.569689,-0.048230,0.043300,-0.025580
4681,-4.067749,0.445322,-6.622362,-0.032508,0.023848,-0.016920
4696,-4.015076,0.383072,-6.540959,-0.038637,0.015588,0.002931
4711,-3.988740,0.387861,-6.555324,-0.055957,-0.003198,0.022783
4726,-4.029441,0.409408,-6.519411,-0.090997,-0.021583,0.037571
4741,-4.122815,0.727837,-6.588843,-0.086201,-0.028645,0.035706
4756,-4.091691,0.596156,-6.509834,-0.046764,-0.015322,0.016787
4771,-3.986346,0.610521,-6.440403,-0.039703,-0.005729,0.014655
4786,-3.919308,0.588974,-6.526594,-0.039303,-0.007461,0.013057
4801,-3.993528,0.682347,-6.502652,-0.020917,-0.016787,0.009193
4816,-4.034230,0.529119,-6.454768,-0.003064,-0.023982,0.001199
4831,-3.981557,0.500388,-6.569689,-0.019851,-0.014522,0.006528
4846,-3.998317,0.495600,-6.457162,-0.050495,-0.006528,0.015188
4861,-3.993528,0.565032,-6.397307,-0.063818,0.008926,0.016121
4876,-3.960010,0.627281,-6.397307,-0.071145,0.002931,0.006129
4891,-3.907337,0.696713,-6.354211,-0.089531,0.010925,0.002665
4906,-3.869030,0.878672,-6.378153,-0.035440,-0.009859,-0.026913
4921,-4.077325,0.646434,-6.351817,-0.020518,-0.003331,-0.040103
4936,-4.137180,0.584185,-6.538565,-0.038237,0.019718,-0.038637
4951,-4.058172,0.529119,-6.481104,-0.070346,0.042767,-0.028112
4966,-3.904943,0.529119,-6.593631,-0.092995,0.046098,-0.014522
4981,-4.007894,0.632069,-6.596025,-0.074343,0.030377,-0.006395
4996,-3.988740,0.694318,-6.521805,-0.037438,0.011724,-0.011458
5011,-3.967192,0.615310,-6.509834,-0.007461,0.015455,-0.016254
5026,-4.043807,0.488417,-6.617573,-0.001599,0.013456,-0.020784
5041,-4.003105,0.380678,-6.579266,-0.044233,0.024781,-0.013456
5056,-4.129998,0.452504,-6.550536,-0.068881,0.035706,-0.010126
5071,-4.053383,0.663194,-6.442797,-0.074476,0.011991,-0.018652
5086,-3.983952,0.639252,-6.581660,-0.060354,-0.021051,-0.027046
5101,-4.077325,0.648829,-6.646304,-0.051028,-0.011191,-0.028245
5116,-4.132392,0.591368,-6.758832,-0.012124,-0.005063,-0.039303
5131,-4.005499,0.478840,-6.560112,-0.018652,-0.003997,-0.025580
5146,-3.991134,0.433351,-6.684611,-0.031576,-0.005862,-0.009593
5161,-4.161122,0.543484,-6.636727,-0.040502,-0.011991,0.005596
5176,-4.199430,0.411803,-6.670246,-0.050095,-0.020251,0.014522
5191,-4.244920,0.459687,-6.552930,-0.078606,-0.000533,0.018519
5206,-4.113238,0.572214,-6.576872,-0.096859,-0.001599,0.024914
5221,-4.120421,0.586579,-6.464345,-0.087799,0.005729,0.023582
5236,-4.079720,0.742203,-6.512228,-0.061553,0.000666,0.020784
5251,-3.979163,0.756568,-6.550536,-0.002931,-0.035706,0.003730
5266,-4.027047,0.569820,-6.493075,-0.000799,-0.038637,0.004397
5281,-4.043807,0.435745,-6.442797,-0.044899,-0.006395,0.019052
5296,-4.165911,0.447716,-6.478710,-0.104054,0.002398,0.029711
5311,-4.213795,0.694318,-6.394913,-0.128168,0.020518,0.036239
5326,-4.125209,0.921768,-6.366182,-0.085801,0.022250,0.021317
5341,-3.902549,1.039083,-6.385336,-0.018119,0.016387,0.008260
5356,-3.988740,0.739808,-6.375759,0.035972,0.009593,-0.006129
5371,-4.182670,0.605733,-6.330269,0.028911,-0.006528,-0.011058
5386,-4.065354,0.488417,-6.306327,-0.019319,0.001332,-0.010525
5401,-4.074931,0.574608,-6.294356,-0.072345,0.001199,0.001998
5416,-4.225766,0.548272,-6.416461,-0.101522,0.026513,0.007328
5431,-4.170699,0.663194,-6.270414,-0.098724,0.014922,0.008394
5446,-4.091691,0.565032,-6.361394,-0.112714,0.026779,0.015055
5461,-3.945644,0.852336,-6.308722,-0.105386,0.054625,0.013989
5476,-3.833117,1.122881,-6.411672,-0.016787,0.047430,-0.003464
5491,-4.055778,0.969652,-6.459556,0.095793,0.038770,-0.034107
5506,-4.046201,0.656011,-6.438008,0.130167,0.048096,-0.041835
5521,-4.146757,0.299275,-6.536170,0.060354,0.044632,-0.025047
5536,-4.125209,0.181959,-6.634333,-0.059288,0.052893,0.000666
5551,-4.127604,0.418985,-6.600814,-0.137495,0.048629,0.020917
5566,-4.062960,0.790087,-6.536170,-0.151750,0.027845,0.024381
5581,-4.065354,0.938527,-6.466739,-0.106985,0.027979,0.018386
5596,-4.084508,0.883460,-6.576872,-0.058089,0.026247,0.005196
5611,-4.204218,0.758962,-6.445191,-0.025447,0.030110,-0.016920
5626,-4.232948,0.787692,-6.509834,0.013590,0.031576,-0.029711
5641,-4.103662,0.644040,-6.624756,0.022649,0.025580,-0.029844
5656,-3.995923,0.567426,-6.603208,0.003730,0.015188,-0.022783
5671,-4.094085,0.438139,-6.658275,-0.055424,0.003597,0.005196
5686,-4.144363,0.445322,-6.641515,-0.080205,-0.006262,0.009593
5701,-3.967192,0.713472,-6.531382,-0.096060,0.002398,0.019319
5716,-4.096479,0.790087,-6.540959,-0.073410,0.004930,0.010658
5731,-4.177882,0.814029,-6.560112,-0.021983,-0.002798,-0.009193
5746,-4.185064,0.660800,-6.500257,0.000533,0.006928,-0.021983
5761,-4.223372,0.529119,-6.433220,0.005862,0.026380,-0.023182
5776,-3.952827,0.600945,-6.586449,-0.026646,0.022916,-0.006395
5791,-4.060566,0.629675,-6.569689,-0.038504,0.013456,-0.000799
5806,-4.091691,0.574608,-6.596025,-0.043433,0.008394,0.005329
5821,-3.945644,0.754174,-6.531382,-0.039303,0.007594,0.002531
5836,-4.053383,0.732626,-6.579266,-0.009060,-0.002398,-0.006262
5851,-4.043807,0.682347,-6.586449,0.021850,-0.021051,-0.016787
5866,-4.036624,0.646434,-6.581660,0.041835,-0.028511,-0.027446
5881,-4.012682,0.500388,-6.392519,0.025847,-0.028245,-0.020784
5896,-4.113238,0.359130,-6.375759,-0.021717,-0.024381,0.002265
5911,-4.096479,0.469264,-6.282385,-0.075142,-0.001732,0.023049
5926,-4.144363,0.718261,-6.217741,-0.091796,0.022916,0.024248
5941,-4.108450,0.730232,-6.325481,-0.086467,0.062619,0.013856
5956,-4.007894,0.802058,-6.349423,-0.046631,0.072078,-0.003864
5971,-4.098873,0.864307,-6.373365,0.012124,0.053692,-0.019585
5986,-3.909731,0.787692,-6.402095,0.071678,0.013057,-0.031709
6001,-3.964798,0.344765,-6.335058,0.041435,0.000133,-0.022383
6016,-4.017470,0.169988,-6.428432,-0.045432,0.012124,0.009459
6031,-4.235343,0.409408,-6.299145,-0.102322,0.034907,0.038637
6046,-4.271256,0.696713,-6.366182,-0.074743,0.049296,0.039969
6061,-4.058172,0.895431,-6.519411,-0.021051,0.078074,0.036505
6076,-4.015076,0.770933,-6.507440,0.047697,0.064884,0.021051
6091,-4.039018,0.588974,-6.598420,0.047297,0.051294,0.019585
6106,-4.082114,0.493206,-6.586449,0.004397,0.056890,0.014389
6121,-4.029441,0.550666,-6.555324,-0.046231,0.035306,0.016787
6136,-4.043807,0.687136,-6.517017,-0.085002,0.023449,0.012790
6151,-4.295198,0.804452,-6.524199,-0.050228,0.034107,-0.009992
6166,-4.192247,0.682347,-6.540959,-0.039303,0.030510,-0.010259
6181,-4.259285,0.770933,-6.543353,-0.021717,0.055557,-0.001998
6196,-3.883395,0.972046,-6.596025,0.031709,0.038637,-0.000666
6211,-3.993528,0.648829,-6.617573,0.059421,0.014922,-0.003997
6226,-4.043807,0.493206,-6.634333,0.018786,-0.016521,0.002665
6241,-3.919308,0.512359,-6.557718,-0.047297,-0.030377,0.014123
6256,-4.003105,0.574608,-6.596025,-0.089398,-0.008127,0.008926
6271,-4.067749,0.651223,-6.481104,-0.107917,0.009593,-0.000400
6286,-4.139575,0.718261,-6.567295,-0.106718,0.038237,-0.014389
6301,-4.022259,0.773327,-6.543353,-0.099257,0.040236,-0.011991
6316,-3.881001,0.895431,-6.531382,-0.063285,0.023049,-0.009593
6331,-3.943250,0.823605,-6.557718,-0.018652,-0.010658,-0.012923
6346,-4.161122,0.517148,-6.574478,-0.013057,-0.017720,-0.019185
6361,-4.168305,0.560243,-6.581660,-0.044632,0.002665,-0.012391
6376,-4.024653,0.572214,-6.473921,-0.056490,0.016920,-0.008260
6391,-3.974375,0.725443,-6.528988,-0.035972,-0.001466,-0.015855
6406,-4.096479,0.708684,-6.555324,0.000933,0.001199,-0.021317
6421,-4.127604,0.670376,-6.617573,0.038371,-0.023049,-0.033441
6436,-3.967192,0.641646,-6.526594,0.034907,-0.039303,-0.029178
6451,-3.995923,0.521936,-6.538565,0.016920,-0.035306,-0.018786
6466,-4.077325,0.450110,-6.438008,-0.021717,-0.025847,-0.008926
6481,-4.180276,0.553061,-6.339846,-0.048096,-0.016654,-0.007994
6496,-4.139575,0.536301,-6.294356,-0.060753,0.011191,-0.015055
6511,-4.094085,0.586579,-6.337452,-0.073677,0.040369,-0.013057
6526,-4.125209,0.641646,-6.469133,-0.048096,0.040369,-0.012391
6541,-4.165911,0.605733,-6.457162,-0.027179,0.045165,-0.003464
6556,-4.019865,0.612916,-6.416461,-0.029311,0.030110,0.013057
6571,-3.955221,0.684742,-6.423643,-0.015322,0.019319,0.017587
6586,-4.065354,0.663194,-6.488286,0.011991,0.006795,0.008260
6601,-4.139575,0.658405,-6.521805,0.045832,-0.006395,-0.006662
6616,-4.103662,0.600945,-6.538565,0.051427,0.012391,-0.007594
6631,-4.060566,0.385466,-6.375759,0.018919,0.017986,-0.000400
6646,-4.027047,0.469264,-6.540959,-0.022516,0.036772,0.008394
6661,-4.106056,0.397437,-6.433220,-0.049962,0.043833,0.011858
6676,-4.055778,0.560243,-6.404490,-0.086334,0.047963,0.020384
6691,-3.924097,0.715866,-6.454768,-0.077940,0.037704,0.014789
6706,-3.945644,0.778116,-6.543353,-0.054625,0.042900,0.010525
6721,-4.084508,0.897826,-6.356606,-0.005063,0.023182,-0.002265
6736,-4.204218,0.775721,-6.495469,0.057556,0.018119,-0.026247
6751,-4.039018,0.476446,-6.509834,0.039703,0.032908,-0.028378
6766,-3.986346,0.351948,-6.548141,-0.027312,0.038104,-0.011724
6781,-4.120421,0.438139,-6.548141,-0.072877,0.032908,0.009060
6796,-4.127604,0.699107,-6.624756,-0.047297,0.027312,0.006528
6811,-4.108450,0.624887,-6.617573,-0.011191,0.035173,0.003864
6826,-3.993528,0.615310,-6.445191,-0.006528,0.028911,0.006395
6841,-4.144363,0.519542,-6.485892,-0.017187,0.023049,0.012524
6856,-4.132392,0.574608,-6.507440,-0.035706,0.028511,0.016654
6871,-3.928885,0.474052,-6.411672,-0.049962,0.036772,0.008394
6886,-3.945644,0.598550,-6.466739,-0.085268,0.046631,0.013989
6901,-4.149151,0.761356,-6.600814,-0.048230,0.038904,0.000666
6916,-4.175488,0.744597,-6.478710,0.002132,0.037571,-0.011325
6931,-4.034230,0.780510,-6.603208,0.036639,0.028245,-0.005729
6946,-3.921702,0.586579,-6.646304,0.040369,0.010792,0.014789
6961,-3.998317,0.471658,-6.696582,0.012124,-0.009193,0.037038
6976,-4.132392,0.390255,-6.615179,-0.031709,-0.017986,0.050628
6991,-4.082114,0.581791,-6.464345,-0.051161,0.004796,0.037172
7006,-3.912126,0.644040,-6.564901,-0.065683,0.011191,0.019319
7021,-3.857059,0.797269,-6.557718,-0.060087,0.003997,-0.003198
7036,-3.964798,0.845153,-6.454768,-0.010392,0.000400,-0.033574
7051,-4.065354,0.744597,-6.440403,0.030910,0.012124,-0.050095
7066,-4.106056,0.620098,-6.452374,0.032508,0.018119,-0.043433
7081,-4.048595,0.380678,-6.514623,0.005063,0.025847,-0.028645
7096,-4.175488,0.239420,-6.454768,-0.056757,0.048896,0.004397
7111,-4.084508,0.373495,-6.593631,-0.101655,0.053026,0.028778
7126,-3.938462,0.663194,-6.579266,-0.096326,0.030910,0.041968
7141,-3.943250,0.826000,-6.564901,-0.034507,0.013723,0.031576
7156,-4.012682,0.833182,-6.505046,0.046498,0.000533,0.005462
7171,-4.086902,0.660800,-6.526594,0.086734,-0.010658,-0.021717
7186,-3.919308,0.560243,-6.552930,0.082204,-0.015322,-0.033974
7201,-3.940856,0.361524,-6.579266,0.047164,-0.010392,-0.032775
7216,-4.024653,0.359130,-6.524199,-0.003331,0.004930,-0.022783
7231,-4.072537,0.383072,-6.485892,-0.029977,0.011191,-0.009326
7246,-4.170699,0.471658,-6.382942,-0.032775,0.034507,-0.013590
7261,-4.000711,0.476446,-6.593631,-0.047830,0.058755,-0.001865
7276,-4.007894,0.356736,-6.622362,-0.065683,0.055691,0.012124
7291,-3.993528,0.569820,-6.643909,-0.073943,0.047830,0.024515
7306,-3.967192,0.761356,-6.560112,-0.030510,0.025314,0.020251
7321,-4.017470,0.658405,-6.517017,0.013456,0.012657,0.006662
7336,-4.055778,0.464475,-6.617573,0.001732,0.025714,0.007194
7351,-4.067749,0.612916,-6.675034,0.015588,0.014922,0.000266
7366,-4.058172,0.507571,-6.550536,0.017986,-0.005063,0.005596
7381,-3.969586,0.399832,-6.548141,-0.010792,-0.003997,0.020784
7396,-4.039018,0.543484,-6.538565,-0.029577,-0.015188,0.024648
7411,-4.074931,0.502782,-6.540959,-0.030910,-0.010525,0.024115
7426,-4.058172,0.517148,-6.493075,-0.038637,0.006262,0.018519
7441,-3.928885,0.483629,-6.610391,-0.057822,-0.009593,0.011991
7456,-3.818752,0.636858,-6.478710,-0.071012,-0.009992,0.007328
7471,-3.921702,0.651223,-6.385336,-0.029977,-0.014655,-0.017054
7486,-4.027047,0.629675,-6.311116,-0.003597,-0.004397,-0.028778
7501,-4.072537,0.735020,-6.347029,0.037838,0.017320,-0.050095
7516,-4.070143,0.387861,-6.428432,0.037305,0.037704,-0.055557
7531,-4.170699,0.572214,-6.526594,0.018386,0.071545,-0.030510
7546,-4.180276,0.342371,-6.545747,0.044233,0.055957,-0.015322
7561,-3.859453,0.335188,-6.459556,0.030377,0.031176,0.017587
7576,-3.842694,0.256180,-6.507440,-0.020518,0.010658,0.048629
7591,-3.962404,0.256180,-6.457162,-0.075409,0.000933,0.067282
7606,-4.055778,0.536301,-6.421249,-0.087533,0.012124,0.063685
7621,-4.115633,0.677559,-6.500257,-0.059288,0.053026,0.030110
7636,-3.952827,0.948104,-6.430826,0.009726,0.059954,-0.018919
7651,-4.036624,0.593762,-6.560112,0.053825,0.064750,-0.046897
7666,-4.029441,0.265756,-6.466739,0.018253,0.039969,-0.035573
7681,-4.039018,0.313640,-6.533776,-0.037571,0.035173,-0.006928
7696,-3.976769,0.486023,-6.473921,-0.066482,0.009326,0.015055
7711,-4.197035,0.553061,-6.555324,-0.082737,0.044233,0.025980
7726,-4.235343,0.763750,-6.624756,-0.046498,0.064884,0.023182
7741,-4.098873,0.665588,-6.754043,0.008127,0.064750,0.003997
7756,-3.926491,0.732626,-6.742072,0.039436,0.030643,-0.000799
7771,-3.861847,0.600945,-6.698976,0.077541,-0.020518,-0.022116
7786,-3.928885,0.234632,-6.732495,0.038104,-0.045965,-0.013856
7801,-4.015076,0.265756,-6.598420,-0.019985,-0.059554,-0.007594
7816,-4.091691,0.284910,-6.552930,-0.093395,-0.038770,0.006662
7831,-4.015076,0.478840,-6.421249,-0.116311,-0.015855,0.007194
7846,-4.189853,0.658405,-6.330269,-0.084735,0.033441,0.001998
7861,-4.043807,0.689530,-6.296751,-0.026779,0.045565,-0.000533
7876,-3.967192,0.521936,-6.459556,-0.001599,0.043700,0.001865
7891,-3.936068,0.509965,-6.390124,-0.013057,0.047697,0.011591
7906,-4.072537,0.495600,-6.442797,-0.012790,0.054092,0.011724
7921,-4.146757,0.421380,-6.478710,-0.030643,0.057956,0.008260
7936,-4.005499,0.514753,-6.624756,-0.041835,0.066482,0.010126
7951,-3.883395,0.574608,-6.634333,-0.021450,0.031309,-0.005729
7966,-3.948039,0.481235,-6.651092,-0.022116,0.008527,-0.003198
7981,-4.039018,0.454898,-6.634333,-0.018519,-0.010126,0.000000
7996,-4.120421,0.426168,-6.612785,-0.037838,-0.016121,0.015322
8011,-3.986346,0.514753,-6.517017,-0.070346,-0.003198,0.025181
8026,-3.986346,0.608127,-6.428432,-0.073810,0.020518,0.013323
8041,-4.000711,0.565032,-6.497863,-0.065417,0.032642,-0.001865
8056,-3.988740,0.610521,-6.445191,-0.048230,0.052626,-0.017187
8071,-3.950433,0.502782,-6.459556,-0.044632,0.045032,-0.020917
8086,-3.995923,0.555455,-6.524199,-0.035573,0.051294,-0.019585
8101,-4.034230,0.533907,-6.488286,-0.018253,0.061953,-0.011058
8116,-4.031836,0.665588,-6.488286,0.007727,0.059821,-0.004130
8131,-3.945644,0.600945,-6.636727,0.016121,0.033574,-0.002531
8146,-3.960010,0.416591,-6.610391,-0.003997,0.014655,-0.003464
8161,-4.000711,0.366313,-6.643909,-0.052493,0.016254,-0.001066
8176,-4.043807,0.474052,-6.663063,-0.069413,0.015721,-0.009992
8191,-3.845088,0.696713,-6.584054,-0.057156,0.013590,-0.022649
8206,-3.732560,0.615310,-6.442797,-0.014389,0.001332,-0.046364
8221,-3.919308,0.378284,-6.596025,0.015055,-0.008394,-0.059821
8236,-4.065354,0.146046,-6.421249,0.000000,0.004263,-0.059688
8251,-4.050989,0.095768,-6.512228,-0.043567,0.041035,-0.041835
8266,-3.854665,0.153229,-6.528988,-0.073544,0.042368,-0.022250
8281,-4.017470,0.392649,-6.540959,-0.051161,0.046897,-0.012257
8296,-4.141969,0.390255,-6.548141,-0.012657,0.030243,-0.003464
8311,-3.955221,0.474052,-6.643909,0.025447,0.021317,0.001466
8326,-3.971981,0.332794,-6.651092,0.041701,0.015055,0.007994
8341,-4.055778,0.083797,-6.622362,-0.022783,0.019718,0.027979
8356,-4.067749,0.260968,-6.610391,-0.079006,0.024781,0.045565
8371,-3.986346,0.486023,-6.490681,-0.081937,0.019851,0.045965
8386,-3.914520,0.636858,-6.655880,-0.025980,0.011591,0.027845
8401,-3.864241,0.703895,-6.713341,0.041168,-0.009193,0.009859
8416,-4.003105,0.447716,-6.610391,0.073544,-0.015588,0.002132
8431,-4.046201,0.248997,-6.670246,0.042900,-0.001066,0.013456
8446,-3.897760,0.225055,-6.483498,-0.053692,-0.000666,0.042368
8461,-3.845088,0.423774,-6.562507,-0.101655,0.023182,0.043300
8476,-4.072537,0.656011,-6.461950,-0.120308,0.041835,0.045432
8491,-4.029441,0.902614,-6.512228,-0.037038,0.027446,0.011591
8506,-3.866636,0.756568,-6.615179,0.027312,0.023715,-0.017986
8521,-3.782839,0.538695,-6.552930,0.023049,0.014389,-0.014256
8536,-3.900155,0.354342,-6.581660,-0.009859,0.004263,-0.002931
8551,-3.845088,0.330400,-6.531382,-0.043433,-0.011191,0.008260
8566,-3.869030,0.569820,-6.550536,-0.038504,-0.005063,0.012657
8581,-3.936068,0.586579,-6.418855,-0.015721,0.007328,0.005862
8596,-4.079720,0.486023,-6.454768,0.000666,0.023182,0.002398
8611,-4.153940,0.464475,-6.502652,0.022116,0.035839,-0.001998
8626,-3.969586,0.440533,-6.497863,0.020784,0.048629,0.001599
8641,-3.900155,0.397437,-6.629544,-0.005462,0.062885,0.002265
8656,-3.813963,0.356736,-6.636727,-0.035306,0.035440,-0.000933
8671,-3.823540,0.600945,-6.696582,-0.042101,0.027579,-0.014522
8686,-3.849876,0.459687,-6.562507,-0.047697,-0.006795,-0.026513
8701,-3.895366,0.639252,-6.643909,-0.049828,-0.007461,-0.037305
8716,-4.034230,0.610521,-6.605602,-0.039303,0.017986,-0.049296
8731,-4.060566,0.502782,-6.646304,-0.041968,0.025714,-0.047564
8746,-4.058172,0.593762,-6.457162,-0.046764,0.023982,-0.038237
8761,-3.907337,0.581791,-6.643909,-0.023449,0.008394,-0.033841
8776,-3.933673,0.533907,-6.718130,-0.007194,-0.008793,-0.024914
8791,-4.027047,0.294487,-6.677428,-0.013989,-0.016920,-0.015455
8806,-4.094085,0.220267,-6.648698,-0.054092,-0.002398,-0.003597
8821,-3.957615,0.371101,-6.612785,-0.089798,0.017054,-0.000666
8836,-3.890578,0.548272,-6.545747,-0.079273,0.029577,-0.011591
8851,-3.931279,0.586579,-6.629544,-0.018386,0.030243,-0.035972
8866,-4.024653,0.399832,-6.572083,-0.002398,0.013856,-0.031443
8881,-3.828328,0.433351,-6.663063,0.024781,-0.005196,-0.022116
8896,-4.017470,0.148441,-6.658275,0.005196,-0.014256,0.005196
8911,-4.019865,0.035913,-6.607996,-0.058489,-0.003331,0.037971
8926,-3.976769,0.093374,-6.538565,-0.126969,0.008660,0.057289
8941,-3.950433,0.493206,-6.461950,-0.163342,0.027312,0.059155
8956,-3.797204,0.811634,-6.342240,-0.108184,0.025847,0.037438
8971,-3.967192,0.826000,-6.366182,-0.022916,0.031576,-0.005329
8986,-3.971981,0.691924,-6.442797,0.065550,0.032908,-0.035440
9001,-3.943250,0.488417,-6.564901,0.109649,0.033841,-0.041568
9016,-3.821146,0.225055,-6.651092,0.107518,0.034240,-0.024914
9031,-3.938462,-0.031125,-6.612785,0.022383,0.040369,0.019718
9046,-3.986346,0.086191,-6.509834,-0.069946,0.044100,0.053692
9061,-3.869030,0.320823,-6.536170,-0.104986,0.047697,0.053692
9076,-3.830723,0.545878,-6.490681,-0.147487,0.057423,0.056623
9091,-3.825934,0.907402,-6.581660,-0.037971,0.006395,-0.000799
9106,-4.113238,0.536301,-6.670246,0.025047,0.006662,-0.023982
9121,-4.003105,0.469264,-6.509834,0.029577,-0.001998,-0.031043
9136,-3.876213,0.452504,-6.567295,0.014522,0.014789,-0.013590
9151,-3.979163,0.399832,-6.552930,0.017853,0.014789,-0.011458
9166,-4.127604,0.387861,-6.576872,-0.005329,0.041568,0.003864
9181,-4.146757,0.359130,-6.746861,-0.011591,0.044100,0.006528
9196,-3.801992,0.426168,-6.806715,-0.013057,0.023182,0.009060
9211,-3.804386,0.356736,-6.658275,-0.027712,-0.007461,0.014922
9226,-3.892972,0.335188,-6.576872,-0.047564,-0.027712,0.018519
9241,-3.921702,0.299275,-6.471527,-0.088865,-0.032242,0.017054
9256,-3.847482,0.646434,-6.423643,-0.101123,-0.019585,0.009992
9271,-3.967192,0.538695,-6.464345,-0.073277,0.005329,-0.015055
9286,-3.981557,0.548272,-6.607996,-0.068747,0.040502,-0.015855
9301,-3.993528,0.615310,-6.464345,-0.040103,0.048496,-0.027979
9316,-3.902549,0.581791,-6.600814,-0.007727,0.029311,-0.038371
9331,-3.864241,0.399832,-6.493075,-0.025047,0.015322,-0.024248
9346,-3.804386,0.284910,-6.679822,-0.063152,-0.013856,-0.010925
9361,-4.062960,0.383072,-6.569689,-0.070346,-0.023182,-0.010259
9376,-3.993528,0.521936,-6.440403,-0.045165,-0.008260,-0.011858
9391,-4.017470,0.502782,-6.493075,-0.000933,-0.004530,-0.018919
9406,-3.971981,0.361524,-6.564901,0.029577,0.004397,-0.012923
9421,-3.967192,0.385466,-6.684611,0.045165,0.013057,-0.006928
9436,-3.974375,0.253785,-6.641515,0.040236,0.016387,-0.004530
9451,-3.945644,0.177171,-6.581660,-0.032109,0.016654,0.020384
9466,-3.909731,0.373495,-6.447585,-0.045832,0.014655,0.012391
9481,-4.055778,0.284910,-6.607996,-0.061420,0.018919,0.015188
9496,-4.122815,0.493206,-6.732495,-0.058355,0.019985,0.013989
9511,-3.971981,0.502782,-6.660669,-0.026247,0.024914,0.012124
9526,-3.866636,0.313640,-6.701370,-0.027979,0.023582,0.021850
9541,-4.055778,0.246603,-6.651092,-0.076741,0.016254,0.056623
9556,-3.981557,0.567426,-6.624756,-0.087400,0.000000,0.071812
9571,-3.928885,0.641646,-6.531382,-0.061286,-0.014389,0.061686
9586,-3.869030,0.804452,-6.509834,-0.009859,-0.026113,0.027579
9601,-3.904943,0.699107,-6.562507,0.034640,-0.036772,-0.015721
9616,-4.041412,0.555455,-6.574478,0.019185,-0.023049,-0.039436
9631,-3.945644,0.366313,-6.555324,-0.008527,-0.007194,-0.054092
9646,-3.974375,0.304064,-6.469133,-0.049962,-0.002665,-0.048230
9661,-3.988740,0.459687,-6.414066,-0.057156,0.004796,-0.039436
9676,-3.940856,0.392649,-6.490681,-0.059688,0.001332,-0.019319
9691,-3.873818,0.373495,-6.421249,-0.051827,-0.002798,0.001199
9706,-4.029441,0.536301,-6.394913,-0.028112,-0.008926,0.007594
9721,-4.086902,0.440533,-6.471527,0.007727,0.004397,0.002798
9736,-4.027047,0.239420,-6.385336,-0.034640,0.034640,0.015721
9751,-3.928885,0.469264,-6.416461,-0.057689,0.053292,0.014522
9766,-3.907337,0.483629,-6.528988,-0.059155,0.047963,0.011724
9781,-3.940856,0.620098,-6.557718,-0.014789,0.031043,-0.004130
9796,-3.885789,0.464475,-6.476315,0.000933,0.003864,-0.008926
9811,-3.926491,0.409408,-6.449979,0.002798,-0.013590,-0.008926
9826,-4.113238,0.263362,-6.564901,-0.014522,0.004663,-0.001199
9841,-4.189853,0.210690,-6.526594,-0.045965,0.028778,0.008793
9856,-4.053383,0.373495,-6.572083,-0.078873,0.055158,0.023848
9871,-3.840299,0.526724,-6.538565,-0.049162,0.059021,0.009992
9886,-3.909731,0.416591,-6.538565,-0.035440,0.072211,0.007594
9901,-4.050989,0.464475,-6.648698,-0.035306,0.048896,0.009060
9916,-3.974375,0.596156,-6.742072,0.015055,0.026380,-0.006262
9931,-3.926491,0.292093,-6.624756,0.006795,0.002665,-0.006395
9946,-4.096479,0.033519,-6.629544,-0.075276,0.011325,0.020917
9961,-4.125209,0.304064,-6.617573,-0.127103,0.006528,0.041568
9976,-4.091691,0.763750,-6.569689,-0.078606,0.021850,0.035573
9991,-3.909731,0.761356,-6.574478,-0.009593,0.012790,0.021450
10006,-3.924097,0.545878,-6.521805,0.018386,0.002931,0.013856
10021,-3.957615,0.366313,-6.610391,0.009859,-0.003464,0.005995
10036,-4.024653,0.435745,-6.526594,-0.023848,0.003198,0.006662
10051,-3.907337,0.402226,-6.440403,-0.057956,0.011191,0.007861
10066,-3.955221,0.521936,-6.416461,-0.071412,0.034107,0.001199
10081,-3.976769,0.718261,-6.483498,-0.022116,0.038371,-0.012524
10096,-4.115633,0.536301,-6.452374,0.011591,0.038904,-0.012524
10111,-3.957615,0.505177,-6.560112,0.027712,0.027046,-0.011858
10126,-3.948039,0.349553,-6.703764,-0.003064,0.033708,0.003997
10141,-3.986346,0.282516,-6.734890,-0.068747,0.010792,0.025714
10156,-3.995923,0.567426,-6.572083,-0.080472,0.003064,0.021051
10171,-4.003105,0.699107,-6.469133,-0.042634,-0.003730,-0.004796
10186,-3.926491,0.660800,-6.517017,0.005862,-0.017054,-0.024781
10201,-4.005499,0.430956,-6.540959,0.020518,-0.025447,-0.026247
10216,-4.127604,0.263362,-6.505046,-0.004130,-0.013989,-0.010658
10231,-4.027047,0.325611,-6.442797,-0.046364,-0.007328,0.013190
10246,-3.945644,0.440533,-6.438008,-0.079939,0.027179,0.027712
10261,-3.811569,0.562637,-6.500257,-0.086201,0.035573,0.026113
10276,-3.916914,0.622492,-6.538565,-0.079939,0.036772,0.013456
10291,-3.902549,0.928950,-6.562507,-0.005862,0.011858,-0.019851
10306,-3.797204,0.615310,-6.569689,0.028911,-0.008260,-0.050095
10321,-3.916914,0.447716,-6.471527,-0.012391,0.012391,-0.046098
10336,-4.005499,0.328006,-6.560112,-0.041835,0.021583,-0.040769
10351,-4.161122,0.359130,-6.421249,-0.068348,0.028245,-0.033841
10366,-3.998317,0.608127,-6.454768,-0.066749,0.025047,-0.030643
10381,-3.933673,0.541090,-6.481104,-0.037571,0.014522,-0.025847
10396,-3.912126,0.538695,-6.536170,-0.000933,-0.003198,-0.020384
10411,-3.981557,0.222661,-6.639121,-0.005063,0.000400,-0.009992
10426,-3.897760,0.184354,-6.493075,-0.068348,0.004397,0.012923
10441,-3.873818,0.361524,-6.562507,-0.090597,0.019185,0.013456
10456,-4.041412,0.450110,-6.512228,-0.080205,0.035573,-0.004130
10471,-3.964798,0.445322,-6.519411,-0.055957,0.036905,-0.011858
10486,-3.940856,0.677559,-6.569689,-0.011991,0.020784,-0.025447
10501,-3.897760,0.454898,-6.708553,0.036772,0.007994,-0.032242
10516,-4.101267,0.160412,-6.679822,-0.003597,0.026380,-0.017587
10531,-4.165911,0.057461,-6.593631,-0.079672,0.038371,0.012391
10546,-3.928885,0.380678,-6.624756,-0.121107,0.063951,0.033974
10561,-3.866636,0.617704,-6.653486,-0.092462,0.045032,0.034240
10576,-3.859453,0.598550,-6.598420,-0.060221,0.009326,0.025980
10591,-3.830723,0.612916,-6.689399,-0.017054,-0.006795,0.013856
10606,-3.950433,0.493206,-6.658275,0.019851,-0.027046,0.000000
10621,-3.998317,0.407014,-6.588843,0.009859,-0.006395,-0.006662
10636,-4.007894,0.478840,-6.533776,0.002665,0.007861,-0.001865
10651,-4.036624,0.392649,-6.593631,-0.007594,0.022116,0.003464
10666,-3.988740,0.407014,-6.414066,-0.007461,0.020784,0.009459
10681,-3.924097,0.483629,-6.591237,-0.027845,0.015988,0.023049
10696,-3.873818,0.588974,-6.622362,0.012790,-0.007461,0.004397
10711,-4.036624,0.311246,-6.667851,0.003730,0.001199,0.000933
10726,-4.072537,0.330400,-6.490681,-0.032242,0.005462,0.007727
10741,-3.902549,0.521936,-6.505046,-0.043167,-0.002798,0.013456
10756,-4.003105,0.644040,-6.478710,-0.025447,0.000533,0.010392
10771,-4.098873,0.615310,-6.483498,-0.002798,0.006662,0.012657
10786,-3.962404,0.646434,-6.612785,0.030510,-0.002398,0.014655
10801,-3.859453,0.505177,-6.567295,0.030243,-0.002665,0.012923
10816,-3.854665,0.471658,-6.617573,0.002931,-0.008793,0.014256
10831,-3.904943,0.414197,-6.584054,-0.044366,-0.011325,0.006928
10846,-4.007894,0.481235,-6.459556,-0.071279,-0.007594,-0.002398
10861,-3.948039,0.579397,-6.399701,-0.055691,0.010525,-0.028645
10876,-3.881001,0.493206,-6.299145,-0.065417,0.016654,-0.027312
10891,-4.048595,0.622492,-6.430826,-0.036772,0.035706,-0.026646
10906,-4.129998,0.409408,-6.588843,-0.020784,0.036372,-0.019319
10921,-4.031836,0.354342,-6.584054,-0.034907,0.052493,-0.007328
10936,-3.852270,0.493206,-6.461950,-0.050761,0.051427,0.007594
10951,-3.876213,0.495600,-6.557718,-0.040103,0.039170,0.005596
10966,-4.005499,0.581791,-6.610391,-0.018119,0.019319,-0.005596
10981,-3.950433,0.608127,-6.581660,0.030910,-0.010392,-0.019585
10996,-3.940856,0.435745,-6.665457,0.054758,-0.022783,-0.032375
11011,-4.053383,0.143652,-6.550536,0.016254,-0.023049,-0.018786
11026,-4.115633,0.141258,-6.560112,-0.045032,-0.013456,-0.006795
11041,-4.141969,0.191536,-6.478710,-0.090464,0.015055,0.001732
11056,-3.900155,0.411803,-6.464345,-0.089798,0.027312,0.002398
11071,-4.005499,0.435745,-6.399701,-0.088066,0.037305,0.007194
11086,-4.050989,0.591368,-6.473921,-0.017453,0.036505,-0.013323
11101,-4.022259,0.373495,-6.517017,0.029977,0.030110,-0.013323
11116,-3.960010,0.359130,-6.540959,0.012124,0.038104,0.002398
11131,-3.986346,0.421380,-6.509834,-0.012790,0.064217,0.010792
11146,-4.012682,0.335188,-6.710947,-0.045032,0.060354,0.018253
11161,-4.027047,0.555455,-6.718130,-0.054492,0.046631,0.016254
11176,-3.883395,0.593762,-6.701370,-0.036772,0.023982,0.003864
11191,-3.766079,0.596156,-6.646304,-0.019452,-0.006928,-0.010658
11206,-3.892972,0.488417,-6.588843,0.009060,-0.025980,-0.023582
11221,-4.065354,0.332794,-6.619967,0.022649,-0.023848,-0.027179
11236,-3.971981,0.378284,-6.473921,0.014922,-0.005995,-0.026646
11251,-3.909731,0.220267,-6.483498,-0.023848,0.021450,-0.013856
11266,-3.895366,0.318429,-6.452374,-0.062086,0.029977,-0.005462
11281,-4.106056,0.414197,-6.457162,-0.086734,0.040369,0.003464
11296,-4.048595,0.653617,-6.584054,-0.047430,0.047697,-0.009459
11311,-3.940856,0.600945,-6.607996,0.009326,0.036905,-0.027579
11326,-3.892972,0.323217,-6.593631,0.027179,0.027712,-0.029577
11341,-4.055778,0.169988,-6.634333,-0.000400,0.020118,-0.019185
11356,-4.060566,0.146046,-6.548141,-0.048096,0.012257,-0.006928
11371,-3.995923,0.225055,-6.552930,-0.084469,0.005729,0.014389
11386,-3.995923,0.447716,-6.476315,-0.067548,0.015855,0.018652
11401,-4.053383,0.524330,-6.576872,-0.008660,0.021051,0.013723
11416,-3.988740,0.514753,-6.624756,0.066216,0.007994,0.005063
11431,-3.883395,0.308852,-6.639121,0.082204,0.005063,0.005063
11446,-3.830723,0.088585,-6.665457,0.011991,0.006928,0.019718
11461,-3.847482,0.090980,-6.548141,-0.065417,-0.007727,0.038104
11476,-3.900155,0.256180,-6.284780,-0.111781,-0.006928,0.037971
11491,-3.919308,0.586579,-6.339846,-0.092329,0.003198,0.022250
11506,-4.015076,0.500388,-6.404490,-0.044100,0.010525,0.008793
11521,-4.170699,0.529119,-6.411672,-0.014789,0.045832,0.008660
11536,-4.144363,0.476446,-6.528988,0.035306,0.056090,0.001599
11551,-3.924097,0.284910,-6.452374,0.014123,0.059688,0.022250
11566,-3.892972,0.241814,-6.531382,-0.062752,0.054625,0.055557
11581,-3.940856,0.421380,-6.538565,-0.082870,0.026513,0.059688
11596,-4.010288,0.648829,-6.567295,-0.066616,0.025714,0.042900
11611,-3.924097,0.814029,-6.483498,0.006129,0.011858,0.013856
11626,-3.892972,0.675165,-6.576872,0.070213,-0.003198,-0.011858
11641,-3.916914,0.287304,-6.617573,0.065417,-0.010925,-0.013456
11656,-4.000711,0.076614,-6.612785,-0.011858,-0.003730,0.007461
11671,-4.060566,0.105345,-6.505046,-0.094594,0.012524,0.025580
11686,-3.873818,0.390255,-6.397307,-0.143890,0.036372,0.041035
11701,-4.012682,0.634463,-6.433220,-0.121240,0.043833,0.036239
11716,-3.971981,0.775721,-6.576872,-0.040369,0.035706,0.015188
11731,-4.060566,0.720655,-6.727706,0.037571,0.029311,-0.008394
11746,-3.861847,0.488417,-6.679822,0.037704,0.044233,-0.010259
11761,-3.916914,0.165200,-6.806715,-0.033574,0.065150,0.011858
11776,-3.869030,0.280122,-6.689399,-0.103787,0.037305,0.030243
11791,-3.960010,0.478840,-6.655880,-0.114312,0.016654,0.035040
11806,-3.864241,0.797269,-6.691793,-0.067548,0.010925,0.022383
11821,-3.847482,0.876278,-6.701370,0.051960,-0.006262,-0.005995
11836,-3.969586,0.430956,-6.837840,0.120974,-0.027312,-0.015322
11851,-3.967192,0.169988,-6.665457,0.096593,-0.059421,0.011058
11866,-3.869030,0.000000,-6.543353,-0.002265,-0.048496,0.035573
11881,-3.818752,0.306458,-6.631938,-0.102455,-0.047430,0.064884
11896,-3.849876,0.550666,-6.598420,-0.102588,-0.037971,0.034640
11911,-4.017470,0.521936,-6.481104,-0.086867,-0.015721,0.008127
11926,-4.108450,0.574608,-6.543353,-0.072078,0.021184,-0.015588
11941,-3.950433,0.739808,-6.469133,-0.017587,0.032508,-0.045299
11956,-4.003105,0.371101,-6.567295,0.008127,0.026380,-0.053692
11971,-4.118027,0.102951,-6.603208,-0.071545,0.045432,-0.009060
11986,-3.881001,0.490811,-6.550536,-0.110715,0.029444,0.038770
12001,-3.892972,0.610521,-6.605602,-0.075276,-0.004397,0.047031
12016,-3.825934,0.735020,-6.550536,-0.052093,-0.007994,0.041302
12031,-4.019865,0.497994,-6.627150,-0.030776,-0.025181,0.021184
12046,-3.993528,0.481235,-6.514623,-0.034107,-0.010658,0.004530
12061,-3.971981,0.517148,-6.483498,-0.059554,0.008926,-0.006528
12076,-3.919308,0.543484,-6.440403,-0.078207,0.026380,-0.010259
12091,-3.960010,0.596156,-6.478710,-0.041968,0.022383,-0.025847
12106,-4.012682,0.339977,-6.447585,-0.038770,0.043966,-0.016920
12121,-3.914520,0.543484,-6.631938,-0.024515,0.035573,-0.006528
12136,-3.845088,0.258574,-6.557718,-0.010259,0.018652,0.004930
12151,-3.950433,0.174777,-6.490681,-0.081005,0.008660,0.035972
12166,-4.115633,0.347159,-6.461950,-0.147221,0.038237,0.052893
12181,-3.969586,0.754174,-6.533776,-0.107118,0.042900,0.025447
12196,-3.849876,0.723049,-6.689399,-0.075142,0.054492,0.007727
12211,-3.845088,0.723049,-6.655880,0.006662,0.014522,-0.017187
12226,-3.919308,0.454898,-6.619967,0.056090,-0.016521,-0.024914
12241,-3.878607,0.311246,-6.428432,0.049562,-0.036505,-0.018652
12256,-3.993528,0.055067,-6.445191,-0.005329,-0.022250,0.003997
12271,-4.094085,0.150835,-6.270414,-0.092063,0.029178,0.036905
12286,-4.118027,0.423774,-6.493075,-0.085268,0.073544,0.043567
12301,-3.842694,0.689530,-6.624756,-0.066482,0.078473,0.051827
12316,-3.948039,0.957681,-6.813898,0.032242,0.054625,0.027579
12331,-3.871424,0.569820,-6.694188,0.096193,0.024914,-0.001199
12346,-4.113238,0.124498,-6.586449,0.025847,0.012657,0.002265
12361,-3.943250,0.162806,-6.562507,-0.119642,0.006662,0.034907
12376,-3.890578,0.715866,-6.634333,-0.136562,0.005729,0.034107
12391,-4.089296,0.742203,-6.373365,-0.073943,0.009859,0.010792
12406,-4.204218,0.775721,-6.399701,-0.003730,0.027712,-0.002265
12421,-4.108450,0.653617,-6.459556,0.059954,0.016920,-0.004397
12436,-3.916914,0.474052,-6.478710,0.060087,0.025047,0.005462
12451,-3.885789,0.205901,-6.457162,0.001732,0.039969,0.023449
12466,-3.928885,0.509965,-6.603208,-0.035573,0.064484,0.014256
12481,-3.895366,0.538695,-6.684611,-0.045698,0.051028,-0.008127
12496,-3.766079,0.598550,-6.607996,-0.029711,0.015055,-0.024781
12511,-3.916914,0.593762,-6.569689,-0.035573,0.018652,-0.031176
12526,-4.098873,0.524330,-6.552930,-0.012257,0.005196,-0.042634
12541,-4.156334,0.320823,-6.538565,-0.051827,0.007328,-0.018119
12556,-3.998317,0.474052,-6.627150,-0.089665,0.017986,0.013590
12571,-3.864241,0.670376,-6.598420,-0.064617,0.007861,0.019718
12586,-3.823540,0.706289,-6.670246,-0.031842,0.003597,0.019718
12601,-3.928885,0.632069,-6.629544,0.002531,-0.015188,0.000000
12616,-4.000711,0.598550,-6.502652,0.013057,-0.007727,-0.029844
12631,-3.960010,0.414197,-6.543353,-0.005995,0.001199,-0.042501
12646,-3.969586,0.284910,-6.497863,-0.049695,0.013723,-0.045565
12661,-3.919308,0.392649,-6.533776,-0.054358,0.016787,-0.047963
12676,-3.770868,0.488417,-6.696582,-0.025447,0.017986,-0.048763
12691,-3.811569,0.442927,-6.540959,-0.002798,0.002931,-0.035440
12706,-4.034230,0.251391,-6.548141,-0.004397,0.021850,-0.010126
12721,-4.050989,0.383072,-6.552930,-0.004930,0.027446,0.009326
12736,-4.005499,0.292093,-6.555324,-0.026513,0.031176,0.027046
12751,-3.842694,0.474052,-6.473921,-0.049562,0.020518,0.037971
12766,-3.828328,0.598550,-6.500257,-0.047164,0.008527,0.029577
12781,-3.912126,0.610521,-6.521805,-0.029044,-0.002798,0.014256
12796,-4.005499,0.694318,-6.493075,0.025980,-0.001599,-0.006395
12811,-3.897760,0.531513,-6.627150,0.062619,-0.000799,-0.014655
12826,-3.885789,0.330400,-6.687005,0.045032,0.005596,-0.002798
12841,-3.950433,0.280122,-6.660669,-0.001332,0.009726,0.016521
12856,-3.971981,0.316035,-6.607996,-0.062352,0.011991,0.036372
12871,-3.873818,0.519542,-6.631938,-0.061953,0.030110,0.022916
12886,-3.864241,0.488417,-6.521805,-0.076608,0.043433,0.007194
12901,-3.948039,0.785298,-6.600814,-0.047830,0.033441,-0.015721
12916,-4.048595,0.557849,-6.636727,0.017853,0.029844,-0.044233
12931,-3.948039,0.497994,-6.533776,0.033041,0.026913,-0.039969
12946,-3.885789,0.342371,-6.624756,-0.003730,0.035306,-0.011325
12961,-3.981557,0.366313,-6.663063,-0.023848,0.029577,0.014389
12976,-4.062960,0.512359,-6.720524,-0.041835,0.014522,0.020917
12991,-3.840299,0.718261,-6.727706,0.001332,-0.004263,0.005063
13006,-3.801992,0.541090,-6.670246,0.043034,-0.026513,-0.017453
13021,-3.842694,0.260968,-6.588843,0.040502,-0.068081,-0.031043
13036,-4.101267,0.122104,-6.655880,-0.016920,-0.058755,-0.025447
13051,-4.211401,0.165200,-6.545747,-0.074476,-0.035440,-0.014256
13066,-4.067749,0.241814,-6.356606,-0.124438,0.016387,0.004796
13081,-3.983952,0.610521,-6.490681,-0.095260,0.033974,0.002265
13096,-3.869030,0.524330,-6.390124,-0.046231,0.046897,0.011724
13111,-3.900155,0.632069,-6.560112,0.025314,0.018786,0.002398
13126,-3.921702,0.349553,-6.548141,0.045432,0.025181,-0.007061
13141,-3.859453,0.251391,-6.538565,0.011458,0.032908,-0.011591
13156,-4.031836,0.189142,-6.514623,-0.023715,0.036239,-0.004796
13171,-3.952827,0.239420,-6.490681,-0.058222,0.025847,0.003198
13186,-3.825934,0.411803,-6.500257,-0.072744,-0.001865,0.027446
13201,-3.830723,0.639252,-6.507440,-0.016387,-0.024914,0.033974
13216,-3.940856,0.490811,-6.631938,0.034640,-0.039969,0.040502
13231,-3.974375,0.222661,-6.500257,0.026779,-0.057423,0.045565
13246,-4.034230,0.253785,-6.524199,-0.034773,-0.026779,0.048363
13261,-3.988740,0.466869,-6.476315,-0.060753,0.009992,0.028645
13276,-3.967192,0.430956,-6.440403,-0.057423,0.040369,0.005462
13291,-3.995923,0.514753,-6.473921,-0.052093,0.055025,-0.013989
13306,-3.854665,0.495600,-6.493075,-0.043433,0.043167,-0.015055
13321,-3.960010,0.531513,-6.560112,-0.018652,0.049296,-0.012257
13336,-3.986346,0.399832,-6.493075,-0.011458,0.068881,0.000266
13351,-4.039018,0.385466,-6.639121,-0.022649,0.083270,0.023582
13366,-3.938462,0.347159,-6.591237,-0.037038,0.065417,0.034507
13381,-3.854665,0.409408,-6.617573,-0.054225,0.047164,0.035306
13396,-3.871424,0.476446,-6.555324,-0.062219,0.009326,0.030776
13411,-4.072537,0.569820,-6.612785,-0.033708,-0.021450,0.014789
13426,-4.072537,0.457293,-6.636727,-0.007194,-0.018786,-0.002531
13441,-4.048595,0.397437,-6.488286,-0.008660,0.000533,-0.011591
13456,-3.955221,0.356736,-6.536170,-0.033175,0.032908,-0.002265
13471,-3.928885,0.474052,-6.538565,-0.053959,0.043034,0.006129
13486,-3.799598,0.478840,-6.505046,-0.033441,0.039570,-0.000533
13501,-3.835511,0.459687,-6.521805,-0.056890,0.031043,0.020651
13516,-4.027047,0.521936,-6.528988,-0.038770,0.007727,0.004263
13531,-3.787627,0.600945,-6.574478,-0.025181,0.018786,-0.007594
13546,-3.828328,0.586579,-6.528988,-0.004397,0.023848,-0.024781
13561,-4.024653,0.490811,-6.495469,-0.009459,0.024381,-0.020518
13576,-3.993528,0.421380,-6.416461,-0.033841,0.012257,-0.015988
13591,-3.900155,0.543484,-6.454768,-0.035706,0.012391,-0.010792
13606,-3.849876,0.569820,-6.375759,-0.014789,-0.002931,-0.012124
13621,-3.892972,0.517148,-6.452374,-0.006928,0.007194,-0.008394
13636,-3.991134,0.397437,-6.524199,0.017320,0.015988,-0.015455
13651,-3.979163,0.184354,-6.732495,0.016254,0.035839,-0.019185
13666,-3.969586,0.167594,-6.682217,-0.052360,0.064884,-0.001865
13681,-3.849876,0.234632,-6.792350,-0.091530,0.055025,0.000133
13696,-4.005499,0.435745,-6.768408,-0.069946,0.058355,-0.007994
13711,-4.019865,0.569820,-6.746861,-0.033708,0.040103,-0.008527
13726,-3.957615,0.560243,-6.722918,0.039703,0.026513,-0.011458
13741,-3.888184,0.385466,-6.598420,0.050095,0.040636,-0.000266
13756,-3.976769,0.146046,-6.643909,0.014522,0.043034,0.021850
13771,-3.962404,0.059855,-6.598420,-0.073277,0.051294,0.051960
13786,-3.787627,0.289698,-6.607996,-0.129900,0.042501,0.061153
13801,-3.790021,0.605733,-6.670246,-0.121907,0.025980,0.053292
13816,-3.821146,0.854730,-6.663063,-0.028511,-0.001332,0.025181
13831,-3.950433,0.845153,-6.651092,0.087000,-0.027979,-0.011058
13846,-4.022259,0.533907,-6.557718,0.166139,-0.043567,-0.028245
13861,-3.926491,0.169988,-6.519411,0.149885,-0.042900,-0.016387
13876,-3.991134,-0.052672,-6.581660,0.044766,-0.016654,0.022516
13891,-4.065354,0.009577,-6.445191,-0.054092,0.025047,0.051161
13906,-3.892972,0.433351,-6.466739,-0.086867,0.073144,0.053159
13921,-3.876213,0.543484,-6.564901,-0.080738,0.083936,0.043833
13936,-3.835511,0.675165,-6.619967,-0.036505,0.076608,0.023582
13951,-4.079720,0.533907,-6.696582,-0.001466,0.061553,0.012257
13966,-3.909731,0.536301,-6.634333,0.017587,0.046764,0.005729
13981,-3.847482,0.471658,-6.617573,0.018119,0.021983,0.005862
13996,-3.888184,0.359130,-6.672640,-0.009193,0.004130,0.014389
14011,-3.974375,0.399832,-6.605602,-0.030643,-0.003597,0.019585
14026,-3.957615,0.672771,-6.531382,-0.013456,-0.010925,0.015988
14041,-3.895366,0.624887,-6.497863,0.028245,-0.013323,0.002931
14056,-3.859453,0.349553,-6.622362,0.027579,-0.010126,-0.005596
14071,-3.950433,0.201113,-6.584054,-0.033841,0.021850,-0.003464
14086,-3.926491,0.289698,-6.574478,-0.084335,0.034640,0.006129
14101,-3.914520,0.332794,-6.564901,-0.103521,0.042900,0.016387
14116,-3.739743,0.605733,-6.596025,-0.073410,0.040502,0.007861
14131,-3.909731,0.567426,-6.584054,-0.037971,0.045698,0.006129
14146,-3.928885,0.574608,-6.718130,0.003464,0.037305,-0.002531
14161,-3.890578,0.265756,-6.663063,-0.018786,0.044233,0.002132
14176,-3.859453,0.335188,-6.682217,-0.066083,0.043833,0.011191
14191,-3.924097,0.495600,-6.689399,-0.076075,0.019452,0.012923
14206,-3.895366,0.641646,-6.742072,-0.037438,0.003464,0.003864
14221,-3.914520,0.557849,-6.612785,0.012124,-0.013590,-0.010658
14236,-3.751714,0.299275,-6.708553,0.001066,-0.033441,-0.009193
14251,-3.787627,0.263362,-6.552930,-0.036106,-0.023848,-0.004796
14266,-3.921702,0.342371,-6.517017,-0.068747,-0.006395,-0.003331
14281,-3.895366,0.421380,-6.294356,-0.090198,0.019319,-0.006528
14296,-3.864241,0.543484,-6.433220,-0.086734,0.078074,-0.017320
14311,-3.861847,0.663194,-6.449979,-0.038770,0.094328,-0.024781
14326,-3.909731,0.529119,-6.622362,0.047830,0.075809,-0.042767
14341,-3.849876,0.201113,-6.572083,0.037571,0.076208,-0.025847
14356,-3.790021,0.122104,-6.672640,-0.012923,0.048763,0.000000
14371,-3.773262,0.268151,-6.643909,-0.062485,0.021317,0.019052
14386,-3.916914,0.371101,-6.600814,-0.083270,-0.005063,0.021717
14401,-3.964798,0.502782,-6.687005,-0.061686,0.003064,0.011991
14416,-3.799598,0.663194,-6.639121,-0.016920,0.007727,-0.000533
14431,-3.739743,0.538695,-6.658275,0.012790,0.013590,-0.010792
14446,-3.857059,0.282516,-6.651092,0.000666,0.021317,-0.012524
14461,-3.861847,0.213084,-6.718130,-0.053426,0.035972,-0.002798
14476,-3.730166,0.332794,-6.603208,-0.101522,0.031576,0.000933
14491,-3.701436,0.541090,-6.569689,-0.083536,0.031043,-0.013723
14506,-3.861847,0.462081,-6.646304,-0.087133,0.054225,-0.016387
14521,-3.938462,0.658405,-6.612785,-0.001466,0.031309,-0.035306
14536,-3.960010,0.258574,-6.641515,0.012124,0.041701,-0.030776
14551,-3.806781,0.146046,-6.689399,-0.015721,0.054358,-0.007061
14566,-3.866636,0.172383,-6.658275,-0.060753,0.053559,0.013590
14581,-3.919308,0.318429,-6.679822,-0.069680,0.026779,0.021717
14596,-3.926491,0.476446,-6.624756,-0.075409,0.026113,0.016254
14611,-3.787627,0.684742,-6.720524,-0.027845,0.013989,0.003597
14626,-3.737349,0.648829,-6.655880,0.057423,-0.005729,-0.016521
14641,-3.859453,0.215478,-6.591237,0.055824,-0.014256,-0.014389
14656,-3.849876,0.169988,-6.701370,-0.003464,-0.006395,0.003997
14671,-3.780444,0.251391,-6.519411,-0.056224,0.002265,0.013190
14686,-3.849876,0.433351,-6.560112,-0.087533,0.023848,0.011325
14701,-3.995923,0.435745,-6.607996,-0.079939,0.047297,-0.000666
14716,-3.861847,0.665588,-6.576872,-0.040502,0.054758,-0.005596
14731,-3.715801,0.591368,-6.672640,0.000533,0.054492,-0.011325
14746,-3.715801,0.447716,-6.636727,0.021184,0.041568,-0.009060
14761,-3.864241,0.160412,-6.584054,-0.023049,0.041035,0.006795
14776,-3.986346,0.280122,-6.552930,-0.075809,0.034507,0.016654
14791,-3.801992,0.529119,-6.574478,-0.078606,0.037571,0.011991
14806,-3.763685,0.577003,-6.675034,-0.054492,0.004930,0.000933
14821,-3.713407,0.579397,-6.715735,-0.008660,-0.000933,-0.002798
14836,-3.797204,0.454898,-6.713341,0.034640,-0.023715,-0.011724
14851,-3.773262,0.244209,-6.612785,0.004530,-0.006795,-0.005995
14866,-3.694253,0.318429,-6.517017,-0.044499,-0.003864,0.011191
14881,-3.797204,0.440533,-6.564901,-0.077541,0.036106,0.007061
14896,-3.821146,0.533907,-6.490681,-0.085801,0.042900,-0.003198
14911,-3.766079,0.670376,-6.598420,-0.040769,0.073011,-0.023182
14926,-3.746926,0.569820,-6.624756,0.010658,0.065150,-0.041035
14941,-3.857059,0.213084,-6.763620,-0.000666,0.082603,-0.033708
14956,-3.885789,0.186748,-6.617573,-0.044766,0.067548,-0.012257
14971,-3.732560,0.270545,-6.749255,-0.081671,0.044366,0.008394
14986,-3.706224,0.577003,-6.823475,-0.072078,0.010525,0.006928
15001,-3.687071,0.579397,-6.828263,-0.023449,-0.030243,-0.000666
15016,-3.897760,0.387861,-6.766014,-0.004930,-0.040502,-0.010392
15031,-3.883395,0.256180,-6.751649,-0.020917,-0.027579,-0.004397
15046,-3.734955,0.248997,-6.737284,-0.060487,-0.019452,0.007861
15061,-3.787627,0.292093,-6.720524,-0.095793,-0.001599,0.014123
15076,-3.914520,0.464475,-6.653486,-0.103920,0.004530,0.012391
15091,-3.828328,0.545878,-6.675034,-0.051294,0.015988,-0.006528
15106,-3.797204,0.490811,-6.679822,-0.031043,0.011191,-0.011858
15121,-3.682282,0.418985,-6.792350,0.001998,0.009459,-0.012923
15136,-3.835511,0.229843,-6.596025,-0.015988,-0.019718,-0.003331
15151,-3.926491,0.251391,-6.581660,-0.064217,-0.017587,0.018919
15166,-3.873818,0.553061,-6.476315,-0.074743,-0.000933,0.022383
15181,-3.761291,0.658405,-6.552930,-0.044899,-0.008926,0.010392
15196,-3.830723,0.567426,-6.624756,-0.016121,0.007727,0.005596
15211,-3.931279,0.440533,-6.703764,0.000266,0.010525,0.004530
15226,-3.785233,0.459687,-6.624756,-0.004397,0.004930,0.003064
15241,-3.691859,0.452504,-6.665457,-0.009726,0.009992,-0.000266
15256,-3.689465,0.371101,-6.610391,-0.033841,-0.000666,-0.009859
15271,-3.921702,0.366313,-6.433220,-0.058089,0.012524,-0.013190
15286,-3.888184,0.409408,-6.351817,-0.073144,0.016387,-0.013323
15301,-3.696647,0.682347,-6.428432,-0.053292,0.034107,-0.027046
15316,-3.825934,0.572214,-6.485892,-0.003730,0.042767,-0.041701
15331,-3.945644,0.457293,-6.481104,0.014256,0.051161,-0.041302
15346,-3.933673,0.237026,-6.651092,-0.033441,0.027179,-0.007461
15361,-3.780444,0.423774,-6.734890,-0.069413,0.037838,0.015721
15376,-3.926491,0.526724,-6.538565,-0.041968,0.036905,0.016787
15391,-3.854665,0.483629,-6.600814,-0.004263,0.010658,0.012524
15406,-3.766079,0.457293,-6.586449,0.013723,0.003331,0.011058
15421,-3.797204,0.375890,-6.689399,0.010792,0.000266,0.001599
15436,-3.766079,0.323217,-6.655880,-0.038770,-0.008260,0.014789
15451,-3.821146,0.339977,-6.624756,-0.062885,0.022250,0.010792
15466,-3.837905,0.447716,-6.593631,-0.079139,0.022516,-0.002265
15481,-3.742137,0.593762,-6.440403,-0.065017,0.024648,-0.018652
15496,-3.749320,0.476446,-6.485892,-0.047830,0.039436,-0.022383
15511,-3.900155,0.529119,-6.495469,-0.015588,0.044366,-0.021850
15526,-4.027047,0.622492,-6.588843,0.059954,0.066749,-0.025847
15541,-3.883395,0.306458,-6.591237,0.067149,0.063418,-0.013323
15556,-3.730166,0.088585,-6.746861,-0.016121,0.051827,0.030776
15571,-3.778050,0.409408,-6.847417,-0.069147,0.053159,0.051827
15586,-3.849876,0.301669,-6.842628,-0.082337,0.024515,0.043567
15601,-3.720589,0.565032,-6.859388,-0.093662,0.009060,0.029844
15616,-3.708618,0.610521,-6.868965,-0.079939,-0.000400,0.013057
15631,-3.722984,0.670376,-6.720524,-0.050894,-0.017187,-0.003864
15646,-3.912126,0.646434,-6.622362,-0.010525,-0.013856,-0.019052
15661,-3.933673,0.476446,-6.593631,-0.000666,-0.009459,-0.030110
15676,-3.859453,0.421380,-6.579266,-0.020651,0.022649,-0.024648
15691,-3.861847,0.306458,-6.567295,-0.053692,0.057156,-0.018119
15706,-3.842694,0.423774,-6.607996,-0.057156,0.059554,-0.015855
15721,-3.761291,0.615310,-6.603208,-0.059954,0.055025,-0.009193
15736,-3.639187,0.708684,-6.744466,0.011858,0.020917,-0.034907
15751,-3.746926,0.349553,-6.670246,0.006262,0.009060,-0.033841
15766,-3.828328,0.363919,-6.703764,-0.027312,-0.006129,-0.021717
15781,-3.849876,0.363919,-6.675034,-0.047830,-0.023315,-0.018519
15796,-3.687071,0.610521,-6.555324,-0.053825,-0.027579,-0.013456
15811,-3.687071,0.656011,-6.548141,-0.008926,-0.029577,-0.023449
15826,-3.725378,0.387861,-6.483498,-0.005329,-0.020917,-0.020651
15841,-3.821146,0.239420,-6.461950,-0.040369,-0.015855,-0.016387
15856,-3.737349,0.210690,-6.466739,-0.099257,0.011458,-0.008527
15871,-3.648763,0.502782,-6.521805,-0.125371,0.051827,-0.021317
15886,-3.687071,0.553061,-6.507440,-0.125104,0.071678,-0.039170
15901,-3.792415,0.639252,-6.507440,-0.076741,0.073677,-0.062219
15916,-3.768473,0.737414,-6.493075,0.005196,0.042234,-0.077541
15931,-3.677494,0.584185,-6.605602,0.082204,0.039570,-0.092596
15946,-3.902549,0.174777,-6.639121,0.098058,0.037971,-0.075009
15961,-3.960010,-0.098162,-6.670246,0.031309,0.029711,-0.020518
15976,-3.854665,0.057461,-6.672640,-0.037038,0.023848,0.035839
15991,-3.739743,0.227449,-6.691793,-0.074077,0.020518,0.062885
16006,-3.766079,0.337582,-6.806715,-0.074343,0.020251,0.062619
16021,-3.847482,0.301669,-6.663063,-0.059688,0.027446,0.046364
16036,-3.873818,0.361524,-6.708553,-0.062485,0.033041,0.034507
16051,-3.790021,0.390255,-6.732495,-0.069413,0.050894,0.026513
16066,-3.780444,0.529119,-6.679822,-0.049162,0.061686,0.018253
16081,-3.821146,0.646434,-6.722918,-0.001332,0.055557,0.007994
16096,-3.885789,0.615310,-6.627150,0.052093,0.037038,0.006395
16111,-3.569755,0.462081,-6.775591,0.073943,0.011991,0.016121
16126,-3.658340,0.169988,-6.732495,0.009859,0.012790,0.042900
16141,-3.718195,0.253785,-6.828263,-0.054225,0.027046,0.059155
16156,-3.818752,0.550666,-6.641515,-0.059554,0.030377,0.037571
16171,-3.746926,0.608127,-6.627150,-0.055957,0.025047,0.018119
16186,-3.706224,0.636858,-6.598420,-0.032375,0.009726,-0.004663
16201,-3.938462,0.469264,-6.670246,-0.023582,-0.001066,0.000533
16216,-3.945644,0.469264,-6.684611,-0.016787,-0.005862,0.015188
16231,-3.845088,0.675165,-6.701370,0.027979,0.009726,0.020917
16246,-3.682282,0.459687,-6.660669,0.043833,0.004663,0.022516
16261,-3.629610,0.251391,-6.739678,-0.006795,0.009060,0.030643
16276,-3.636792,0.371101,-6.655880,-0.063152,0.021583,0.020651
16291,-3.694253,0.521936,-6.591237,-0.107651,0.035040,0.005995
16306,-3.538630,0.770933,-6.663063,-0.080871,0.016387,-0.019985
16321,-3.703830,0.615310,-6.627150,-0.029844,0.035040,-0.046498
16336,-3.902549,0.586579,-6.639121,0.004530,0.045965,-0.051161
16351,-3.878607,0.361524,-6.610391,0.005596,0.033974,-0.037305
16366,-3.746926,0.268151,-6.687005,-0.035839,0.034640,-0.002665
16381,-3.813963,0.316035,-6.696582,-0.060887,0.046364,0.015322
16396,-3.859453,0.428562,-6.691793,-0.069946,0.011991,0.023182
16411,-3.744531,0.588974,-6.840234,-0.047031,-0.002398,0.013323
16426,-3.548207,0.591368,-6.952762,0.006662,-0.033041,-0.010259
16441,-3.655946,0.335188,-6.794744,0.003331,-0.042101,-0.032508
16456,-3.699042,0.246603,-6.552930,-0.041168,-0.032242,-0.029444
16471,-3.730166,0.366313,-6.569689,-0.065683,-0.037172,-0.033441
16486,-3.699042,0.440533,-6.461950,-0.068881,0.005596,-0.034907
16501,-3.816357,0.593762,-6.507440,-0.006528,0.019585,-0.040636
16516,-3.897760,0.308852,-6.617573,0.019585,0.039037,-0.030776
16531,-3.919308,0.217872,-6.655880,0.001865,0.048896,-0.004397
16546,-3.883395,0.196325,-6.682217,-0.032508,0.061420,0.018253
16561,-3.768473,0.294487,-6.782773,-0.069680,0.067149,0.035173
16576,-3.799598,0.524330,-6.758832,-0.083003,0.066616,0.035839
16591,-3.682282,0.687136,-6.742072,-0.020917,0.046098,0.009193
16606,-3.598485,0.627281,-6.828263,0.033574,-0.001599,-0.018386
16621,-3.663129,0.442927,-6.904878,0.055824,-0.025847,-0.026247
16636,-3.732560,0.129287,-6.811504,0.001199,-0.033308,-0.013856
16651,-3.857059,0.239420,-6.660669,-0.074876,-0.027046,0.001199
16666,-3.761291,0.452504,-6.466739,-0.074210,-0.016121,-0.002798
16681,-3.703830,0.656011,-6.593631,-0.057289,0.014123,-0.011991
16696,-3.672705,0.605733,-6.572083,-0.019452,0.012790,-0.011058
16711,-3.797204,0.471658,-6.682217,0.014522,0.029044,-0.023848
16726,-3.830723,0.158017,-6.689399,-0.036639,0.032109,-0.004263
16741,-3.689465,0.304064,-6.619967,-0.118975,0.030510,0.015721
16756,-3.636792,0.517148,-6.691793,-0.144289,0.015588,0.007594
16771,-3.773262,0.603339,-6.684611,-0.102988,-0.006129,-0.015721
16786,-3.952827,0.672771,-6.584054,-0.044766,-0.007328,-0.034107
16801,-3.754108,0.632069,-6.653486,0.006662,-0.004796,-0.043567
16816,-3.790021,0.390255,-6.639121,0.046231,-0.013456,-0.040236
16831,-3.869030,0.124498,-6.744466,-0.004530,0.007328,-0.011325
16846,-3.761291,0.095768,-6.567295,-0.075276,0.003730,0.015455
16861,-3.629610,0.478840,-6.670246,-0.115645,0.019585,0.026913
16876,-3.684676,0.610521,-6.720524,-0.078207,0.013057,0.008527
16891,-3.840299,0.407014,-6.605602,-0.068881,0.009726,-0.002931
16906,-3.885789,0.519542,-6.675034,-0.063418,0.004530,-0.011058
16921,-3.809175,0.457293,-6.610391,-0.046098,-0.001998,-0.015188
16936,-3.761291,0.423774,-6.564901,-0.058489,0.028911,-0.009726
16951,-3.840299,0.402226,-6.646304,-0.061286,0.027579,0.000533
16966,-3.778050,0.445322,-6.758832,-0.056357,0.022783,0.012124
16981,-3.768473,0.433351,-6.672640,-0.038637,0.027312,0.011724
16996,-3.610456,0.454898,-6.797139,-0.031443,0.011325,0.012923
17011,-3.725378,0.502782,-6.660669,0.002398,-0.007061,-0.001865
17026,-3.897760,0.383072,-6.634333,0.013057,0.009726,-0.011058
17041,-3.742137,0.378284,-6.648698,0.012524,0.017853,-0.009459
17056,-3.713407,0.395043,-6.677428,-0.009193,0.017720,-0.006928
17071,-3.806781,0.452504,-6.600814,-0.020518,0.013190,-0.003597
17086,-3.878607,0.284910,-6.574478,-0.038637,0.013856,0.001199
17101,-3.876213,0.433351,-6.665457,-0.043966,0.013723,0.012391
17116,-3.778050,0.521936,-6.612785,-0.023182,0.021850,0.009193
17131,-3.816357,0.380678,-6.761226,-0.000266,0.025580,0.004663
17146,-3.787627,0.366313,-6.672640,-0.012257,0.018786,0.016654
17161,-3.778050,0.392649,-6.823475,-0.017720,0.015588,0.028511
17176,-3.720589,0.409408,-6.622362,-0.046498,-0.004663,0.037838
17191,-3.629610,0.469264,-6.646304,-0.088199,-0.005462,0.037038
17206,-3.799598,0.636858,-6.562507,-0.095527,-0.001599,0.018253
17221,-3.871424,0.763750,-6.528988,-0.057689,0.010392,-0.019985
17236,-3.840299,0.620098,-6.500257,-0.014389,0.043167,-0.048363
17251,-3.699042,0.708684,-6.576872,0.006528,0.037438,-0.056757
17266,-3.758897,0.447716,-6.684611,0.006528,0.018786,-0.050628
17281,-3.754108,0.332794,-6.672640,-0.008394,-0.011724,-0.039703
17296,-3.722984,0.232238,-6.713341,-0.079539,-0.018386,-0.007061
17311,-3.921702,0.347159,-6.612785,-0.118842,-0.030110,0.016387
17326,-3.801992,0.490811,-6.598420,-0.121107,-0.026646,0.011058
17341,-3.797204,0.684742,-6.584054,-0.094061,-0.001599,-0.005196
17356,-3.811569,0.687136,-6.612785,-0.034240,0.010259,-0.038237
17371,-3.876213,0.462081,-6.560112,-0.001865,0.019452,-0.051294
17386,-3.837905,0.411803,-6.689399,0.005995,0.023715,-0.048230
17401,-3.766079,0.258574,-6.634333,-0.025980,0.017054,-0.023049
17416,-3.775656,0.409408,-6.550536,-0.047963,0.008926,-0.003597
17431,-3.794810,0.447716,-6.634333,-0.038504,0.000400,0.001732
17446,-3.890578,0.464475,-6.696582,-0.031576,-0.002531,0.002931
17461,-3.813963,0.411803,-6.713341,-0.035040,0.007861,0.004530
17476,-3.770868,0.493206,-6.607996,-0.035440,0.012257,-0.000533
17491,-3.890578,0.435745,-6.600814,-0.041568,0.031975,-0.006129
17506,-3.864241,0.553061,-6.751649,-0.024381,0.028778,-0.011991
17521,-3.744531,0.615310,-6.679822,0.004530,0.010525,-0.003997
17536,-3.665523,0.414197,-6.732495,0.021317,-0.007994,0.001865
17551,-3.732560,0.277727,-6.713341,-0.006129,-0.014256,0.020917
17566,-3.900155,0.246603,-6.727706,-0.050894,-0.016387,0.032508
17581,-3.885789,0.421380,-6.612785,-0.087400,-0.004663,0.029711
17596,-3.684676,0.617704,-6.457162,-0.067681,0.002798,0.007328
17611,-3.857059,0.646434,-6.509834,-0.039436,0.043433,-0.010392
17626,-3.818752,0.667982,-6.497863,0.009326,0.043833,-0.019185
17641,-3.703830,0.675165,-6.627150,0.048629,0.043966,-0.017054
17656,-3.773262,0.462081,-6.574478,0.073410,0.033175,-0.019319
17671,-3.818752,0.222661,-6.682217,0.023982,0.035440,-0.006795
17686,-3.926491,0.227449,-6.603208,-0.043833,0.036106,0.013456
17701,-3.785233,0.404620,-6.655880,-0.085401,0.016920,0.026113
17716,-3.701436,0.612916,-6.622362,-0.073943,-0.005329,0.022116
17731,-3.627216,0.746991,-6.643909,-0.008926,-0.007594,0.007594
17746,-3.773262,0.612916,-6.636727,0.034773,-0.012923,-0.001066
17761,-3.881001,0.301669,-6.600814,0.024248,-0.012257,0.004130
17776,-3.787627,0.213084,-6.600814,-0.041701,0.010658,0.019452
17791,-3.677494,0.260968,-6.562507,-0.112847,0.023315,0.034240
17806,-3.823540,0.651223,-6.493075,-0.132432,0.041168,0.017054
17821,-3.883395,0.866701,-6.418855,-0.043567,0.032908,-0.021317
17836,-3.835511,0.790087,-6.449979,0.041302,0.037038,-0.055291
17851,-3.809175,0.462081,-6.639121,0.085135,0.038104,-0.059288
17866,-3.859453,0.107739,-6.672640,0.033175,0.051161,-0.027179
17881,-3.888184,0.038307,-6.720524,-0.043700,0.059288,0.016121
17896,-3.763685,0.148441,-6.737284,-0.132832,0.041035,0.067548
17911,-3.581726,0.565032,-6.718130,-0.148686,0.024648,0.079006
17926,-3.552995,0.677559,-6.706159,-0.104453,-0.004796,0.057956
17941,-3.895366,0.718261,-6.675034,-0.080605,-0.023582,0.036239
17956,-3.828328,0.802058,-6.552930,-0.015455,-0.031043,-0.001066
17971,-3.809175,0.696713,-6.584054,0.069014,-0.017320,-0.038904
17986,-3.866636,0.378284,-6.519411,0.060087,0.008793,-0.041302
18001,-3.940856,0.124498,-6.591237,0.010525,0.027446,-0.022116
18016,-3.876213,0.225055,-6.536170,-0.053159,0.056090,0.004397
18031,-3.687071,0.378284,-6.629544,-0.079406,0.061020,0.026113
18046,-3.639187,0.555455,-6.682217,-0.088332,0.052093,0.032642
18061,-3.730166,0.737414,-6.682217,-0.028911,0.037438,0.009859
18076,-3.792415,0.641646,-6.588843,0.018519,0.039170,-0.024248
18091,-3.821146,0.407014,-6.665457,0.007727,0.031975,-0.030243
18106,-3.734955,0.447716,-6.651092,-0.019052,0.043433,-0.023449
18121,-3.852270,0.421380,-6.687005,-0.014655,0.041568,-0.016254
18136,-3.842694,0.433351,-6.687005,-0.009060,0.019851,0.002265
18151,-3.715801,0.311246,-6.871359,-0.006662,-0.002665,0.030643
18166,-3.744531,0.246603,-6.756437,-0.048629,-0.013856,0.053026
18181,-3.703830,0.275333,-6.912060,-0.095260,-0.021317,0.060487
18196,-3.849876,0.450110,-6.734890,-0.126436,-0.025980,0.048896
18211,-3.871424,0.873884,-6.524199,-0.089931,-0.006528,0.010525
18226,-3.758897,0.869095,-6.598420,-0.005596,0.015855,-0.031043
18241,-3.775656,0.677559,-6.722918,0.067548,0.029444,-0.055691
18256,-3.931279,0.189142,-6.703764,0.055957,0.049828,-0.032642
18271,-3.981557,0.158017,-6.727706,-0.007994,0.071412,0.002798
18286,-3.778050,0.181959,-6.780379,-0.068481,0.073410,0.041302
18301,-3.667917,0.390255,-6.789956,-0.107784,0.049162,0.065550
18316,-3.787627,0.617704,-6.639121,-0.092196,0.027046,0.050228
18331,-3.694253,0.749385,-6.811504,-0.039170,-0.004397,0.025047
18346,-3.667917,0.663194,-6.655880,0.003331,-0.016654,-0.000266
18361,-3.667917,0.497994,-6.607996,0.005196,-0.014123,-0.011458
18376,-3.797204,0.517148,-6.684611,-0.013323,-0.009459,-0.010259
18391,-3.744531,0.533907,-6.617573,-0.005596,-0.001199,-0.018786
18406,-3.727772,0.586579,-6.562507,0.023315,0.015855,-0.027979
18421,-3.718195,0.490811,-6.543353,0.017587,0.039969,-0.023982
18436,-3.763685,0.407014,-6.631938,0.007727,0.050228,-0.020651
18451,-3.823540,0.392649,-6.687005,-0.005196,0.046098,-0.003597
18466,-3.687071,0.316035,-6.615179,-0.045432,0.039037,0.014789
18481,-3.732560,0.450110,-6.572083,-0.063951,0.029577,0.025580
18496,-3.691859,0.356736,-6.641515,-0.084735,0.022916,0.031709
18511,-3.818752,0.490811,-6.629544,-0.105786,0.019185,0.032242
18526,-3.675100,0.644040,-6.531382,-0.083403,0.016254,0.028511
18541,-3.617639,0.885855,-6.524199,-0.028778,0.013057,0.009459
18556,-3.701436,0.768539,-6.612785,0.043966,-0.000799,-0.013856
18571,-3.835511,0.567426,-6.687005,0.082070,0.007594,-0.030510
18586,-3.785233,0.296881,-6.713341,0.061286,-0.005063,-0.028245
18601,-3.586514,0.158017,-6.701370,-0.032109,0.007861,-0.005196
18616,-3.708618,0.275333,-6.600814,-0.114979,0.015055,0.010525
18631,-3.691859,0.526724,-6.517017,-0.139227,0.006262,0.011591
18646,-3.722984,0.773327,-6.524199,-0.096459,0.027845,-0.002265
18661,-3.722984,0.888249,-6.521805,-0.003064,0.033841,-0.032908
18676,-3.708618,0.644040,-6.615179,0.052493,0.059021,-0.049562
18691,-3.921702,0.361524,-6.677428,0.046364,0.067415,-0.049562
18706,-3.825934,0.215478,-6.914454,0.003864,0.061286,-0.023182
18721,-3.722984,0.292093,-6.751649,-0.055691,0.056757,0.011058
18736,-3.651158,0.342371,-6.715735,-0.078473,0.017720,0.033308
18751,-3.670311,0.562637,-6.742072,-0.054625,0.000400,0.033574
18766,-3.720589,0.550666,-6.780379,-0.014922,-0.004930,0.025314
18781,-3.725378,0.565032,-6.811504,0.027179,-0.022916,0.005462
18796,-3.648763,0.251391,-6.749255,-0.013590,-0.030643,0.002665
18811,-3.756502,0.217872,-6.627150,-0.093795,-0.015055,0.015855
18826,-3.720589,0.459687,-6.730101,-0.070879,-0.015588,-0.010792
18841,-3.720589,0.627281,-6.567295,-0.072211,0.006395,-0.006262
18856,-3.679888,0.474052,-6.636727,-0.033175,0.006528,-0.016121
18871,-3.983952,0.445322,-6.586449,-0.052360,0.062086,-0.001066
18886,-3.945644,0.414197,-6.718130,-0.055025,0.078074,0.006928
18901,-3.799598,0.359130,-6.861782,-0.069547,0.091130,0.013723
18916,-3.629610,0.536301,-6.725312,-0.088599,0.055158,0.027579
18931,-3.689465,0.517148,-6.787562,-0.075675,-0.003331,0.030243
18946,-3.617639,0.684742,-6.763620,-0.037438,-0.036905,0.024115
18961,-3.746926,0.569820,-6.682217,0.010525,-0.063152,0.002398
18976,-3.706224,0.452504,-6.550536,-0.008127,-0.052760,0.001199
18991,-3.821146,0.533907,-6.562507,-0.021051,-0.018786,-0.002265
19006,-3.828328,0.567426,-6.617573,-0.023582,0.012524,-0.009326
19021,-3.837905,0.543484,-6.639121,-0.050228,0.047164,-0.008260
19036,-3.600879,0.581791,-6.591237,-0.023315,0.039836,-0.025847
19051,-3.529053,0.672771,-6.600814,-0.022649,0.066083,-0.025980
19066,-3.830723,0.603339,-6.785168,0.022783,0.046764,-0.035440
19081,-3.775656,0.308852,-6.713341,0.016521,0.047963,-0.026779
19096,-3.670311,0.260968,-6.722918,-0.042634,0.032242,-0.003597
19111,-3.524265,0.385466,-6.816292,-0.094461,-0.007461,0.015188
19126,-3.749320,0.615310,-6.727706,-0.085268,-0.024248,0.007594
19141,-3.785233,0.727837,-6.701370,-0.051427,-0.036639,-0.009060
19156,-3.739743,0.746991,-6.670246,0.009992,-0.036372,-0.030643
19171,-3.739743,0.407014,-6.653486,0.012391,-0.032375,-0.030776
19186,-3.842694,0.304064,-6.653486,-0.035040,-0.024515,-0.020251
19201,-3.890578,0.282516,-6.703764,-0.086334,-0.012790,-0.006928
19216,-3.744531,0.414197,-6.718130,-0.113913,0.007194,-0.002132
19231,-3.653552,0.646434,-6.591237,-0.088732,0.021983,-0.006662
19246,-3.672705,0.713472,-6.751649,-0.027712,0.016787,-0.036905
19261,-3.821146,0.514753,-6.766014,0.028511,0.009992,-0.052493
19276,-3.720589,0.277727,-6.837840,0.026913,0.001199,-0.040636
19291,-3.658340,0.244209,-6.612785,0.008926,-0.002265,-0.019452
19306,-3.885789,0.112527,-6.607996,-0.048096,0.005063,0.011724
19321,-3.943250,0.289698,-6.610391,-0.092329,-0.000266,0.042234
19336,-3.938462,0.497994,-6.567295,-0.095926,0.004397,0.055291
19351,-3.785233,0.713472,-6.603208,-0.045299,-0.003997,0.040636
19366,-3.770868,0.574608,-6.670246,-0.022383,0.016920,0.027312
19381,-3.864241,0.450110,-6.689399,-0.034773,0.017587,0.017720
19396,-3.761291,0.462081,-6.749255,-0.058888,0.022383,0.010126
19411,-3.617639,0.742203,-6.672640,-0.055291,0.031576,0.000666
19426,-3.567360,0.663194,-6.552930,-0.015055,0.020518,-0.029044
19441,-3.746926,0.505177,-6.452374,-0.005862,0.029577,-0.035173
19456,-3.940856,0.507571,-6.461950,-0.001199,0.044899,-0.029178
19471,-3.924097,0.332794,-6.581660,-0.003198,0.047031,-0.008127
19486,-3.706224,0.351948,-6.701370,-0.045165,0.064084,0.025047
19501,-3.677494,0.550666,-6.718130,-0.055424,0.050228,0.036772
19516,-3.694253,0.526724,-6.730101,-0.057956,0.024648,0.037571
19531,-3.720589,0.565032,-6.687005,-0.058489,-0.010126,0.024515
19546,-3.562572,0.629675,-6.813898,-0.059554,-0.021850,0.007194
19561,-3.773262,0.526724,-6.588843,-0.054225,-0.029444,-0.005329
19576,-3.897760,0.495600,-6.617573,-0.059688,-0.011325,-0.007861
19591,-3.859453,0.368707,-6.605602,-0.073011,0.020251,-0.009326
19606,-3.749320,0.495600,-6.600814,-0.083936,0.040769,0.004130
19621,-3.746926,0.588974,-6.672640,-0.072478,0.053026,0.011724
19636,-3.739743,0.696713,-6.670246,-0.007328,0.034107,0.010792
19651,-3.780444,0.545878,-6.718130,0.051028,0.014123,0.006129
19666,-3.775656,0.521936,-6.936002,0.053292,-0.013989,0.007328
19681,-3.734955,0.265756,-6.732495,0.001865,-0.012657,0.014389
19696,-3.876213,0.246603,-6.713341,-0.088199,-0.006129,0.033708
19711,-3.837905,0.600945,-6.718130,-0.131366,-0.003331,0.040369
19726,-3.655946,0.775721,-6.617573,-0.104453,-0.021583,0.017720
19741,-3.742137,0.799663,-6.550536,-0.059021,-0.022116,-0.000400
19756,-3.837905,0.624887,-6.665457,-0.000933,-0.024381,-0.012524
19771,-3.936068,0.493206,-6.636727,0.010658,-0.011058,-0.005462
19786,-3.778050,0.553061,-6.629544,-0.007461,-0.005462,0.008926
19801,-3.689465,0.533907,-6.576872,-0.005329,-0.004796,0.004263
19816,-3.804386,0.478840,-6.615179,-0.019319,-0.003864,-0.001199
19831,-3.766079,0.421380,-6.646304,-0.042501,0.006795,-0.000400
19846,-3.754108,0.617704,-6.540959,-0.021583,-0.002531,-0.011058
19861,-3.790021,0.433351,-6.581660,-0.026513,0.025181,-0.007461
19876,-3.751714,0.349553,-6.584054,-0.052227,0.040902,0.011991
19891,-3.955221,0.493206,-6.471527,-0.072345,0.039037,0.031842
19906,-3.821146,0.624887,-6.557718,-0.041435,0.054092,0.036372
19921,-3.639187,0.658405,-6.512228,0.001732,0.035306,0.026247
19936,-3.629610,0.622492,-6.598420,0.019985,0.021983,0.025847
19951,-3.768473,0.572214,-6.588843,0.036639,0.003864,0.019319
19966,-3.720589,0.387861,-6.617573,0.020118,-0.003997,0.017453
19981,-3.756502,0.486023,-6.572083,-0.028112,-0.006129,0.022116
19996,-3.794810,0.531513,-6.646304,-0.062485,0.017853,0.019985
20011,-3.859453,0.553061,-6.524199,-0.074476,0.036106,0.015055
20026,-3.849876,0.653617,-6.514623,-0.065550,0.036106,0.008660
20041,-3.730166,0.885855,-6.497863,-0.009593,0.032375,0.003198
20056,-3.691859,0.744597,-6.730101,0.044632,0.030377,-0.008926
20071,-3.787627,0.569820,-6.718130,0.054492,0.037305,-0.003864
20086,-3.871424,0.404620,-6.660669,0.022916,0.040902,0.000533
20101,-3.708618,0.545878,-6.758832,-0.032775,0.041035,0.009726
20116,-3.653552,0.591368,-6.710947,-0.065283,0.033175,0.004796
20131,-3.818752,0.653617,-6.766014,-0.082204,0.009726,0.000666
20146,-3.900155,0.799663,-6.732495,-0.026380,-0.014789,-0.015055
20161,-3.924097,0.605733,-6.780379,0.013323,-0.008926,-0.014123
20176,-3.775656,0.536301,-6.720524,0.014123,-0.029444,0.000799
20191,-3.825934,0.313640,-6.823475,-0.012257,-0.022649,0.014789
20206,-3.892972,0.380678,-6.737284,-0.069413,-0.013057,0.019985
20221,-3.845088,0.447716,-6.754043,-0.106585,0.001332,0.015721
20236,-3.670311,0.603339,-6.598420,-0.116711,0.009593,-0.001732
20251,-3.682282,0.694318,-6.627150,-0.117643,0.014389,-0.003997
20266,-3.775656,0.909797,-6.581660,-0.039303,0.001066,-0.029311
20281,-3.847482,0.723049,-6.545747,0.037038,0.019052,-0.041568
20296,-3.854665,0.533907,-6.584054,0.036639,0.026247,-0.024914
20311,-3.804386,0.241814,-6.591237,-0.018119,0.048096,0.005995
20326,-3.871424,0.284910,-6.588843,-0.099790,0.022383,0.034640
20341,-3.787627,0.677559,-6.663063,-0.115112,0.014789,0.046764
20356,-3.588908,0.861913,-6.684611,-0.046364,-0.013190,0.017986
20371,-3.603273,0.591368,-6.660669,-0.027179,-0.023182,0.004530
20386,-3.706224,0.464475,-6.603208,-0.041035,-0.035706,-0.001865
20401,-3.787627,0.447716,-6.507440,-0.086334,-0.025847,-0.009193
20416,-3.737349,0.591368,-6.459556,-0.107784,-0.003464,-0.017187
20431,-3.744531,0.739808,-6.390124,-0.083403,0.008127,-0.037704
20446,-3.804386,0.766145,-6.342240,-0.022916,0.021051,-0.042234
20461,-3.864241,0.644040,-6.471527,0.039037,0.021051,-0.042101
20476,-3.837905,0.440533,-6.368577,0.056490,0.049429,-0.026247
20491,-3.878607,0.280122,-6.512228,0.012257,0.084202,0.000799
20506,-3.835511,0.306458,-6.490681,-0.058755,0.098858,0.032642
20521,-3.859453,0.414197,-6.629544,-0.100856,0.087133,0.051161
20536,-3.840299,0.684742,-6.651092,-0.112580,0.072478,0.053026
20551,-3.603273,0.861913,-6.756437,-0.054092,0.023982,0.031043
20566,-3.804386,0.577003,-6.710947,-0.002931,0.003597,0.016387
20581,-3.852270,0.495600,-6.777985,-0.011724,0.006928,0.016787
20596,-3.876213,0.497994,-6.696582,-0.026913,-0.007594,0.011591
20611,-3.615244,0.653617,-6.584054,-0.032375,0.017587,0.003864
20626,-3.629610,0.471658,-6.667851,-0.023449,0.030110,-0.011724
20641,-3.689465,0.440533,-6.643909,-0.047963,0.046098,-0.003064
20656,-3.799598,0.598550,-6.732495,-0.047963,0.040103,0.012391
20671,-3.703830,0.811634,-6.643909,0.000799,0.042501,0.005596
20686,-3.902549,0.653617,-6.639121,0.054358,0.059021,-0.002265
20701,-3.974375,0.356736,-6.902483,0.038637,0.050228,0.011724
20716,-3.924097,0.174777,-6.828263,-0.037571,0.061153,0.037971
20731,-3.689465,0.493206,-6.909666,-0.105386,0.042368,0.057822
20746,-3.742137,0.735020,-6.921637,-0.126303,0.005729,0.053026
20761,-3.766079,0.905008,-6.722918,-0.073410,-0.026513,0.023848
20776,-3.821146,0.864307,-6.794744,-0.003597,-0.052893,-0.002132
20791,-3.694253,0.840365,-6.785168,0.071145,-0.087666,-0.020651
20806,-3.744531,0.512359,-6.698976,0.066882,-0.104853,-0.017453
20821,-3.758897,0.277727,-6.677428,0.029444,-0.108983,-0.005329
20836,-3.926491,0.339977,-6.581660,-0.031842,-0.080871,0.006129
20851,-3.823540,0.572214,-6.493075,-0.056623,-0.025980,0.010658
20866,-3.785233,0.701501,-6.569689,-0.059421,0.030776,0.003997
20881,-3.902549,0.744597,-6.574478,-0.046231,0.065550,-0.001599
20896,-3.766079,0.651223,-6.581660,-0.020651,0.080338,-0.006662
20911,-3.718195,0.675165,-6.598420,-0.013590,0.095660,-0.002665
20926,-3.665523,0.562637,-6.612785,-0.019718,0.035440,0.002931
20941,-3.742137,0.730232,-6.639121,-0.042634,-0.002132,0.009992
20956,-3.811569,0.773327,-6.684611,0.007727,-0.028378,-0.012923
20971,-3.924097,0.335188,-6.576872,0.012657,-0.023049,-0.022250
20986,-3.706224,0.397437,-6.600814,-0.034907,-0.003864,-0.009060
21001,-3.653552,0.478840,-6.471527,-0.075009,0.009859,0.002931
21016,-3.770868,0.545878,-6.509834,-0.075409,0.036505,0.003597
21031,-3.761291,0.780510,-6.485892,-0.039303,0.049029,-0.004530
21046,-3.663129,0.560243,-6.550536,-0.003464,0.051028,-0.017187
21061,-3.624821,0.442927,-6.605602,-0.034907,0.043567,0.000000
21076,-3.790021,0.548272,-6.619967,-0.038237,0.029577,0.005729
21091,-3.890578,0.560243,-6.653486,-0.032375,0.029977,0.003198
21106,-3.763685,0.414197,-6.629544,-0.048763,0.033574,0.014922
21121,-3.869030,0.605733,-6.629544,-0.058089,0.029311,0.019585
21136,-3.847482,0.653617,-6.653486,-0.050894,0.030110,0.015721
21151,-3.761291,0.718261,-6.734890,-0.039303,0.010392,0.014123
21166,-3.713407,0.778116,-6.687005,-0.008527,-0.006129,0.005196
21181,-3.888184,0.577003,-6.643909,-0.009859,-0.002798,-0.004130
21196,-3.895366,0.416591,-6.588843,-0.048629,0.001466,-0.002132
21211,-3.847482,0.653617,-6.646304,-0.059821,0.021983,-0.009326
21226,-3.742137,0.778116,-6.596025,-0.014256,0.025847,-0.025314
21241,-3.754108,0.577003,-6.545747,-0.003730,0.029844,-0.024115
21256,-3.770868,0.387861,-6.718130,-0.007194,0.009726,-0.012391
21271,-3.754108,0.383072,-6.533776,-0.049429,0.018519,0.014123
21286,-3.885789,0.588974,-6.569689,-0.061020,0.054891,0.026380
21301,-3.852270,0.653617,-6.651092,-0.034507,0.067282,0.017187
21316,-3.804386,0.648829,-6.687005,-0.019585,0.062219,0.010126
21331,-3.569755,0.787692,-6.682217,-0.013323,0.024781,0.001732
21346,-3.567360,0.768539,-6.742072,0.016654,-0.008926,-0.015188
21361,-3.763685,0.541090,-6.636727,0.009992,-0.022116,-0.015988
21376,-3.830723,0.682347,-6.660669,0.006928,-0.033308,-0.007461
21391,-3.813963,0.524330,-6.543353,0.023715,-0.022516,-0.020651
21406,-3.787627,0.450110,-6.648698,-0.000266,0.004930,-0.021717
21421,-3.806781,0.399832,-6.663063,-0.035972,0.030510,-0.002665
21436,-3.775656,0.495600,-6.763620,-0.058755,0.041701,0.004397
21451,-3.677494,0.505177,-6.643909,-0.076874,0.026247,0.019052
21466,-3.648763,0.629675,-6.670246,-0.060753,0.011591,0.011325
21481,-3.782839,0.622492,-6.538565,-0.047164,0.011591,-0.001199
21496,-3.952827,0.577003,-6.751649,-0.036239,0.025314,-0.012257
21511,-3.837905,0.502782,-6.687005,-0.028511,0.057156,-0.015055
21526,-3.792415,0.682347,-6.694188,-0.047697,0.042634,-0.003064
21541,-3.648763,0.586579,-6.706159,-0.036505,-0.000400,0.006262
21556,-3.821146,0.555455,-6.732495,-0.036639,-0.023182,0.021717
21571,-3.883395,0.644040,-6.679822,-0.040902,-0.032508,0.032375
21586,-3.785233,0.684742,-6.663063,-0.024914,-0.041168,0.025580
21601,-3.734955,0.593762,-6.667851,-0.035306,-0.011058,0.015188
21616,-3.852270,0.521936,-6.619967,-0.059954,0.016787,-0.003464
21631,-3.775656,0.691924,-6.710947,-0.056357,0.028511,-0.020784
21646,-3.581726,0.706289,-6.445191,-0.012657,0.017187,-0.040502
21661,-3.612850,0.624887,-6.598420,0.013856,0.001998,-0.044100
21676,-3.660734,0.402226,-6.720524,-0.006395,0.003464,-0.029711
21691,-3.950433,0.368707,-6.677428,-0.040902,0.029444,-0.014389
21706,-3.849876,0.435745,-6.500257,-0.081005,0.036106,0.015855
21721,-3.768473,0.634463,-6.596025,-0.108184,0.054625,0.030110
21736,-3.742137,0.835576,-6.572083,-0.051161,0.028645,0.020518
21751,-3.763685,0.687136,-6.639121,-0.000133,-0.004530,0.000799
21766,-3.682282,0.553061,-6.780379,-0.002398,-0.008394,-0.003198
21781,-3.643975,0.502782,-6.766014,-0.015721,-0.014123,-0.005596
21796,-3.699042,0.462081,-6.744466,-0.021051,-0.008793,-0.002398
21811,-3.866636,0.299275,-6.655880,-0.051827,0.012391,-0.004263
21826,-3.813963,0.390255,-6.663063,-0.076075,0.024515,-0.001865
21841,-3.720589,0.462081,-6.519411,-0.098325,0.040636,0.005729
21856,-3.658340,0.708684,-6.581660,-0.067282,0.040902,0.015721
21871,-3.938462,0.792481,-6.617573,0.004663,0.019319,0.004263
21886,-3.931279,0.667982,-6.639121,0.036239,0.037038,0.003198
21901,-3.816357,0.471658,-6.521805,0.004930,0.064884,0.013989
21916,-3.809175,0.435745,-6.636727,-0.067015,0.070746,0.033974
21931,-3.766079,0.687136,-6.761226,-0.116711,0.054492,0.049029
21946,-3.720589,0.957681,-6.687005,-0.066616,0.010925,0.027046
21961,-3.572149,0.897826,-6.629544,-0.012124,-0.029577,0.001066
21976,-3.605668,0.804452,-6.617573,0.018919,-0.068214,-0.007727
21991,-3.787627,0.526724,-6.452374,0.026247,-0.091130,-0.020251
22006,-3.988740,0.409408,-6.562507,-0.036239,-0.057023,-0.002531
22021,-3.909731,0.550666,-6.531382,-0.045165,-0.024781,-0.007861
22036,-3.766079,0.672771,-6.514623,-0.021717,0.019985,-0.019452
22051,-3.758897,0.577003,-6.660669,-0.011058,0.046897,-0.023848
22066,-3.840299,0.615310,-6.801927,-0.017720,0.038637,-0.017320
22081,-3.732560,0.667982,-6.890512,-0.003198,0.047297,-0.025847
22096,-3.751714,0.584185,-6.907272,-0.001865,0.058089,-0.040369
22111,-3.881001,0.339977,-6.880936,-0.057822,0.069680,-0.049429
22126,-3.804386,0.545878,-6.636727,-0.117110,0.032242,-0.035839
22141,-3.809175,0.610521,-6.634333,-0.123905,-0.010925,-0.033041
22156,-3.670311,1.007959,-6.720524,-0.082603,-0.048230,-0.036505
22171,-3.792415,0.708684,-6.718130,-0.016387,-0.083270,-0.044766
22186,-3.960010,0.493206,-6.754043,-0.029977,-0.059021,-0.034507
22201,-3.921702,0.529119,-6.643909,-0.045565,-0.025714,-0.031975
22216,-3.766079,0.687136,-6.646304,-0.053692,-0.003597,-0.034107
22231,-3.818752,0.586579,-6.555324,-0.036772,0.005196,-0.046231
22246,-3.840299,0.464475,-6.481104,-0.044366,0.006395,-0.044632
22261,-3.861847,0.548272,-6.478710,-0.035839,0.012657,-0.037038
22276,-3.847482,0.493206,-6.584054,-0.024914,0.021850,-0.025447
22291,-3.847482,0.380678,-6.584054,-0.040502,0.029711,0.000000
22306,-3.746926,0.524330,-6.579266,-0.041168,0.039969,0.011058
22321,-3.821146,0.490811,-6.536170,-0.036772,0.044899,0.018919
22336,-3.706224,0.481235,-6.385336,-0.033308,0.013856,0.021717
22351,-3.665523,0.521936,-6.481104,-0.041968,0.005329,0.023715
22366,-3.885789,0.392649,-6.433220,-0.047430,0.017453,0.023182
22381,-3.926491,0.423774,-6.497863,-0.075542,0.042501,0.029844
22396,-3.849876,0.593762,-6.648698,-0.086734,0.077674,0.032375
22411,-3.699042,0.706289,-6.684611,-0.066616,0.085668,0.028511
22426,-3.622427,0.778116,-6.744466,-0.022383,0.079672,0.021184
22441,-3.857059,0.766145,-6.663063,0.021583,0.063818,0.010126
22456,-3.584120,0.730232,-6.670246,0.063818,0.020784,-0.002265
22471,-3.739743,0.462081,-6.718130,0.030377,0.006928,0.005862
22486,-3.758897,0.466869,-6.687005,-0.023582,0.018786,0.021184
22501,-3.849876,0.600945,-6.581660,-0.061819,0.038237,0.018519
22516,-3.883395,0.770933,-6.701370,-0.079939,0.055025,0.020118
22531,-3.639187,1.005565,-6.732495,-0.043966,0.042501,0.002398
22546,-3.689465,0.902614,-6.789956,0.007061,0.021317,-0.012124
22561,-3.861847,0.569820,-6.770802,0.005995,0.005995,-0.006662
22576,-3.854665,0.569820,-6.754043,-0.022916,-0.016387,-0.002531
22591,-3.835511,0.586579,-6.722918,-0.045698,-0.007594,-0.001998
22606,-3.780444,0.620098,-6.794744,-0.063551,0.002132,-0.005862
22621,-3.782839,0.624887,-6.653486,-0.076874,0.012524,-0.007061
22636,-3.756502,0.723049,-6.519411,-0.045698,0.011325,-0.022649
22651,-3.696647,0.840365,-6.579266,0.003198,0.014123,-0.034773
22666,-3.739743,0.598550,-6.653486,0.049695,0.000666,-0.044100
22681,-3.897760,0.373495,-6.615179,0.028378,0.029444,-0.033175
22696,-3.960010,0.359130,-6.634333,-0.010126,0.065816,-0.018919
22711,-3.799598,0.299275,-6.653486,-0.076874,0.075009,0.011191
22726,-3.648763,0.555455,-6.600814,-0.112847,0.047164,0.032775
22741,-3.675100,0.871489,-6.593631,-0.064617,0.010126,0.025181
22756,-3.854665,0.737414,-6.526594,0.005063,-0.024648,0.002132
22771,-3.778050,0.679953,-6.651092,0.053292,-0.047830,-0.006528
22786,-3.687071,0.500388,-6.665457,0.064217,-0.048230,-0.008793
22801,-3.691859,0.335188,-6.593631,0.010925,-0.025847,0.001998
22816,-3.761291,0.373495,-6.457162,-0.055424,0.003597,0.008127
22831,-3.813963,0.565032,-6.502652,-0.086067,0.032109,0.000533
22846,-3.648763,0.627281,-6.411672,-0.076475,0.064617,-0.008260
22861,-3.699042,1.003170,-6.584054,-0.025580,0.071812,-0.017453
22876,-3.847482,0.828394,-6.691793,0.066216,0.043034,-0.030377
22891,-3.871424,0.509965,-6.615179,0.080072,0.061686,-0.023315
22906,-3.725378,0.296881,-6.598420,0.014389,0.071678,0.002132
22921,-3.660734,0.347159,-6.792350,-0.065017,0.047297,0.027312
22936,-3.744531,0.713472,-6.720524,-0.057289,0.039836,0.015721
22951,-3.840299,0.837971,-6.789956,-0.026913,0.006528,-0.002132
22966,-3.756502,0.763750,-6.806715,0.007994,0.009459,-0.018119
22981,-3.634398,0.711078,-6.799533,0.030110,-0.000799,-0.023982
22996,-3.703830,0.347159,-6.828263,0.000000,-0.013323,-0.015988
23011,-3.849876,0.483629,-6.773197,-0.041168,-0.026779,-0.005729
23026,-3.749320,0.565032,-6.687005,-0.057023,-0.014389,-0.010792
23041,-3.701436,0.442927,-6.675034,-0.071412,0.013856,-0.016121
23056,-3.739743,0.565032,-6.586449,-0.083802,0.017054,-0.009726
23071,-3.758897,0.818817,-6.660669,-0.002798,0.028112,-0.032508
23086,-3.775656,0.725443,-6.574478,0.046764,0.028112,-0.042101
23101,-3.770868,0.471658,-6.634333,0.044632,0.044766,-0.038904
23116,-3.871424,0.198719,-6.605602,-0.020651,0.054092,-0.014655
23131,-3.730166,0.462081,-6.651092,-0.061686,0.024914,0.009593
23146,-3.641581,0.541090,-6.658275,-0.063152,-0.010525,0.011724
23161,-3.550601,0.610521,-6.624756,-0.043700,-0.027046,0.012257
23176,-3.756502,0.488417,-6.710947,-0.026247,-0.033841,0.008127
23191,-3.871424,0.414197,-6.756437,-0.035306,-0.025580,0.006528
23206,-3.892972,0.390255,-6.619967,-0.080738,0.008527,0.020251
23221,-3.732560,0.495600,-6.552930,-0.092329,0.026513,0.015855
23236,-3.653552,0.651223,-6.574478,-0.082737,0.041968,0.009593
23251,-3.801992,0.864307,-6.567295,-0.050495,0.051694,-0.001599
23266,-3.665523,0.873884,-6.540959,0.045832,0.049562,-0.031443
23281,-3.785233,0.593762,-6.706159,0.089531,0.038904,-0.045032
23296,-3.689465,0.270545,-6.689399,0.049162,0.051827,-0.031975
23311,-3.828328,0.179565,-6.746861,-0.025447,0.062086,-0.006528
23326,-3.823540,0.253785,-6.653486,-0.101789,0.044499,0.023049
23341,-3.696647,0.517148,-6.725312,-0.149485,0.028245,0.037571
23356,-3.562572,0.924162,-6.823475,-0.087400,0.003064,0.029711
23371,-3.739743,0.780510,-6.675034,-0.007594,-0.016254,0.009060
23386,-3.778050,0.658405,-6.665457,0.044766,-0.033041,0.000000
23401,-3.746926,0.541090,-6.725312,0.056090,-0.034507,0.000533
23416,-3.651158,0.361524,-6.619967,0.036639,-0.030643,-0.003597
23431,-3.785233,0.270545,-6.665457,-0.015721,0.002265,0.000133
23446,-3.818752,0.490811,-6.619967,-0.046098,0.018786,-0.010392
23461,-3.768473,0.512359,-6.500257,-0.044100,0.042900,-0.015188
23476,-3.663129,0.641646,-6.483498,-0.031842,0.059288,-0.017453
23491,-3.624821,0.603339,-6.493075,0.015188,0.050228,-0.021317
23506,-3.821146,0.361524,-6.550536,0.026113,0.046897,-0.013323
23521,-3.727772,0.294487,-6.612785,-0.016787,0.033974,0.003864
23536,-3.734955,0.174777,-6.579266,-0.086734,0.041168,0.033175
23551,-3.696647,0.600945,-6.576872,-0.122972,0.032642,0.059021
23566,-3.782839,0.754174,-6.768408,-0.084335,0.035306,0.049562
23581,-3.744531,0.924162,-6.672640,0.014389,0.029444,0.018119
23596,-3.751714,0.531513,-6.715735,0.027446,0.028778,0.005596
23611,-3.684676,0.708684,-6.730101,0.015455,0.033841,-0.003331
23626,-3.732560,0.500388,-6.754043,0.026779,0.042634,-0.022383
23641,-3.766079,0.378284,-6.749255,-0.003198,0.040369,-0.030776
23656,-3.629610,0.280122,-6.672640,-0.065283,0.042501,-0.025714
23671,-3.600879,0.430956,-6.687005,-0.093928,0.047830,-0.005462
23686,-3.866636,0.541090,-6.785168,-0.094727,0.049429,0.014922
23701,-3.823540,0.569820,-6.684611,-0.033175,0.053559,0.012124
23716,-3.825934,0.328006,-6.718130,-0.053426,0.062352,0.038504
23731,-3.761291,0.248997,-6.799533,-0.136828,0.042234,0.066083
23746,-3.706224,0.739808,-6.706159,-0.175865,0.043833,0.077541
23761,-3.734955,1.142034,-6.785168,-0.091530,0.031576,0.036505
23776,-3.560178,1.161188,-6.787562,0.036905,-0.002798,-0.017187
23791,-3.574543,0.742203,-6.768408,0.092462,-0.025047,-0.046498
23806,-3.627216,0.486023,-6.789956,0.089132,-0.041302,-0.056224
23821,-3.890578,0.136469,-6.677428,0.031043,-0.025447,-0.043167
23836,-3.849876,0.232238,-6.665457,-0.050361,0.005462,-0.024648
23851,-3.718195,0.318429,-6.639121,-0.093795,0.021850,-0.005462
23866,-3.624821,0.651223,-6.560112,-0.084469,0.020784,0.008926
23881,-3.699042,0.737414,-6.586449,-0.003597,0.017587,0.006795
23896,-3.801992,0.617704,-6.643909,0.038904,0.026247,0.007328
23911,-3.622427,0.430956,-6.636727,0.030776,0.039037,0.008127
23926,-3.653552,0.189142,-6.746861,-0.053292,0.039037,0.022116
23941,-3.663129,0.557849,-6.890512,-0.135363,0.030110,0.039303
23956,-3.665523,0.780510,-6.797139,-0.069014,0.017587,0.010925
23971,-3.600879,0.660800,-6.672640,-0.027446,0.007061,-0.003331
23986,-3.634398,0.658405,-6.715735,-0.016254,-0.018519,-0.000799
24001,-3.794810,0.541090,-6.777985,0.014522,-0.015588,0.000666
24016,-3.766079,0.423774,-6.677428,0.010392,-0.015055,0.015588
24031,-3.610456,0.438139,-6.612785,-0.027446,-0.005329,0.034107
24046,-3.574543,0.495600,-6.653486,-0.071812,0.005862,0.038371
24061,-3.593697,0.610521,-6.572083,-0.077674,0.027179,0.018386
24076,-3.732560,0.720655,-6.586449,-0.073011,0.041168,0.006928
24091,-3.624821,0.691924,-6.660669,-0.020784,0.040236,-0.015988
24106,-3.739743,0.660800,-6.636727,-0.006395,0.052626,-0.014256
24121,-3.785233,0.572214,-6.670246,0.010392,0.066749,-0.009326
24136,-3.883395,0.332794,-6.809110,-0.015055,0.054492,0.017054
24151,-3.651158,0.598550,-6.833052,-0.047963,0.013456,0.039037
24166,-3.507505,0.706289,-6.727706,-0.043833,-0.012257,0.034507
24181,-3.586514,0.665588,-6.653486,-0.017986,-0.022250,0.019052
24196,-3.758897,0.488417,-6.612785,-0.043833,-0.034907,0.015588
24211,-3.775656,0.579397,-6.598420,-0.033574,-0.021583,0.005462
24226,-3.600879,0.677559,-6.540959,-0.024381,0.019985,-0.002665
24241,-3.598485,0.505177,-6.641515,-0.010126,0.041701,-0.014389
24256,-3.766079,0.526724,-6.617573,-0.008793,0.057822,-0.013590
24271,-3.636792,0.524330,-6.670246,-0.013323,0.055557,-0.007861
24286,-3.663129,0.524330,-6.787562,-0.000266,0.043167,-0.011858
24301,-3.718195,0.464475,-6.742072,-0.001466,0.029711,0.004130
24316,-3.864241,0.258574,-6.713341,-0.027046,0.025980,0.017720
24331,-3.816357,0.201113,-6.746861,-0.100456,0.016387,0.048230
24346,-3.713407,0.553061,-6.749255,-0.151750,0.008926,0.070213
24361,-3.536236,0.816423,-6.766014,-0.112181,0.004263,0.055158
24376,-3.739743,0.972046,-6.679822,-0.029844,-0.005729,0.030910
24391,-3.766079,0.948104,-6.634333,0.065949,-0.005196,-0.007194
24406,-3.825934,0.651223,-6.749255,0.110982,0.001599,-0.027179
24421,-3.632004,0.323217,-6.703764,0.049296,0.024381,-0.013323
24436,-3.730166,0.270545,-6.773197,-0.046364,0.027046,0.007994
24451,-3.684676,0.495600,-6.849811,-0.102721,0.029577,0.017720
24466,-3.586514,0.730232,-6.789956,-0.111781,0.013590,0.016121
24481,-3.591302,0.830788,-6.746861,-0.066216,0.008926,-0.000400
24496,-3.684676,0.773327,-6.646304,-0.019985,0.014789,-0.019452
24511,-3.857059,0.421380,-6.629544,-0.037704,0.024648,-0.018386
24526,-3.651158,0.586579,-6.718130,-0.070346,0.014522,-0.005729
24541,-3.533842,0.615310,-6.667851,-0.075675,-0.000533,-0.001066
24556,-3.572149,0.620098,-6.584054,-0.079273,-0.007861,0.007061
24571,-3.778050,0.715866,-6.572083,-0.041968,-0.013190,0.002798
24586,-3.902549,0.593762,-6.651092,-0.005329,0.017587,0.000799
24601,-3.813963,0.624887,-6.624756,0.003730,0.050228,-0.005729
24616,-3.653552,0.711078,-6.761226,0.014789,0.066616,-0.017986
24631,-3.634398,0.378284,-6.766014,0.000799,0.053292,-0.012524
24646,-3.596091,0.474052,-6.828263,-0.033974,0.030776,-0.005329
24661,-3.548207,0.483629,-6.845023,-0.042767,-0.000133,-0.002398
24676,-3.581726,0.390255,-6.658275,-0.081005,-0.005196,0.007594
24691,-3.773262,0.318429,-6.629544,-0.142557,-0.005596,0.031443
24706,-3.687071,0.713472,-6.603208,-0.153349,-0.018919,0.038904
24721,-3.730166,1.211466,-6.526594,-0.047697,-0.019985,0.011991
24736,-3.756502,0.993594,-6.574478,0.085002,-0.011858,-0.024515
24751,-3.900155,0.586579,-6.689399,0.121773,0.009326,-0.033308
24766,-3.878607,0.275333,-6.715735,0.075009,0.054758,-0.016787
24781,-3.641581,0.330400,-6.854599,-0.017453,0.040636,0.007994
24796,-3.529053,0.505177,-6.864176,-0.078473,0.038904,0.025447
24811,-3.466804,0.691924,-6.754043,-0.107651,0.012524,0.024115
24826,-3.624821,0.663194,-6.708553,-0.104320,-0.020518,0.013190
24841,-3.679888,0.866701,-6.550536,-0.065949,-0.025047,-0.010925
24856,-3.754108,0.766145,-6.526594,-0.005596,0.006795,-0.038770
24871,-3.871424,0.438139,-6.528988,-0.021450,0.030243,-0.030776
24886,-3.833117,0.457293,-6.610391,-0.070213,0.049828,-0.004930
24901,-3.718195,0.809240,-6.754043,-0.051694,0.039037,0.008394
24916,-3.727772,0.751779,-6.722918,-0.023582,0.019319,0.010525
24931,-3.675100,0.574608,-6.864176,-0.013856,-0.011724,0.008394
24946,-3.706224,0.514753,-6.833052,-0.053825,-0.017187,0.008793
24961,-3.564966,0.610521,-6.859388,-0.096859,-0.016920,0.003331
24976,-3.572149,0.746991,-6.653486,-0.078606,-0.027579,-0.015721
24991,-3.787627,0.687136,-6.483498,-0.039836,-0.010792,-0.033574
25006,-3.828328,0.711078,-6.560112,-0.012124,0.013057,-0.034773
25021,-3.679888,0.411803,-6.636727,-0.033308,0.039570,-0.016521
25036,-3.754108,0.325611,-6.617573,-0.102188,0.052360,0.019851
25051,-3.732560,0.699107,-6.639121,-0.130300,0.046897,0.037038
25066,-3.653552,1.132457,-6.727706,-0.057156,0.011191,0.020917
25081,-3.653552,1.034295,-6.732495,0.049029,-0.031043,-0.013323
25096,-3.629610,0.718261,-6.761226,0.068481,-0.040769,-0.036505
25111,-3.804386,0.385466,-6.617573,0.009060,-0.025980,-0.032908
25126,-3.751714,0.452504,-6.584054,-0.075942,0.003864,-0.018919
25141,-3.653552,0.696713,-6.531382,-0.101522,0.021184,-0.018652
25156,-3.620033,0.790087,-6.543353,-0.079672,0.029577,-0.030910
25171,-3.746926,0.672771,-6.639121,-0.043034,0.027579,-0.037704
25186,-3.794810,0.536301,-6.677428,-0.030643,0.035706,-0.032242
25201,-3.687071,0.356736,-6.689399,-0.090730,0.027979,0.006129
25216,-3.500323,0.988805,-6.725312,-0.067149,0.012657,0.018119
25231,-3.732560,0.804452,-6.663063,0.005063,-0.012657,-0.006662
25246,-3.658340,0.586579,-6.696582,0.006528,-0.046098,-0.015588
25261,-3.701436,0.562637,-6.737284,-0.006262,-0.030776,-0.017187
25276,-3.713407,0.591368,-6.607996,-0.021717,-0.020651,-0.021717
25291,-3.806781,0.569820,-6.667851,-0.032375,-0.002265,-0.025047
25306,-3.816357,0.454898,-6.672640,-0.042234,0.019319,-0.023049
25321,-3.687071,0.502782,-6.694188,-0.063285,0.037438,-0.015322
25336,-3.699042,0.768539,-6.636727,-0.042501,0.037838,-0.017187
25351,-3.754108,0.612916,-6.636727,-0.005862,0.039570,-0.022250
25366,-3.960010,0.536301,-6.715735,-0.018519,0.050228,-0.008793
25381,-3.706224,0.653617,-6.639121,-0.011191,0.034240,-0.002265
25396,-3.598485,0.634463,-6.782773,-0.004130,-0.001998,0.007994
25411,-3.629610,0.656011,-6.746861,-0.017054,-0.013456,0.022916
25426,-3.778050,0.579397,-6.744466,-0.013190,-0.033841,0.016387
25441,-3.804386,0.612916,-6.631938,-0.047430,-0.020118,0.010925
25456,-3.732560,0.797269,-6.651092,-0.052760,0.001199,-0.003597
25471,-3.734955,0.823605,-6.648698,-0.035839,0.032109,-0.019718
25486,-3.763685,0.620098,-6.593631,-0.027179,0.049296,-0.026380
25501,-3.734955,0.593762,-6.667851,-0.019585,0.045698,-0.032508
25516,-3.727772,0.553061,-6.672640,-0.048763,0.049828,-0.026380
25531,-3.629610,0.495600,-6.823475,-0.096593,0.030377,0.000266
25546,-3.665523,0.811634,-6.782773,-0.073677,0.006395,0.005596
25561,-3.641581,0.988805,-6.758832,0.028645,-0.031842,-0.016521
25576,-3.715801,0.658405,-6.646304,0.067681,-0.059954,-0.034240
25591,-3.694253,0.299275,-6.581660,-0.005196,-0.040369,-0.022516
25606,-3.840299,0.407014,-6.488286,-0.067815,0.000266,-0.024648
25621,-3.888184,0.565032,-6.505046,-0.073677,0.037971,-0.029178
25636,-3.797204,0.689530,-6.579266,-0.053692,0.066749,-0.036372
25651,-3.574543,0.758962,-6.689399,-0.008394,0.053825,-0.041701
25666,-3.641581,0.538695,-6.682217,0.024115,0.040636,-0.040236
25681,-3.768473,0.344765,-6.754043,-0.011058,0.047963,-0.011058
25696,-3.715801,0.533907,-6.653486,-0.020917,0.018119,0.002665
25711,-3.497929,0.565032,-6.770802,-0.041835,-0.020784,0.011591
25726,-3.620033,0.581791,-6.744466,-0.040636,-0.031043,0.006662
25741,-3.770868,0.543484,-6.552930,-0.055691,-0.045032,0.002665
25756,-3.732560,0.555455,-6.584054,-0.092196,-0.032642,0.004397
25771,-3.742137,0.735020,-6.552930,-0.103521,0.000666,-0.003730
25786,-3.746926,0.737414,-6.521805,-0.091397,0.008260,-0.017054
25801,-3.797204,0.699107,-6.591237,-0.073677,0.054225,-0.024115
25816,-3.857059,0.845153,-6.555324,-0.021850,0.063818,-0.033841
25831,-3.711013,0.792481,-6.684611,0.041568,0.052093,-0.043833
25846,-3.682282,0.450110,-6.718130,0.037971,0.042634,-0.028112
25861,-3.842694,0.179565,-6.758832,-0.039836,0.030110,0.003464
25876,-3.842694,0.387861,-6.691793,-0.117110,0.026513,0.033708
25891,-3.739743,0.660800,-6.648698,-0.125104,0.026247,0.037571
25906,-3.576937,0.814029,-6.612785,-0.101123,0.019319,0.021983
25921,-3.727772,0.852336,-6.643909,-0.056224,0.016121,0.001732
25936,-3.727772,0.945710,-6.605602,-0.008127,0.023449,-0.024515
25951,-3.641581,0.806846,-6.627150,0.039703,0.011858,-0.044766
25966,-3.641581,0.553061,-6.485892,0.021450,0.016787,-0.037571
25981,-3.694253,0.450110,-6.557718,-0.013057,0.009593,-0.024781
25996,-3.761291,0.409408,-6.528988,-0.060087,0.017720,-0.009859
26011,-3.780444,0.536301,-6.497863,-0.091263,0.039703,-0.004930
26026,-3.648763,0.670376,-6.555324,-0.099124,0.060354,-0.006795
26041,-3.651158,0.737414,-6.639121,-0.092462,0.065550,-0.011325
26056,-3.792415,0.888249,-6.684611,-0.055025,0.057556,-0.029577
26071,-3.763685,0.900220,-6.742072,0.020651,0.021717,-0.045299
26086,-3.696647,0.699107,-6.744466,0.054625,0.008127,-0.043300
26101,-3.782839,0.476446,-6.758832,0.030776,0.009326,-0.019851
26116,-3.804386,0.438139,-6.777985,-0.025714,0.015588,0.006262
26131,-3.780444,0.555455,-6.708553,-0.073810,0.032109,0.016654
26146,-3.608062,0.715866,-6.730101,-0.083536,0.032508,0.008527
26161,-3.682282,0.861913,-6.653486,-0.045965,0.033175,-0.019185
26176,-3.852270,0.641646,-6.639121,-0.015988,0.043833,-0.030776
26191,-3.766079,0.605733,-6.713341,-0.001599,0.040369,-0.027579
26206,-3.670311,0.474052,-6.751649,-0.029844,0.034773,0.000133
26221,-3.713407,0.596156,-6.770802,-0.059554,0.031576,0.021583
26236,-3.670311,0.775721,-6.713341,-0.052626,0.021317,0.017853
26251,-3.665523,0.780510,-6.780379,-0.027446,0.013856,-0.000933
26266,-3.648763,0.790087,-6.727706,-0.009326,0.011325,-0.032375
26281,-3.718195,0.624887,-6.789956,0.000933,0.024248,-0.052227
26296,-3.785233,0.486023,-6.845023,-0.013856,0.016254,-0.048629
26311,-3.742137,0.430956,-6.806715,-0.044499,0.018119,-0.022783
26326,-3.605668,0.368707,-6.777985,-0.072211,-0.006262,0.000266
26341,-3.545813,0.526724,-6.574478,-0.099391,-0.012391,0.023715
26356,-3.608062,0.615310,-6.660669,-0.102455,-0.006662,0.025314
26371,-3.828328,0.579397,-6.629544,-0.095793,0.012657,0.017453
26386,-3.725378,0.653617,-6.531382,-0.085135,0.030110,0.007461
26401,-3.567360,1.012747,-6.574478,-0.026646,0.036239,-0.014922
26416,-3.651158,0.861913,-6.689399,0.055824,0.022516,-0.029977
26431,-3.694253,0.531513,-6.665457,0.085934,0.004930,-0.033041
26446,-3.629610,0.368707,-6.710947,0.036372,-0.007461,-0.008260
26461,-3.560178,0.332794,-6.658275,-0.043034,-0.001332,0.019851
26476,-3.629610,0.469264,-6.701370,-0.098724,0.005995,0.030377
26491,-3.766079,0.679953,-6.694188,-0.098458,0.029711,0.013856
26506,-3.746926,0.763750,-6.634333,-0.066083,0.036505,-0.008127
26521,-3.603273,0.797269,-6.698976,-0.029844,0.031443,-0.022516
26536,-3.617639,0.541090,-6.698976,-0.029844,0.025047,-0.016387
26551,-3.744531,0.569820,-6.682217,-0.033974,0.014522,-0.000400
26566,-3.785233,0.555455,-6.696582,-0.016121,0.015588,0.010925
26581,-3.711013,0.533907,-6.581660,-0.030243,0.014789,0.029444
26596,-3.584120,0.617704,-6.531382,-0.049429,0.025714,0.046231
26611,-3.739743,0.699107,-6.706159,-0.043167,0.028511,0.037971
26626,-3.682282,0.854730,-6.624756,-0.003997,0.033974,0.019319
26641,-3.552995,0.864307,-6.708553,0.033041,0.024781,-0.002132
26656,-3.560178,0.677559,-6.801927,0.039037,0.004663,-0.010925
26671,-3.584120,0.459687,-6.754043,-0.002265,-0.002798,-0.008127
26686,-3.667917,0.509965,-6.643909,-0.050361,-0.002931,0.000933
26701,-3.821146,0.464475,-6.588843,-0.094328,0.020118,0.006928
26716,-3.768473,0.749385,-6.603208,-0.101389,0.057689,0.013856
26731,-3.780444,0.715866,-6.540959,-0.081404,0.072211,0.014655
26746,-3.749320,0.768539,-6.639121,-0.055025,0.067948,0.015055
26761,-3.687071,0.981623,-6.727706,0.012524,0.045432,0.002265
26776,-3.636792,0.794875,-6.701370,0.064484,0.024914,-0.005462
26791,-3.620033,0.507571,-6.727706,0.041568,-0.004796,0.006262
26806,-3.691859,0.488417,-6.852205,-0.012124,-0.005462,0.015455
26821,-3.847482,0.615310,-6.687005,-0.045965,-0.016787,0.012657
26836,-3.739743,0.555455,-6.670246,-0.072744,-0.013323,0.009593
26851,-3.672705,0.677559,-6.634333,-0.073144,-0.009859,0.008127
26866,-3.809175,0.629675,-6.710947,-0.061286,-0.005596,0.011991
26881,-3.739743,0.639252,-6.792350,-0.057822,-0.005596,0.021983
26896,-3.646369,0.761356,-6.562507,-0.052493,-0.001865,0.022783
26911,-3.505111,0.770933,-6.658275,-0.053825,0.015588,0.020518
26926,-3.646369,0.787692,-6.687005,-0.057289,0.040502,0.008926
26941,-3.660734,0.708684,-6.600814,-0.052227,0.041168,-0.005729
26956,-3.596091,0.972046,-6.679822,-0.007061,0.039703,-0.026380
26971,-3.605668,0.665588,-6.722918,0.036372,0.025314,-0.038904
26986,-3.742137,0.531513,-6.787562,0.028511,0.026913,-0.028112
27001,-3.823540,0.464475,-6.710947,-0.010392,0.046631,-0.007061
27016,-3.694253,0.541090,-6.574478,-0.047031,0.021850,0.002665
27031,-3.406949,0.725443,-6.586449,-0.049296,-0.006528,-0.001599
27046,-3.624821,0.811634,-6.629544,-0.038504,-0.002398,-0.011591
27061,-3.806781,0.665588,-6.643909,-0.017187,-0.029844,-0.014655
27076,-3.711013,0.646434,-6.579266,-0.008793,-0.021317,-0.007994
27091,-3.828328,0.608127,-6.631938,0.005862,-0.003597,-0.008127
27106,-3.672705,0.488417,-6.670246,-0.009060,0.007061,0.007061
27121,-3.737349,0.512359,-6.629544,-0.030110,0.024381,0.010658
27136,-3.732560,0.526724,-6.605602,-0.053559,0.023315,0.017453
27151,-3.588908,0.658405,-6.639121,-0.061953,0.023315,0.019052
27166,-3.485958,0.794875,-6.667851,-0.031176,0.029311,0.012257
27181,-3.699042,0.699107,-6.698976,0.008127,0.025714,0.000400
27196,-3.833117,0.555455,-6.651092,0.027845,0.038371,-0.000400
27211,-3.734955,0.433351,-6.694188,-0.016521,0.069014,0.021184
27226,-3.670311,0.411803,-6.770802,-0.063951,0.079939,0.042900
27241,-3.742137,0.644040,-6.785168,-0.082204,0.053825,0.065417
27256,-3.581726,0.907402,-6.651092,-0.034107,0.014256,0.055557
27271,-3.574543,0.964863,-6.821081,0.025314,-0.015188,0.038104
27286,-3.629610,0.787692,-6.916849,0.073677,-0.034773,0.020651
27301,-3.744531,0.603339,-6.907272,0.053559,-0.035440,0.019052
27316,-3.711013,0.407014,-6.756437,-0.006395,-0.017986,0.021450
27331,-3.629610,0.550666,-6.665457,-0.060221,0.002798,0.022516
27346,-3.605668,0.639252,-6.754043,-0.099391,0.012391,0.022250
27361,-3.598485,0.790087,-6.677428,-0.078074,0.010259,0.015588
27376,-3.842694,0.804452,-6.598420,-0.048230,0.023582,0.011591
27391,-3.801992,0.840365,-6.586449,0.004263,0.035306,0.011191
27406,-3.682282,0.768539,-6.629544,0.026513,0.065283,0.017320
27421,-3.696647,0.636858,-6.768408,0.043433,0.059155,0.011058
27436,-3.751714,0.308852,-6.804321,-0.031576,0.044632,0.031842
27451,-3.648763,0.560243,-6.684611,-0.110848,0.044632,0.056357
27466,-3.610456,0.847547,-6.691793,-0.108450,-0.002531,0.041701
27481,-3.598485,1.063026,-6.780379,-0.053426,-0.024248,0.015988
27496,-3.770868,0.775721,-6.684611,0.001998,-0.019185,-0.008260
27511,-3.801992,0.600945,-6.672640,-0.013989,-0.014655,0.001998
27526,-3.646369,0.723049,-6.605602,-0.039037,0.002665,0.014256
27541,-3.545813,0.713472,-6.526594,-0.051028,0.013190,0.014789
27556,-3.699042,0.809240,-6.655880,-0.065816,0.029311,0.015721
27571,-3.552995,0.881066,-6.495469,-0.056357,0.037038,-0.002531
27586,-3.457227,0.840365,-6.653486,-0.026646,0.047564,-0.017054
27601,-3.620033,0.627281,-6.732495,-0.043300,0.060087,-0.014922
27616,-3.708618,0.636858,-6.722918,-0.075409,0.063685,-0.004397
27631,-3.682282,0.694318,-6.706159,-0.072345,0.051427,-0.008793
27646,-3.524265,0.816423,-6.694188,-0.071012,0.066882,-0.002398
27661,-3.572149,0.665588,-6.586449,-0.054492,0.028778,-0.003064
27676,-3.684676,0.797269,-6.825869,-0.054625,0.020784,0.002132
27691,-3.742137,0.849942,-6.624756,0.004796,0.007194,-0.014522
27706,-3.758897,0.560243,-6.773197,0.017720,0.009593,-0.013323
27721,-3.646369,0.502782,-6.792350,-0.016521,0.000933,0.002265
27736,-3.593697,0.469264,-6.761226,-0.071678,0.011458,0.010658
27751,-3.639187,0.481235,-6.720524,-0.124438,0.016121,0.015455
27766,-3.507505,0.675165,-6.629544,-0.150285,0.007994,0.014655
27781,-3.548207,0.926556,-6.701370,-0.121374,0.004663,0.003064
27796,-3.557784,0.957681,-6.768408,-0.058355,0.018519,-0.004397
27811,-3.773262,1.089362,-6.837840,0.075942,0.035306,-0.036106
27826,-3.830723,0.519542,-6.785168,0.111248,0.037571,-0.039969
27841,-3.744531,0.146046,-6.797139,0.021850,0.054891,-0.000666
27856,-3.598485,0.478840,-6.895301,-0.088466,0.065550,0.043433
27871,-3.646369,0.718261,-6.924031,-0.096193,0.025580,0.051028
27886,-3.550601,0.955286,-6.909666,-0.055158,-0.017853,0.039170
27901,-3.462016,0.854730,-6.725312,-0.005729,-0.048096,0.024781
27916,-3.598485,0.775721,-6.593631,-0.001732,-0.046231,0.013456
27931,-3.596091,0.761356,-6.749255,-0.016387,-0.032508,0.001998
27946,-3.706224,0.847547,-6.720524,-0.023848,-0.015988,-0.013989
27961,-3.567360,0.876278,-6.667851,0.024381,-0.001599,-0.035173
27976,-3.569755,0.646434,-6.572083,0.024648,0.004530,-0.029044
27991,-3.761291,0.586579,-6.672640,0.024914,-0.000133,-0.020518
28006,-3.821146,0.438139,-6.603208,-0.009992,0.018652,0.000666
28021,-3.751714,0.486023,-6.591237,-0.031975,0.024515,0.018786
28036,-3.634398,0.591368,-6.619967,-0.059021,0.026913,0.038237
28051,-3.722984,0.672771,-6.672640,-0.069014,0.022116,0.048629
28066,-3.713407,0.818817,-6.751649,-0.058622,0.000533,0.050095
28081,-3.572149,1.086968,-6.682217,0.001332,-0.035040,0.028645
28096,-3.505111,1.022324,-6.670246,0.078473,-0.060753,-0.001998
28111,-3.701436,0.588974,-6.596025,0.077141,-0.071279,-0.015855
28126,-3.792415,0.435745,-6.531382,0.029711,-0.053292,-0.014922
28141,-3.706224,0.562637,-6.493075,-0.036639,-0.008926,-0.011858
28156,-3.706224,0.639252,-6.440403,-0.054225,0.017587,-0.011858
28171,-3.713407,0.653617,-6.509834,-0.091130,0.043300,0.006795
28186,-3.775656,0.821211,-6.615179,-0.031709,0.044499,-0.001732
28201,-3.756502,0.720655,-6.758832,-0.003064,0.057423,0.008660
28216,-3.632004,0.629675,-6.710947,-0.000266,0.042900,0.020518
28231,-3.524265,0.490811,-6.691793,-0.041035,0.014789,0.034107
28246,-3.639187,0.615310,-6.641515,-0.088466,0.016121,0.041835
28261,-3.665523,0.878672,-6.581660,-0.079539,-0.011991,0.029711
28276,-3.464410,1.000776,-6.495469,-0.040103,-0.020251,0.013723
28291,-3.643975,0.928950,-6.552930,0.022649,-0.005862,-0.013190
28306,-3.878607,0.620098,-6.600814,0.044100,0.024515,-0.018519
28321,-3.878607,0.478840,-6.610391,0.009060,0.057556,-0.001732
28336,-3.670311,0.519542,-6.732495,-0.024914,0.057822,0.017320
28351,-3.490746,0.598550,-6.710947,-0.054891,0.064351,0.027845
28366,-3.529053,0.634463,-6.773197,-0.066216,0.049962,0.028112
28381,-3.722984,0.603339,-6.768408,-0.097792,0.023182,0.034640
28396,-3.696647,1.003170,-6.691793,-0.042368,0.028645,0.009326
28411,-3.792415,0.866701,-6.617573,0.019851,0.049296,-0.012923
28426,-3.816357,0.732626,-6.670246,0.042900,0.068747,-0.018519
28441,-3.845088,0.524330,-6.665457,0.022916,0.075942,-0.007727
28456,-3.651158,0.624887,-6.713341,-0.024914,0.070080,0.014789
28471,-3.507505,0.715866,-6.634333,-0.046231,0.035040,0.026380
28486,-3.471592,0.969652,-6.703764,-0.037038,-0.003597,0.020917
28501,-3.780444,0.938527,-6.849811,0.025714,-0.025714,-0.004130
28516,-3.897760,0.708684,-6.722918,0.053559,-0.020917,-0.012124
28531,-3.691859,0.565032,-6.641515,0.017853,-0.017986,0.000000
