T,AX,AY,AZ,GX,GY,GZ
46,-2.643199,2.382231,-6.675034,0.017054,0.015055,-0.005329
61,-2.784456,2.296039,-6.758832,0.005862,0.026247,-0.001199
76,-2.832340,2.375048,-6.770802,-0.014655,0.018919,0.004530
91,-2.722207,2.367865,-6.708553,-0.014655,0.007061,0.000533
106,-2.676718,2.200271,-6.677428,-0.031975,0.010392,0.000933
121,-2.808398,2.154782,-6.698976,-0.060620,0.015322,0.013989
136,-2.755726,2.341529,-6.794744,-0.079406,0.013323,0.019052
151,-2.655170,2.470816,-6.758832,-0.071678,0.008127,0.013323
166,-2.602497,2.568978,-6.682217,-0.058755,0.018652,0.008926
181,-2.777274,2.540248,-6.631938,-0.039170,0.008660,0.007994
196,-2.734178,2.568978,-6.713341,-0.023715,0.006795,0.005063
211,-2.664747,2.554613,-6.775591,-0.005729,0.003064,-0.003597
226,-2.715025,2.327164,-6.775591,-0.015188,0.031842,0.004397
241,-2.827552,2.329558,-6.830657,-0.007461,0.017986,-0.000933
256,-2.791639,2.308010,-6.770802,-0.029844,0.015455,0.005063
271,-2.628834,2.391808,-6.706159,-0.036905,0.021583,0.003730
286,-2.652776,2.542642,-6.651092,-0.027845,0.024648,-0.005196
301,-2.645593,2.422932,-6.665457,-0.022383,0.003864,-0.009459
316,-2.791639,2.300828,-6.648698,-0.019851,0.014123,-0.004930
331,-2.750938,2.231396,-6.768408,-0.030643,0.008527,-0.002665
346,-2.686294,2.262521,-6.701370,-0.057556,0.013989,0.013057
361,-2.695871,2.415750,-6.727706,-0.074609,0.013590,0.018253
376,-2.796427,2.616862,-6.739678,-0.056090,0.011591,0.011991
391,-2.719813,2.626439,-6.694188,-0.026779,0.011724,-0.004130
406,-2.698265,2.597709,-6.684611,-0.004530,0.020784,-0.005596
421,-2.738967,2.468422,-6.849811,-0.003198,0.021717,-0.003997
436,-2.825158,2.291251,-6.809110,-0.013989,0.022649,-0.000266
451,-2.820369,2.274492,-6.713341,-0.019452,0.026913,0.000933
466,-2.686294,2.367865,-6.727706,-0.031309,0.018119,0.000400
481,-2.645593,2.430115,-6.739678,-0.028378,0.026913,0.002665
496,-2.760514,2.425326,-6.801927,-0.033708,0.017853,0.001865
511,-2.753332,2.418144,-6.730101,-0.025447,0.013057,-0.004263
526,-2.640805,2.473210,-6.722918,-0.019585,0.001599,-0.004930
541,-2.633622,2.401384,-6.718130,-0.030243,0.010525,0.001599
556,-2.784456,2.351106,-6.770802,-0.034907,0.009060,0.002398
571,-2.794033,2.346318,-6.622362,-0.039570,0.004663,0.005196
586,-2.695871,2.485181,-6.758832,-0.039703,0.011991,0.007194
601,-2.681506,2.580949,-6.634333,-0.028778,0.011458,0.001865
616,-2.758120,2.547431,-6.710947,-0.006528,0.012790,-0.006795
631,-2.753332,2.355894,-6.797139,-0.003730,0.019985,-0.005862
646,-2.755726,2.240973,-6.828263,-0.014655,0.014789,0.000533
661,-2.619257,2.272097,-6.722918,-0.030377,0.024381,0.007194
676,-2.722207,2.375048,-6.777985,-0.031709,0.029444,0.009726
691,-2.669535,2.640805,-6.828263,0.002531,0.052893,-0.001466
706,-2.956839,2.346318,-6.823475,-0.003597,0.036372,-0.011991
721,-2.616862,2.403779,-6.775591,0.000933,-0.018919,-0.009459
736,-2.628834,2.255338,-6.761226,-0.029577,0.006662,0.007727
751,-2.846706,2.188300,-6.749255,-0.055291,0.017187,0.015855
766,-2.655170,2.406173,-6.744466,-0.055158,-0.002265,0.008793
781,-2.600103,2.422932,-6.837840,-0.047031,0.009593,0.002665
796,-2.722207,2.279280,-6.730101,-0.051694,0.016920,0.006662
811,-2.827552,2.509123,-6.830657,-0.046764,0.021850,0.008793
826,-2.789245,2.631228,-6.607996,-0.021983,0.011325,-0.003331
841,-2.645593,2.545036,-6.773197,0.004930,0.012257,-0.009726
856,-2.700660,2.202666,-6.727706,0.006129,0.019851,-0.005196
871,-2.753332,2.097321,-6.818686,-0.024648,0.023982,0.007861
886,-2.753332,2.367865,-6.706159,-0.038371,0.028511,0.010126
901,-2.647987,2.535460,-6.806715,-0.035306,0.020384,0.002665
916,-2.647987,2.607285,-6.663063,-0.012257,0.009326,-0.003597
931,-2.734178,2.360683,-6.777985,-0.008260,0.012257,-0.007994
946,-2.813187,2.152387,-6.825869,-0.017986,0.014123,-0.002531
961,-2.782062,2.250550,-6.768408,-0.044100,0.020384,0.015988
976,-2.679112,2.434903,-6.734890,-0.061953,0.004397,0.015322
991,-2.722207,2.533065,-6.746861,-0.041035,0.014789,0.003198
1006,-2.767697,2.521094,-6.641515,-0.025714,0.012923,-0.001998
1021,-2.750938,2.475605,-6.847417,-0.015188,0.017453,-0.010525
1036,-2.662352,2.298434,-6.801927,-0.020518,0.014789,-0.003997
1051,-2.715025,2.226608,-6.744466,-0.053426,0.030377,0.016787
1066,-2.829946,2.370260,-6.725312,-0.059554,0.028112,0.017587
1081,-2.647987,2.614468,-6.718130,-0.033175,0.021983,0.000000
1096,-2.580949,2.547431,-6.713341,-0.016521,0.024648,-0.002398
1111,-2.700660,2.322376,-6.770802,-0.020384,0.016787,0.003730
1126,-2.765303,2.372654,-6.684611,-0.021850,0.016787,0.004263
1141,-2.719813,2.389413,-6.725312,-0.026380,0.021051,0.012790
1156,-2.671929,2.537854,-6.639121,-0.019452,0.005862,0.009326
1171,-2.585738,2.583344,-6.730101,0.008260,0.011591,-0.004796
1186,-2.693477,2.331952,-6.775591,0.017054,0.017853,-0.010792
1201,-3.172317,1.824382,-6.581660,-0.027579,0.016920,0.014655
1216,-2.545036,2.317587,-6.871359,-0.044499,-0.016121,0.025181
1231,-2.604891,2.133234,-6.756437,-0.098858,0.045965,0.037038
1246,-2.734178,2.458845,-6.823475,-0.095926,0.077008,0.054225
1261,-2.370260,2.485181,-6.979098,-0.138960,0.112181,0.115778
1276,-3.167529,2.217031,-7.184999,-0.071812,-0.001066,0.093262
1291,-2.619257,2.882619,-6.943185,-0.128168,0.096326,0.121507
1306,-3.636792,2.229002,-6.864176,-0.135629,0.188522,0.093262
1321,-3.191471,2.703054,-6.976704,-0.129101,0.233288,0.102721
1336,-3.088520,2.418144,-7.010222,-0.154548,0.354129,0.109383
1351,-2.949656,2.370260,-7.335834,-0.159744,0.395963,0.127502
1366,-3.016694,1.642422,-7.548918,-0.217966,0.462312,0.146688
1381,-2.978387,1.177947,-7.857770,-0.383706,0.579423,0.225161
1396,-2.748544,1.728614,-7.352593,-0.536256,0.588616,0.315625
1411,-2.580949,3.435679,-7.757214,-0.353596,0.634580,0.277920
1426,-2.662352,3.878607,-7.510611,0.073677,0.560637,0.189055
1441,-2.449268,3.244143,-8.293514,0.176798,0.744763,0.133098
1454,0.794276,3.345897,0.597952,0.176798,0.744763,0.133098
1467,0.794276,3.345897,0.597952,0.176798,0.744763,0.133098
1482,-2.123657,4.005499,-8.750807,1.125671,0.333211,-0.051028
1497,-1.623269,1.113304,-10.132261,1.687240,0.108717,-0.084735
1512,-1.977611,-2.027889,-10.072407,1.218666,0.061153,0.154282
1527,-1.934515,-1.719037,-9.804255,0.255138,-0.231956,0.453919
1542,-1.762132,0.486023,-9.684546,-0.329881,-0.495221,0.620191
1557,-1.687912,1.393425,-9.495404,-0.530260,-0.740499,0.711988
1572,-1.934515,1.984793,-9.198523,-0.610732,-0.772341,0.766080
1587,-1.580173,3.177106,-8.729259,-0.574360,-0.846418,0.756354
1602,-1.932121,4.003105,-8.398859,-0.295640,-0.867335,0.663758
1617,-2.166753,4.086902,-8.032547,0.038904,-0.914899,0.522933
1632,-2.286463,3.459621,-7.331046,0.260867,-0.881591,0.440862
1647,-2.312799,3.220201,-7.101202,0.331346,-0.867335,0.368651
1662,-2.212242,3.177106,-7.015011,0.425674,-0.917031,0.315092
1677,-1.924938,3.102885,-6.825869,0.522000,-0.932885,0.276055
1692,-2.078167,2.628834,-6.402095,0.533325,-0.913034,0.304167
1707,-2.305616,2.767697,-6.191405,0.518936,-0.996436,0.337608
1722,-2.401384,2.832340,-6.548141,0.508011,-0.939014,0.360657
1737,-2.674323,2.504335,-6.452374,0.445925,-0.974587,0.368518
1752,-2.652776,1.893813,-6.438008,0.239816,-0.917963,0.410352
1767,-2.834735,1.826776,-6.256049,-0.066083,-0.909170,0.477767
1782,-2.971204,1.953669,-6.203376,-0.343204,-0.877461,0.505879
1797,-2.913743,2.578555,-5.928043,-0.535723,-0.833095,0.499484
1812,-2.535460,3.296816,-5.638345,-0.538254,-0.863072,0.437398
1827,-2.908955,3.758897,-5.453991,-0.393032,-0.849083,0.325617
1842,-3.033453,3.912126,-5.154716,-0.147620,-0.857610,0.188789
1857,-3.136404,3.833117,-4.800375,0.121640,-0.823236,0.050361
1872,-3.335123,3.737349,-4.446033,0.369051,-0.757420,-0.040902
1887,-3.423708,3.299210,-4.228160,0.509476,-0.633648,-0.069014
1902,-3.612850,3.311181,-4.177882,0.641242,-0.561303,-0.096459
1917,-3.586514,3.129222,-4.175488,0.838557,-0.510142,-0.157479
1932,-3.643975,2.466028,-4.431667,0.922227,-0.360257,-0.207041
1947,-3.643975,1.989582,-4.745308,0.912767,-0.237951,-0.244879
1962,-3.998317,1.285686,-4.685452,0.788063,-0.163475,-0.255937
1977,-4.220977,1.156399,-4.853047,0.582087,-0.007194,-0.235953
1992,-3.725378,1.051054,-4.740520,0.331080,0.067015,-0.191720
2007,-3.881001,1.201889,-4.762067,0.167205,-0.007061,-0.152816
2022,-3.804386,1.386243,-4.738125,0.113113,0.000000,-0.138560
2037,-3.842694,1.623269,-4.606444,0.021450,-0.083403,-0.099391
2052,-4.098873,1.740585,-4.838682,0.090064,-0.136029,-0.123772
2067,-4.491522,1.539472,-5.054160,0.164940,-0.160144,-0.148153
2082,-4.570531,1.197101,-5.058948,0.155081,-0.111914,-0.146954
2097,-4.417302,1.130063,-5.245696,0.111115,-0.086867,-0.143357
2112,-4.314352,1.034295,-5.248090,0.081005,-0.016654,-0.147753
2127,-4.295198,1.106121,-5.269638,0.067681,-0.010392,-0.161210
2142,-4.455609,1.256956,-5.202600,0.073011,0.045432,-0.178130
2157,-4.273650,1.312023,-5.228936,0.082070,0.099257,-0.182926
2172,-4.393360,0.976834,-5.233725,0.047164,0.053959,-0.158678
2187,-4.771644,1.086968,-5.427655,0.009593,0.003464,-0.125904
2202,-4.824317,1.106121,-5.497087,0.049828,0.010525,-0.127502
2217,-4.735731,0.842759,-5.628768,0.073410,0.027579,-0.140292
2232,-4.649539,0.514753,-5.643133,0.008926,0.039170,-0.108184
2247,-4.663905,0.277727,-5.688623,-0.094061,0.053825,-0.047297
2260,-0.422577,0.241814,-0.212485,-0.094061,0.053825,-0.047297
2275,-4.570531,0.708684,-5.734113,-0.156280,0.080205,0.054891
2289,-0.702100,0.360327,0.246603,-0.091930,0.036505,0.049695
2304,-4.302381,1.400608,-5.851429,0.007994,-0.037704,0.026513
2319,-4.604050,0.928950,-5.829881,-0.026513,-0.016787,0.028911
2334,-4.716577,0.787692,-5.872977,-0.083003,0.063018,0.011458
2349,-4.884171,0.897826,-6.011840,-0.175199,0.150152,0.003064
2364,-5.066131,1.003170,-6.040571,-0.188123,0.249542,-0.029711
2379,-4.762067,1.323994,-6.007052,-0.140159,0.246611,-0.067282
2394,-4.520253,1.520318,-6.260838,-0.025847,0.253806,-0.106319
2409,-4.508282,1.443704,-6.268020,0.063285,0.188789,-0.111648
2424,-4.383783,1.302446,-6.344635,0.150285,0.122972,-0.104986
2439,-4.529830,1.096544,-6.404490,0.193319,0.063018,-0.079672
2454,-4.371812,0.730232,-6.335058,0.137495,0.030910,-0.018253
2469,-4.714183,0.622492,-6.461950,0.066616,0.100590,0.026380
2484,-4.735731,0.687136,-6.430826,-0.003597,0.131632,0.055557
2499,-4.740520,0.758962,-6.435614,-0.059688,0.152949,0.071145
2514,-4.355053,1.175553,-6.361394,-0.077274,0.118576,0.079939
2529,-4.335899,1.417367,-6.442797,-0.019718,0.091530,0.057423
2544,-4.484340,1.455675,-6.311116,0.078606,0.065683,0.015988
2559,-4.477157,1.297657,-6.493075,0.143490,0.059688,-0.006528
2574,-4.350265,1.127669,-6.390124,0.145089,0.049962,-0.009459
2589,-4.187459,0.919373,-6.382942,0.088332,0.020917,0.005462
2604,-4.252102,0.837971,-6.299145,-0.031576,0.005995,0.040103
2619,-4.304775,1.132457,-6.220136,-0.110315,-0.001199,0.046098
2634,-4.220977,1.249773,-6.241684,-0.124305,0.025181,0.026913
2649,-4.347870,1.228225,-6.153098,-0.142824,0.045165,0.024914
2664,-4.299986,1.355118,-6.153098,-0.125904,0.068481,0.009193
2679,-4.517859,1.328782,-6.313510,-0.063152,0.087266,-0.025714
2694,-4.414908,1.288080,-6.354211,-0.012790,0.098058,-0.053825
2709,-4.230554,1.113304,-6.414066,0.014256,0.102855,-0.064484
2724,-4.278439,1.101333,-6.473921,0.005196,0.077807,-0.053292
2739,-4.362236,1.163582,-6.476315,0.003730,0.053692,-0.038371
2754,-4.347870,1.122881,-6.593631,0.030377,0.015588,-0.034374
2769,-4.264073,1.110910,-6.552930,0.005063,0.023449,-0.015855
2784,-4.321534,1.149217,-6.493075,0.001998,0.020251,-0.018253
2799,-4.359841,1.043872,-6.421249,-0.034107,0.024648,-0.011724
2814,-4.381389,1.177947,-6.428432,-0.039969,0.038637,-0.021717
2829,-4.225766,1.197101,-6.435614,-0.040502,0.040636,-0.036639
2844,-4.201824,1.163582,-6.449979,-0.020251,0.021184,-0.040369
2859,-4.355053,0.993594,-6.603208,-0.013989,0.012257,-0.041435
2874,-4.352659,1.051054,-6.500257,-0.010658,-0.009859,-0.032109
2889,-4.254497,1.091756,-6.370971,0.019185,-0.012391,-0.029178
2904,-4.182670,1.139640,-6.318298,0.051960,-0.011591,-0.011991
2919,-4.316746,0.861913,-6.275203,0.058888,0.007994,0.011458
2934,-4.237737,0.938527,-6.184223,0.050095,0.005995,0.025714
2949,-4.161122,0.905008,-6.155492,0.015988,0.007861,0.038237
2964,-4.101267,0.972046,-6.129156,-0.026113,0.012391,0.042101
2979,-4.225766,1.017536,-6.143521,-0.067149,-0.010792,0.040103
2994,-4.446033,1.130063,-6.112397,-0.071012,0.012257,0.024781
3009,-4.345476,1.199495,-6.141127,-0.069946,0.014256,0.011191
3024,-4.247314,1.225831,-6.098032,-0.060087,0.024648,-0.001466
3039,-4.283227,1.060631,-6.174646,-0.030510,0.022116,-0.020384
3054,-4.367024,0.794875,-6.270414,-0.057689,0.030110,-0.008527
3069,-4.388572,0.787692,-6.208165,-0.109916,0.043700,0.018652
3084,-4.386178,1.163582,-6.311116,-0.092462,0.039037,0.025580
3099,-4.362236,1.122881,-6.370971,-0.046498,0.042634,0.017453
3114,-4.364630,1.106121,-6.373365,-0.023582,0.038504,0.018786
3129,-4.343082,1.194707,-6.320693,0.008926,0.022250,0.008660
3144,-4.129998,1.120486,-6.399701,0.016387,0.028511,0.000799
3159,-4.192247,1.101333,-6.426037,0.007594,0.033841,-0.007061
3174,-4.266468,1.063026,-6.435614,-0.007194,0.028112,-0.008394
3189,-4.431667,0.905008,-6.505046,-0.029577,0.035440,-0.003597
3204,-4.314352,0.921768,-6.409278,-0.084335,0.031709,0.009060
3219,-4.228160,1.125275,-6.347029,-0.094328,0.030377,0.010525
3234,-4.407725,1.225831,-6.509834,-0.058622,0.034507,0.007061
3249,-4.474763,1.278504,-6.418855,0.020251,0.019985,-0.008394
3264,-4.314352,1.139640,-6.478710,0.063018,0.009726,-0.007727
3279,-4.247314,0.931344,-6.478710,0.048363,0.004663,0.005196
3294,-4.438850,0.804452,-6.382942,0.002665,-0.014655,0.023315
3309,-4.400543,0.962469,-6.385336,-0.043034,-0.002132,0.035972
3324,-4.321534,1.137246,-6.217741,-0.052360,-0.005063,0.033308
3339,-4.108450,1.182736,-6.342240,-0.047164,0.004263,0.023582
3354,-4.139575,1.139640,-6.208165,-0.024914,0.006662,0.008926
3369,-4.276044,1.051054,-6.191405,-0.025980,0.011191,0.005462
3384,-4.194641,1.091756,-6.313510,-0.032908,-0.004263,0.005596
3399,-4.163517,1.278504,-6.452374,-0.019851,-0.038371,0.001466
3414,-4.175488,1.098939,-6.272809,0.000133,-0.094061,-0.005329
3429,-4.407725,1.070208,-6.258443,0.006129,-0.098191,-0.009193
3444,-4.417302,0.876278,-6.177040,-0.002265,-0.082337,-0.004130
3459,-4.378995,0.770933,-6.143521,-0.051694,-0.058888,0.017853
3474,-4.374207,0.943315,-6.074090,-0.076075,-0.008926,0.026380
3489,-4.515464,0.957681,-6.126762,-0.081937,0.030243,0.028378
3504,-4.410120,1.158794,-6.119579,-0.063418,0.063152,0.027579
3519,-4.278439,1.292869,-6.126762,-0.029577,0.068214,0.019985
3534,-4.220977,1.089362,-6.272809,-0.012524,0.069813,0.011724
3549,-4.383783,1.120486,-6.385336,-0.023049,0.040769,0.011991
3564,-4.283227,1.060631,-6.392519,-0.034640,0.015055,0.010392
3579,-4.304775,1.106121,-6.356606,-0.057423,0.015721,0.016387
3594,-4.335899,1.091756,-6.351817,-0.086600,0.009459,0.014389
3609,-4.395754,1.067814,-6.330269,-0.093262,0.005596,0.004930
3624,-4.486734,1.122881,-6.311116,-0.082870,0.007061,-0.003864
3639,-4.443638,1.319205,-6.220136,-0.041568,0.011458,-0.018786
3654,-4.314352,1.431733,-6.282385,0.011058,0.023315,-0.020251
3669,-4.295198,1.209072,-6.289568,0.065150,0.019185,-0.014256
3684,-4.323928,1.015141,-6.287174,0.065550,0.022783,0.009992
3699,-4.311957,0.945710,-6.217741,0.045698,0.040502,0.023449
3714,-4.213795,0.787692,-6.313510,-0.007594,0.046231,0.036372
3729,-4.266468,0.866701,-6.385336,-0.083936,0.056757,0.054092
3744,-4.381389,1.110910,-6.303933,-0.093262,0.031576,0.041835
3759,-4.209006,1.221043,-6.394913,-0.066482,0.017453,0.021051
3774,-4.139575,1.249773,-6.323087,-0.031975,-0.005729,0.001332
3789,-4.288015,1.185130,-6.203376,-0.007861,-0.008926,-0.010525
3804,-4.367024,1.098939,-6.212953,0.010259,0.017986,-0.014123
3819,-4.453215,1.015141,-6.165069,0.008527,0.037305,-0.001732
3834,-4.311957,1.019930,-6.256049,-0.004263,0.066083,0.009726
3849,-4.242526,0.912191,-6.382942,-0.023848,0.074609,0.021051
3864,-4.304775,1.036689,-6.289568,-0.061153,0.069547,0.042234
3879,-4.259285,1.130063,-6.373365,-0.063285,0.055025,0.044100
3894,-4.098873,1.367089,-6.354211,-0.029577,0.038904,0.032508
3909,-4.115633,1.307234,-6.380548,0.019452,0.016654,0.013856
3924,-4.244920,1.154005,-6.359000,0.045565,0.012124,-0.009193
3939,-4.359841,1.034295,-6.325481,0.021717,-0.005196,-0.011591
3954,-4.350265,1.022324,-6.327875,0.002931,-0.011591,-0.007328
3969,-4.347870,0.938527,-6.289568,-0.021850,0.017853,-0.002531
3984,-4.553771,0.998382,-6.363788,-0.043833,0.060354,0.004663
3999,-4.355053,1.036689,-6.342240,-0.033041,0.077407,0.015588
4014,-4.230554,1.309628,-6.418855,0.002531,0.073943,0.019585
4029,-4.163517,1.094150,-6.368577,0.021850,0.058888,0.021317
4044,-4.283227,0.984017,-6.394913,-0.010792,0.013856,0.036772
4059,-4.280833,1.036689,-6.406884,-0.041968,0.002798,0.037704
4074,-4.161122,1.120486,-6.356606,-0.069147,-0.021583,0.030243
4089,-4.149151,1.165976,-6.224924,-0.072078,-0.027046,0.018919
4104,-4.299986,1.247379,-6.246472,-0.061153,-0.021717,-0.001332
4119,-4.414908,1.180341,-6.339846,-0.035040,0.002132,-0.019319
4134,-4.436456,1.256956,-6.414066,-0.001066,0.029577,-0.033441
4149,-4.307169,1.182736,-6.361394,0.007061,0.044632,-0.023582
4164,-4.297592,1.106121,-6.320693,0.013989,0.051294,-0.012524
4179,-4.434062,1.142034,-6.301539,0.006395,0.037438,0.004796
4194,-4.299986,1.170765,-6.337452,0.011191,0.025047,0.013456
4209,-4.256891,1.058237,-6.368577,-0.010392,0.027046,0.016787
4224,-4.247314,0.984017,-6.473921,-0.060087,0.027979,0.032508
4239,-4.299986,1.137246,-6.337452,-0.078340,0.021317,0.020917
4254,-4.304775,1.247379,-6.325481,-0.062619,0.011458,0.000799
4269,-4.141969,1.312023,-6.284780,-0.037438,-0.009060,-0.021450
4284,-4.220977,1.285686,-6.418855,-0.004663,-0.005462,-0.045165
4299,-4.355053,1.118092,-6.349423,0.006395,-0.003730,-0.059155
4314,-4.304775,1.019930,-6.378153,-0.006662,0.011858,-0.055025
4329,-4.175488,1.086968,-6.253655,-0.023848,0.020384,-0.044100
4344,-4.161122,1.022324,-6.279991,-0.043833,0.019052,-0.027579
4359,-4.290410,1.091756,-6.265626,-0.030910,0.005995,-0.026247
4374,-4.453215,0.969652,-6.215347,-0.046098,0.009326,-0.018652
4389,-4.266468,1.173159,-6.270414,-0.055691,-0.006528,-0.015188
4404,-4.326323,1.211466,-6.258443,-0.027712,-0.001199,-0.026779
4419,-4.297592,1.096544,-6.301539,0.004796,-0.005462,-0.040103
4434,-4.441244,0.967257,-6.306327,0.004130,-0.004663,-0.042634
4449,-4.223372,0.928950,-6.272809,-0.021184,-0.032908,-0.039303
4464,-4.199430,1.060631,-6.363788,-0.040502,-0.044499,-0.028645
4479,-4.288015,1.113304,-6.351817,-0.021983,-0.046897,-0.028112
4494,-4.240131,1.077391,-6.368577,0.015721,-0.045698,-0.027179
4509,-4.244920,0.950498,-6.402095,0.019452,-0.015322,-0.019319
4524,-4.309563,0.902614,-6.234501,-0.005196,0.010658,-0.010392
4539,-4.364630,0.948104,-6.177040,-0.020384,0.040636,-0.007328
4554,-4.479551,0.916979,-6.155492,-0.058622,0.050361,0.011858
4569,-4.225766,1.223437,-6.303933,-0.050228,0.033841,0.017853
4584,-4.185064,1.283292,-6.375759,0.026380,0.008127,-0.001865
4599,-4.134786,1.074997,-6.406884,0.065417,-0.014256,-0.021583
4614,-4.307169,0.763750,-6.339846,0.035440,-0.026513,-0.017587
4629,-4.276044,0.768539,-6.299145,-0.011458,-0.017853,-0.010525
4644,-4.252102,0.804452,-6.301539,-0.056757,0.021317,-0.007861
4659,-4.331111,0.981623,-6.244078,-0.077008,0.056357,-0.017587
4674,-4.417302,1.051054,-6.260838,-0.056090,0.076208,-0.033574
4689,-4.407725,1.139640,-6.229712,-0.014256,0.074343,-0.039170
4704,-4.338294,0.986411,-6.277597,-0.004530,0.066482,-0.026779
4719,-4.398149,1.034295,-6.402095,-0.031443,0.057956,-0.002265
4734,-4.486734,1.003170,-6.430826,-0.034907,0.026113,0.012923
4749,-4.376601,1.027112,-6.466739,-0.023315,0.002531,0.020784
4764,-4.223372,1.074997,-6.335058,-0.022516,-0.002665,0.025314
4779,-4.283227,1.043872,-6.311116,-0.017720,0.001199,0.013456
4794,-4.362236,0.955286,-6.270414,-0.036239,0.015055,0.000933
4809,-4.426879,1.077391,-6.289568,-0.035839,0.035972,-0.015188
4824,-4.273650,1.106121,-6.265626,-0.027712,0.056224,-0.033841
4839,-4.165911,1.074997,-6.421249,-0.006928,0.061553,-0.045165
4854,-4.201824,1.079785,-6.385336,-0.000933,0.055824,-0.044366
4869,-4.225766,0.919373,-6.370971,0.014522,0.036106,-0.039303
4884,-4.235343,0.873884,-6.332664,0.003997,0.026380,-0.023982
4899,-4.175488,0.864307,-6.184223,-0.039570,0.006528,-0.002665
4914,-4.331111,0.945710,-6.279991,-0.052626,0.002931,0.003864
4929,-4.383783,1.003170,-6.248867,-0.049828,0.012257,-0.003864
4944,-4.307169,1.024718,-6.244078,-0.037172,0.020518,-0.021317
4959,-4.189853,1.005565,-6.258443,-0.024515,0.033708,-0.032508
4974,-4.163517,0.864307,-6.296751,-0.037971,0.039570,-0.036106
4989,-4.326323,0.852336,-6.256049,-0.045565,0.043433,-0.035706
5004,-4.235343,0.905008,-6.236896,-0.049162,0.064884,-0.037305
5019,-4.206612,1.000776,-6.315904,-0.022649,0.072877,-0.031975
5034,-4.280833,0.835576,-6.268020,-0.009326,0.080605,-0.021184
5049,-4.390966,0.744597,-6.308722,-0.039703,0.072478,0.007861
5064,-4.276044,0.995988,-6.323087,-0.056890,0.045832,0.023049
5079,-4.228160,1.161188,-6.423643,-0.032375,0.019851,0.027579
5094,-4.333505,1.041478,-6.438008,0.010126,0.006795,0.006928
5109,-4.390966,0.816423,-6.387730,0.005462,0.012923,-0.001332
5124,-4.462792,0.833182,-6.473921,-0.016387,0.036106,-0.012391
5139,-4.367024,0.833182,-6.461950,-0.025447,0.047430,-0.020251
5154,-4.261679,0.854730,-6.394913,-0.043300,0.056224,-0.024115
5169,-4.211401,0.876278,-6.490681,-0.052493,0.043833,-0.020251
5184,-4.134786,0.893037,-6.428432,-0.043966,0.040103,-0.017986
5199,-4.118027,1.120486,-6.416461,-0.000533,0.043034,-0.015855
5214,-4.065354,0.981623,-6.332664,0.021583,0.055025,-0.004263
5229,-4.139575,0.811634,-6.344635,0.011724,0.035040,0.017986
5244,-4.323928,0.897826,-6.416461,0.006395,0.035306,0.017853
5259,-4.194641,0.931344,-6.363788,-0.004530,0.031043,0.011858
5274,-4.127604,0.950498,-6.421249,-0.014922,0.017587,0.009726
5289,-4.158728,0.919373,-6.493075,-0.010658,-0.008260,-0.004796
5304,-4.220977,0.931344,-6.344635,0.003198,-0.025714,-0.015055
5319,-4.132392,0.826000,-6.342240,-0.006662,-0.014922,-0.019985
5334,-4.077325,0.826000,-6.359000,-0.015055,-0.000666,-0.023182
5349,-4.249708,0.928950,-6.227318,-0.025847,0.033574,-0.023982
5364,-4.326323,0.950498,-6.239290,-0.019452,0.056623,-0.011591
5379,-4.223372,1.091756,-6.411672,0.020917,0.073277,-0.015855
5394,-4.199430,0.881066,-6.426037,0.049029,0.072078,-0.015188
5409,-4.189853,0.703895,-6.385336,0.027979,0.055424,0.000400
5424,-4.309563,0.598550,-6.471527,-0.035573,0.034374,0.022116
5439,-4.283227,0.797269,-6.440403,-0.076741,0.007328,0.031576
5454,-4.089296,0.981623,-6.438008,-0.063152,-0.017853,0.021051
5469,-4.125209,1.003170,-6.509834,-0.025047,-0.048096,0.006262
5484,-4.261679,0.902614,-6.421249,0.008260,-0.049029,0.002665
5499,-4.278439,0.703895,-6.435614,0.002132,-0.027312,0.001332
5514,-4.280833,0.818817,-6.236896,-0.033308,-0.000533,0.013190
5529,-4.220977,0.821211,-6.325481,-0.060887,0.052893,0.016654
5544,-4.264073,0.895431,-6.296751,-0.060753,0.079672,0.016920
5559,-4.237737,0.991199,-6.335058,-0.036639,0.092063,0.017320
5574,-4.175488,1.077391,-6.382942,0.007594,0.066083,0.011058
5589,-4.194641,0.816423,-6.430826,0.035839,0.043034,-0.001732
5604,-4.242526,0.634463,-6.473921,-0.014256,0.007861,0.025447
5619,-4.158728,0.773327,-6.438008,-0.038504,-0.018386,0.030510
5634,-4.158728,0.804452,-6.394913,-0.050495,-0.031975,0.030643
5649,-4.259285,0.876278,-6.289568,-0.035839,-0.042368,0.022916
5664,-4.252102,1.067814,-6.203376,0.016387,-0.032642,0.001865
5679,-4.288015,0.924162,-6.268020,0.048230,-0.011191,-0.005063
5694,-4.185064,0.787692,-6.227318,0.034773,0.013856,0.003730
5709,-4.331111,0.754174,-6.294356,-0.004130,0.060221,0.019718
5724,-4.225766,0.837971,-6.313510,-0.031576,0.096726,0.026646
5739,-4.050989,0.919373,-6.181828,-0.037038,0.109516,0.020917
5754,-3.928885,1.122881,-6.394913,0.013456,0.075276,0.002665
5769,-4.199430,0.859518,-6.359000,0.044766,0.042900,-0.017587
5784,-4.319140,0.821211,-6.385336,0.029844,0.035040,-0.024248
5799,-4.304775,0.665588,-6.397307,-0.022649,0.032109,-0.000933
5814,-4.153940,0.706289,-6.493075,-0.067815,0.029711,0.030110
5829,-4.228160,0.976834,-6.562507,-0.047430,0.020917,0.035173
5844,-4.453215,1.015141,-6.514623,0.018519,-0.003997,0.025447
5859,-4.192247,1.103727,-6.524199,0.072877,-0.021450,0.022516
5874,-4.228160,0.833182,-6.452374,0.077674,-0.048230,0.016920
5889,-4.220977,0.574608,-6.519411,0.040902,-0.040369,0.025980
5904,-4.247314,0.634463,-6.485892,-0.048896,-0.012124,0.037838
5919,-4.201824,0.842759,-6.423643,-0.075675,0.024381,0.028378
5934,-4.027047,0.830788,-6.339846,-0.095127,0.052093,0.017986
5949,-4.122815,1.084573,-6.406884,-0.084602,0.070213,0.007861
5964,-4.326323,1.110910,-6.471527,-0.019052,0.054891,-0.019052
5979,-4.187459,0.864307,-6.593631,0.005063,0.035173,-0.013323
5994,-4.027047,0.972046,-6.526594,0.015988,-0.012923,0.003597
6009,-4.228160,0.809240,-6.418855,0.033574,-0.038637,0.014655
6024,-4.290410,0.837971,-6.373365,0.044499,-0.065150,0.013723
6039,-4.335899,0.766145,-6.320693,0.029311,-0.070879,0.016920
6054,-4.309563,0.849942,-6.327875,0.014655,-0.073410,0.013323
6069,-4.328717,0.763750,-6.387730,-0.003464,-0.027979,0.014256
6084,-4.357447,0.794875,-6.402095,-0.021051,0.029977,0.004796
6099,-4.280833,0.849942,-6.222530,-0.010658,0.071145,-0.006795
6114,-4.041412,0.835576,-6.282385,-0.025714,0.085934,-0.017986
6129,-4.031836,0.773327,-6.263232,-0.050761,0.091130,-0.013723
6144,-4.127604,0.974440,-6.416461,-0.032642,0.052227,-0.018919
6159,-4.402937,0.869095,-6.397307,0.028245,0.035306,-0.038237
6174,-4.237737,0.586579,-6.421249,-0.027979,0.015455,-0.017853
6189,-4.249708,0.636858,-6.433220,-0.082470,0.014655,0.011325
6204,-4.295198,0.780510,-6.318298,-0.107251,0.013723,0.025580
6219,-4.288015,1.039083,-6.256049,-0.076608,0.006662,0.015188
6234,-4.129998,1.094150,-6.268020,-0.017453,0.000533,-0.008260
6249,-4.091691,0.914585,-6.323087,0.009060,0.012923,-0.027579
6264,-4.201824,0.833182,-6.354211,0.017320,0.017187,-0.031043
6279,-4.187459,0.749385,-6.344635,-0.002931,0.026513,-0.035440
6294,-4.091691,0.718261,-6.433220,-0.027979,0.027579,-0.038504
6309,-3.981557,0.818817,-6.402095,-0.048763,0.028778,-0.036505
6324,-4.098873,0.778116,-6.349423,-0.033308,0.021450,-0.029711
6339,-4.288015,0.957681,-6.370971,-0.004530,0.029044,-0.032642
6354,-4.321534,0.701501,-6.347029,0.003464,0.032508,-0.027046
6369,-4.292804,0.572214,-6.359000,-0.039570,0.048496,-0.012124
6384,-4.201824,0.560243,-6.382942,-0.110848,0.058888,0.016254
6399,-4.323928,0.890643,-6.368577,-0.114979,0.042234,0.026513
6414,-4.225766,1.122881,-6.416461,-0.060753,0.014789,0.018786
6429,-4.053383,1.058237,-6.473921,0.036772,-0.009593,-0.012524
6444,-4.168305,0.897826,-6.385336,0.081937,-0.020118,-0.023449
6459,-4.254497,0.617704,-6.423643,0.072744,-0.015988,-0.027179
6474,-4.204218,0.572214,-6.449979,0.011325,0.018386,-0.020518
6489,-4.005499,0.579397,-6.459556,-0.040902,0.059688,-0.020384
6504,-4.146757,0.572214,-6.435614,-0.065683,0.084868,-0.026779
6519,-4.103662,0.679953,-6.433220,-0.072877,0.078207,-0.024515
6534,-4.259285,0.785298,-6.603208,-0.050361,0.053825,-0.023982
6549,-4.153940,0.586579,-6.562507,-0.049029,0.014123,-0.017720
6564,-4.213795,0.584185,-6.543353,-0.086467,0.024115,0.009459
6579,-4.204218,0.804452,-6.404490,-0.084602,0.013190,0.028778
6594,-4.204218,1.015141,-6.368577,-0.047297,0.010658,0.031176
6609,-3.998317,1.043872,-6.347029,0.024914,-0.007061,0.007861
6624,-4.046201,0.675165,-6.428432,0.031975,0.002531,-0.002132
6639,-4.149151,0.490811,-6.435614,-0.022250,0.013590,0.007461
6654,-4.163517,0.490811,-6.256049,-0.093395,0.031176,0.022383
6669,-4.149151,0.830788,-6.323087,-0.133231,0.060087,0.021051
6684,-4.043807,1.022324,-6.220136,-0.103121,0.089931,0.001599
6699,-4.259285,0.912191,-6.426037,-0.044366,0.106985,-0.020384
6714,-4.211401,0.830788,-6.414066,-0.013989,0.086600,-0.015721
6729,-4.158728,0.754174,-6.560112,0.004930,0.041968,-0.013456
6744,-4.065354,0.550666,-6.481104,-0.039703,0.013723,0.010525
6759,-4.139575,0.725443,-6.493075,-0.069946,0.014123,0.033708
6774,-4.230554,0.912191,-6.387730,-0.036639,0.012391,0.027979
6789,-4.235343,0.972046,-6.368577,0.017187,0.023848,0.011858
6804,-4.175488,0.790087,-6.528988,0.022516,0.034374,0.003730
6819,-4.201824,0.632069,-6.509834,-0.005063,0.054625,0.017587
6834,-4.146757,0.787692,-6.526594,-0.041701,0.069813,0.031443
6849,-4.094085,0.873884,-6.481104,-0.045032,0.066616,0.033841
6864,-3.914520,0.967257,-6.375759,-0.030110,0.062219,0.017853
6879,-4.077325,0.952892,-6.514623,-0.048230,0.056357,0.011858
6894,-4.120421,1.010353,-6.564901,-0.013323,0.017986,-0.010126
6909,-4.127604,0.835576,-6.591237,-0.003997,0.011191,-0.020251
6924,-4.089296,0.806846,-6.457162,-0.042368,0.015055,-0.012124
6939,-4.067749,0.926556,-6.517017,-0.047830,-0.002531,-0.010126
6954,-4.132392,0.885855,-6.380548,-0.039170,-0.006662,-0.014256
6969,-4.175488,0.885855,-6.327875,-0.022649,-0.006528,-0.018786
6984,-4.036624,0.766145,-6.313510,-0.026646,0.003331,-0.018519
6999,-4.015076,0.821211,-6.323087,-0.042501,0.030510,-0.013057
7014,-4.113238,0.837971,-6.330269,-0.059554,0.048496,-0.013456
7029,-4.144363,0.797269,-6.356606,-0.067548,0.056357,-0.018119
7044,-3.971981,0.885855,-6.323087,-0.055291,0.065949,-0.021983
7059,-3.847482,0.936133,-6.409278,-0.054092,0.065683,-0.013989
7074,-4.003105,0.895431,-6.481104,-0.016387,0.040369,-0.015322
7089,-4.144363,0.816423,-6.485892,0.007061,0.031043,-0.016521
7104,-4.146757,0.598550,-6.505046,-0.021051,0.026380,-0.005329
7119,-4.103662,0.553061,-6.485892,-0.092329,0.039037,0.010259
7134,-4.206612,0.866701,-6.457162,-0.105652,0.052493,0.013190
7149,-4.273650,0.964863,-6.502652,-0.056623,0.036505,-0.007994
7164,-4.086902,0.988805,-6.445191,0.003997,0.015855,-0.027979
7179,-4.031836,0.773327,-6.478710,0.039703,0.015455,-0.040369
7194,-4.067749,0.615310,-6.485892,0.029577,0.027312,-0.030110
7209,-4.070143,0.488417,-6.567295,-0.019985,0.042234,-0.009992
7224,-4.060566,0.581791,-6.514623,-0.061819,0.053559,0.012923
7239,-3.976769,0.814029,-6.572083,-0.074476,0.061020,0.015855
7254,-4.120421,0.881066,-6.528988,-0.053159,0.077141,0.009593
7269,-4.122815,0.964863,-6.579266,-0.010792,0.064351,-0.003198
7284,-4.158728,0.814029,-6.552930,0.010792,0.050628,-0.018519
7299,-4.007894,0.725443,-6.579266,-0.013057,0.037571,-0.007727
7314,-3.825934,0.677559,-6.356606,-0.041435,-0.001865,0.006662
7329,-3.981557,0.785298,-6.385336,-0.048763,-0.016654,0.011458
7344,-4.031836,0.912191,-6.478710,-0.023449,-0.015588,0.011058
7359,-3.988740,0.854730,-6.416461,-0.011724,0.009326,0.012657
7374,-4.015076,0.749385,-6.311116,-0.021717,0.034374,0.018386
7389,-4.084508,0.584185,-6.478710,-0.053559,0.057289,0.022250
7404,-4.170699,0.790087,-6.402095,-0.073810,0.077807,0.014389
7419,-3.881001,0.806846,-6.488286,-0.070613,0.093395,-0.000933
7434,-3.821146,0.940921,-6.469133,-0.046098,0.094061,-0.016787
7449,-3.883395,0.828394,-6.464345,-0.019185,0.077008,-0.028778
7464,-4.024653,1.041478,-6.442797,0.009060,0.050761,-0.027845
7479,-4.029441,0.881066,-6.457162,0.052493,0.024515,-0.031975
7494,-3.988740,0.636858,-6.584054,0.023982,0.046764,-0.016920
7509,-4.067749,0.548272,-6.514623,-0.046897,0.055158,0.020384
7524,-4.046201,0.749385,-6.648698,-0.080738,0.048096,0.038104
7539,-4.036624,1.010353,-6.677428,-0.034374,0.033441,0.025847
7554,-3.895366,0.960075,-6.593631,0.008260,0.008527,0.005729
7569,-3.943250,0.809240,-6.660669,0.031443,-0.011191,-0.004796
7584,-4.213795,0.493206,-6.588843,-0.010658,-0.019452,-0.002931
7599,-4.007894,0.656011,-6.502652,-0.069413,0.023315,0.007194
7614,-3.830723,0.830788,-6.478710,-0.090997,0.057289,0.011058
7629,-3.859453,0.967257,-6.543353,-0.076874,0.078740,0.003597
7644,-3.921702,0.950498,-6.569689,-0.042501,0.076741,-0.011058
7659,-3.921702,0.952892,-6.461950,-0.036505,0.074743,-0.015588
7674,-3.945644,0.821211,-6.543353,0.003730,0.041168,-0.029044
7689,-3.897760,0.677559,-6.526594,-0.012657,0.017720,-0.022116
7704,-4.185064,0.586579,-6.665457,-0.017320,0.027712,-0.015055
7719,-4.266468,0.687136,-6.603208,-0.038770,0.016787,0.010392
7734,-4.015076,0.871489,-6.605602,-0.030243,0.015721,0.030110
7749,-3.847482,0.878672,-6.464345,0.005329,-0.006395,0.029311
7764,-3.852270,0.746991,-6.536170,0.017587,-0.042634,0.034107
7779,-3.849876,0.735020,-6.557718,0.026513,-0.067948,0.030110
7794,-3.892972,0.615310,-6.598420,0.002398,-0.057956,0.025580
7809,-3.960010,0.529119,-6.428432,-0.045698,-0.009060,0.023982
7824,-4.017470,0.708684,-6.452374,-0.088599,0.045432,0.021184
7839,-3.957615,0.758962,-6.368577,-0.096593,0.083669,0.010259
7854,-3.845088,0.780510,-6.332664,-0.082337,0.097525,-0.001732
7869,-3.768473,0.972046,-6.399701,-0.044632,0.094061,-0.001599
7884,-3.847482,0.912191,-6.550536,0.027046,0.072744,0.003464
7899,-3.983952,0.797269,-6.572083,0.052893,0.058222,0.008394
7914,-4.017470,0.586579,-6.572083,0.045698,0.052626,0.021583
7929,-3.902549,0.464475,-6.574478,-0.013323,0.063818,0.050228
7944,-3.842694,0.682347,-6.507440,-0.066482,0.057423,0.066616
7959,-3.938462,0.902614,-6.538565,-0.054092,0.022783,0.062352
7974,-3.938462,1.027112,-6.672640,0.005329,-0.012124,0.036106
7989,-3.876213,1.043872,-6.538565,0.072211,-0.064351,0.013723
8004,-3.962404,0.684742,-6.476315,0.099923,-0.082603,0.008260
8019,-4.007894,0.435745,-6.488286,0.049562,-0.074876,0.025580
8034,-3.943250,0.421380,-6.356606,-0.038504,-0.028511,0.056490
8049,-3.797204,0.636858,-6.385336,-0.097792,0.031975,0.069413
8064,-3.809175,0.842759,-6.361394,-0.115378,0.084735,0.063285
8079,-3.983952,0.900220,-6.423643,-0.093129,0.148953,0.049162
8094,-3.950433,1.074997,-6.579266,-0.053292,0.162276,0.037305
8109,-3.974375,1.003170,-6.584054,-0.001466,0.156547,0.008394
8124,-3.828328,0.895431,-6.821081,0.019718,0.126703,0.010392
8139,-3.921702,0.732626,-6.763620,0.039303,0.087133,0.013456
8154,-3.916914,0.694318,-6.797139,-0.002265,0.038770,0.039037
8169,-3.763685,0.919373,-6.706159,-0.001066,-0.019452,0.042234
8184,-3.818752,0.900220,-6.655880,-0.002665,-0.070879,0.040103
8199,-3.936068,0.816423,-6.821081,0.006928,-0.104587,0.041035
8214,-4.007894,0.770933,-6.679822,0.010525,-0.096459,0.047031
8229,-3.943250,0.699107,-6.617573,-0.030910,-0.068348,0.054492
8244,-3.881001,0.847547,-6.591237,-0.089531,-0.014389,0.053292
8259,-4.012682,0.960075,-6.473921,-0.097792,0.058888,0.029044
8274,-3.835511,0.859518,-6.500257,-0.113646,0.077141,0.010925
8289,-3.866636,1.089362,-6.483498,-0.097525,0.083403,-0.005862
8304,-3.665523,1.233014,-6.598420,-0.020917,0.082603,-0.017720
8319,-3.885789,1.003170,-6.730101,0.017986,0.053026,-0.023049
8334,-4.031836,0.679953,-6.643909,0.008260,0.039703,-0.000799
8349,-3.983952,0.588974,-6.684611,-0.066083,0.013590,0.033308
8364,-3.763685,0.864307,-6.643909,-0.107118,-0.014655,0.048230
8379,-3.916914,0.998382,-6.617573,-0.091663,-0.027179,0.034640
8394,-3.998317,0.981623,-6.605602,-0.051827,-0.038637,0.013057
8409,-4.039018,1.082179,-6.552930,0.021450,-0.044233,-0.021184
8424,-3.950433,0.792481,-6.607996,0.043567,-0.025714,-0.036905
8439,-3.933673,0.651223,-6.481104,0.018386,0.003464,-0.038904
8454,-3.912126,0.584185,-6.526594,-0.047830,0.018519,-0.017453
8469,-3.711013,0.964863,-6.514623,-0.062485,0.030510,-0.016920
8484,-3.904943,1.036689,-6.433220,0.001199,0.007194,-0.026513
8499,-3.943250,0.964863,-6.574478,0.041035,-0.007861,-0.037172
8514,-4.084508,0.608127,-6.545747,0.015721,0.002931,-0.030243
8529,-4.055778,0.500388,-6.514623,-0.058355,0.035972,-0.005196
8544,-3.948039,0.797269,-6.490681,-0.099524,0.036639,0.011858
8559,-3.746926,0.940921,-6.519411,-0.098458,0.029977,0.011724
8574,-3.912126,1.048660,-6.392519,-0.057023,-0.011058,0.005995
8589,-4.003105,1.005565,-6.521805,0.010392,-0.041435,-0.014922
8604,-3.859453,0.876278,-6.538565,0.054492,-0.054225,-0.024115
8619,-3.878607,0.634463,-6.502652,0.008926,-0.031443,-0.012524
8634,-3.926491,0.550666,-6.347029,-0.054092,0.003730,-0.001199
8649,-3.969586,0.746991,-6.344635,-0.092729,0.038237,0.008127
8664,-3.825934,1.051054,-6.263232,-0.091397,0.037704,0.011724
8679,-3.864241,1.201889,-6.337452,-0.029444,0.048096,-0.010525
8694,-3.914520,1.098939,-6.490681,0.033041,0.042767,-0.033841
8709,-3.976769,0.670376,-6.414066,0.044632,0.073943,-0.034240
8724,-3.840299,0.694318,-6.557718,0.010792,0.102588,-0.025181
8739,-3.876213,0.723049,-6.512228,-0.000133,0.076741,-0.023049
8754,-3.871424,0.727837,-6.493075,-0.026247,0.053959,-0.016254
8769,-3.998317,0.806846,-6.584054,-0.014123,0.004796,-0.010792
8784,-3.974375,0.763750,-6.586449,0.014789,-0.020118,-0.005196
8799,-3.948039,0.694318,-6.567295,0.022916,-0.026913,0.002665
8814,-3.952827,0.512359,-6.481104,-0.030110,-0.006395,0.024381
8829,-4.070143,0.605733,-6.579266,-0.092462,0.042767,0.034907
8844,-3.933673,0.806846,-6.430826,-0.101922,0.096459,0.022250
8859,-3.684676,1.036689,-6.423643,-0.070613,0.127369,0.001332
8874,-3.746926,1.280898,-6.629544,0.036905,0.112980,-0.042634
8889,-3.869030,0.902614,-6.746861,0.124704,0.081271,-0.068481
8904,-3.866636,0.430956,-6.821081,0.082204,0.052760,-0.052227
8919,-3.897760,0.323217,-6.768408,-0.007194,0.044366,-0.010126
8934,-3.904943,0.320823,-6.780379,-0.109516,0.048496,0.034773
8949,-3.857059,0.826000,-6.667851,-0.123505,0.056757,0.051694
8964,-3.902549,1.113304,-6.756437,-0.051960,0.014655,0.045165
8979,-3.744531,1.043872,-6.758832,0.026247,-0.016654,0.030510
8994,-3.720589,0.854730,-6.708553,0.072078,-0.042368,0.021583
9009,-3.900155,0.550666,-6.598420,0.028378,-0.040103,0.024914
9024,-3.938462,0.749385,-6.612785,-0.037172,-0.006395,0.016121
9039,-3.859453,0.746991,-6.512228,-0.058888,0.032109,-0.014522
9054,-3.725378,0.763750,-6.392519,-0.074077,0.068214,-0.039037
9069,-3.746926,0.746991,-6.507440,-0.094061,0.089531,-0.045032
9084,-3.919308,0.799663,-6.562507,-0.050228,0.080871,-0.055424
9099,-3.801992,0.639252,-6.586449,-0.033175,0.048896,-0.037038
9114,-3.787627,0.761356,-6.744466,-0.006928,0.033041,-0.017587
9129,-3.943250,0.713472,-6.636727,0.011991,0.017853,0.001599
9144,-3.801992,0.608127,-6.488286,-0.006395,0.005995,0.027712
9159,-3.770868,0.677559,-6.538565,-0.046098,-0.012124,0.048230
9174,-3.936068,0.727837,-6.524199,-0.047697,-0.006395,0.045165
9189,-3.871424,0.818817,-6.579266,-0.033175,-0.008527,0.033308
9204,-3.866636,0.816423,-6.452374,-0.019851,0.012790,0.014123
9219,-3.830723,0.706289,-6.459556,-0.022783,0.032375,-0.000799
9234,-3.840299,0.672771,-6.564901,-0.029844,0.069813,-0.009859
9249,-3.749320,0.617704,-6.619967,-0.055557,0.096859,-0.000400
9264,-3.593697,0.818817,-6.500257,-0.044499,0.072744,0.010126
9279,-3.643975,1.031901,-6.691793,0.029178,0.040369,0.005596
9294,-3.907337,0.835576,-6.768408,0.079406,0.006928,0.010792
9309,-4.158728,0.526724,-6.744466,0.063152,0.029311,0.029977
9324,-4.005499,0.339977,-6.694188,-0.020251,0.064484,0.069680
9339,-3.742137,0.531513,-6.698976,-0.110982,0.054625,0.096726
9354,-3.790021,0.869095,-6.703764,-0.141225,0.004130,0.097126
9369,-3.830723,1.165976,-6.665457,-0.068614,-0.024381,0.063152
9384,-3.857059,1.211466,-6.555324,0.015322,-0.069280,0.032642
9399,-3.737349,1.029507,-6.560112,0.073943,-0.098991,0.002265
9414,-3.809175,0.682347,-6.533776,0.078740,-0.077407,-0.012524
9429,-3.995923,0.560243,-6.459556,0.005995,-0.030910,-0.007194
9444,-3.974375,0.689530,-6.473921,-0.049562,0.049029,-0.012524
9459,-3.737349,0.744597,-6.533776,-0.081404,0.102055,-0.013456
9474,-3.691859,0.991199,-6.526594,-0.078473,0.097525,-0.020251
9489,-3.813963,0.739808,-6.615179,-0.029577,0.092196,-0.027579
9504,-3.787627,0.744597,-6.617573,-0.034907,0.073810,-0.005196
9519,-3.799598,0.711078,-6.634333,-0.031709,0.048896,0.008660
9534,-3.895366,0.639252,-6.533776,-0.067815,0.035972,0.030377
9549,-3.914520,0.902614,-6.552930,-0.070746,0.016387,0.038770
9564,-3.938462,1.031901,-6.687005,-0.027312,0.003864,0.025314
9579,-3.811569,0.943315,-6.675034,0.026779,-0.034107,0.008394
9594,-3.727772,0.749385,-6.598420,0.049828,-0.037704,-0.001066
9609,-3.828328,0.577003,-6.531382,0.012257,-0.017320,-0.002531
9624,-3.854665,0.476446,-6.505046,-0.059554,0.015455,-0.003597
9639,-3.684676,0.660800,-6.471527,-0.119508,0.051827,-0.004663
9654,-3.493140,0.809240,-6.449979,-0.137495,0.099790,-0.006395
9669,-3.667917,1.175553,-6.423643,-0.046098,0.094328,-0.035706
9684,-3.845088,0.998382,-6.600814,0.027046,0.077940,-0.046364
9699,-3.801992,0.861913,-6.651092,0.068214,0.074343,-0.042368
9714,-3.787627,0.521936,-6.665457,0.051427,0.059954,-0.019851
9729,-3.933673,0.311246,-6.672640,-0.031043,0.055691,0.020518
9744,-3.869030,0.584185,-6.718130,-0.103387,0.030377,0.055291
9759,-3.811569,0.969652,-6.837840,-0.067282,-0.003597,0.047963
9774,-3.658340,1.007959,-6.739678,0.007461,-0.047830,0.027312
9789,-3.737349,0.742203,-6.809110,0.021450,-0.053825,0.017986
9804,-3.811569,0.708684,-6.675034,0.004930,-0.039170,0.010792
9819,-3.840299,0.665588,-6.452374,-0.031842,-0.011991,0.004263
9834,-3.818752,0.775721,-6.555324,-0.068881,0.034507,-0.010525
9849,-3.711013,0.907402,-6.552930,-0.054758,0.075409,-0.020784
9864,-3.725378,0.957681,-6.572083,-0.018519,0.080338,-0.028645
9879,-3.787627,0.924162,-6.624756,0.050095,0.073677,-0.032508
9894,-3.768473,0.778116,-6.646304,0.064484,0.047963,-0.015188
9909,-3.761291,0.442927,-6.605602,0.025580,0.052093,0.009726
9924,-3.904943,0.476446,-6.538565,-0.062352,0.044499,0.043700
9939,-3.854665,0.749385,-6.627150,-0.095394,0.024914,0.047963
9954,-3.746926,0.950498,-6.646304,-0.082603,0.012124,0.028778
9969,-3.605668,0.981623,-6.643909,-0.038104,-0.004530,-0.000133
9984,-3.780444,0.931344,-6.742072,0.003997,-0.008394,-0.017587
9999,-3.885789,0.727837,-6.600814,0.003331,-0.002265,-0.026646
10014,-3.799598,0.612916,-6.564901,-0.039436,0.018519,-0.015721
10029,-3.845088,0.691924,-6.488286,-0.078606,0.057423,-0.011458
10044,-3.679888,0.754174,-6.612785,-0.088865,0.088732,-0.003997
10059,-3.682282,1.034295,-6.505046,-0.065550,0.076874,-0.002931
10074,-3.646369,0.991199,-6.665457,0.007594,0.057289,-0.024781
10089,-3.706224,0.816423,-6.749255,0.019851,0.039570,-0.033708
10104,-3.725378,0.632069,-6.811504,0.008127,0.040769,-0.034507
10119,-3.914520,0.490811,-6.698976,-0.037305,0.054492,-0.032775
10134,-3.706224,0.682347,-6.749255,-0.100323,0.031443,-0.011591
10149,-3.485958,0.952892,-6.868965,-0.082870,-0.014522,-0.014522
10164,-3.485958,0.912191,-6.792350,-0.008793,-0.059021,-0.038371
10179,-3.677494,0.770933,-6.821081,0.031709,-0.054891,-0.049029
10194,-3.727772,0.490811,-6.624756,0.004796,-0.052093,-0.045032
10209,-3.715801,0.574608,-6.533776,-0.046098,-0.001998,-0.045965
10224,-3.730166,0.593762,-6.617573,-0.087400,0.049962,-0.045299
10239,-3.845088,0.526724,-6.631938,-0.104320,0.072211,-0.040502
10254,-3.782839,0.950498,-6.713341,-0.057689,0.058755,-0.049296
10269,-3.749320,0.859518,-6.567295,-0.002265,0.034907,-0.047031
10284,-3.780444,0.723049,-6.653486,0.028778,0.000000,-0.033708
10299,-3.785233,0.414197,-6.701370,-0.004930,0.010259,-0.006795
10314,-3.751714,0.512359,-6.672640,-0.040636,0.006662,0.014256
10329,-3.641581,0.610521,-6.560112,-0.063551,-0.018119,0.028511
10344,-3.564966,0.672771,-6.722918,-0.070879,-0.016787,0.026513
10359,-3.773262,0.746991,-6.675034,-0.048230,-0.004930,0.011991
10374,-3.715801,0.641646,-6.670246,-0.052760,0.007594,0.009326
10389,-3.620033,0.802058,-6.624756,-0.053026,0.020384,0.005462
10404,-3.512294,0.809240,-6.667851,-0.038371,0.033175,-0.001998
10419,-3.768473,0.842759,-6.607996,0.004530,0.037438,-0.005995
10434,-3.921702,0.809240,-6.612785,0.044499,0.027046,-0.015188
10449,-3.969586,0.627281,-6.622362,0.063285,0.023449,-0.019585
10464,-3.888184,0.387861,-6.749255,0.006928,0.039037,0.004663
10479,-3.845088,0.435745,-6.708553,-0.050095,0.029577,0.029444
10494,-3.778050,0.588974,-6.732495,-0.090997,0.019319,0.050761
10509,-3.646369,0.938527,-6.718130,-0.059954,0.004397,0.050894
10524,-3.572149,1.022324,-6.687005,0.001332,-0.001199,0.036106
10539,-3.672705,0.742203,-6.550536,0.018786,0.011458,0.025714
10554,-3.792415,0.574608,-6.694188,-0.011325,0.022649,0.023582
10569,-3.706224,0.711078,-6.596025,-0.064884,0.036106,0.015188
10584,-3.766079,0.957681,-6.629544,-0.051294,0.055824,-0.008793
10599,-3.677494,0.888249,-6.622362,-0.040236,0.040769,-0.019851
10614,-3.842694,0.881066,-6.557718,0.016387,0.002398,-0.039703
10629,-3.775656,0.593762,-6.703764,0.021450,-0.010525,-0.023982
10644,-3.837905,0.596156,-6.526594,-0.000666,0.007727,-0.007061
10659,-3.861847,0.483629,-6.478710,-0.049962,0.029178,0.018652
10674,-3.825934,0.763750,-6.643909,-0.086467,0.029844,0.042767
10689,-3.763685,0.883460,-6.610391,-0.055424,0.018919,0.036372
10704,-3.643975,1.024718,-6.615179,-0.000933,-0.018786,0.014123
10719,-3.615244,0.804452,-6.651092,0.032642,-0.037838,-0.007461
10734,-3.689465,0.521936,-6.588843,-0.004663,-0.026247,-0.005596
10749,-3.761291,0.553061,-6.557718,-0.059155,0.005995,-0.003864
10764,-3.744531,0.785298,-6.490681,-0.086467,0.059821,-0.007194
10779,-3.744531,0.857124,-6.619967,-0.068614,0.097126,-0.016254
10794,-3.658340,0.888249,-6.564901,-0.067282,0.107917,-0.004397
10809,-3.734955,0.962469,-6.612785,-0.001332,0.072744,-0.021317
10824,-3.617639,0.670376,-6.701370,0.023182,0.041035,-0.021983
10839,-3.699042,0.565032,-6.677428,-0.013456,0.036905,-0.005862
10854,-3.842694,0.481235,-6.528988,-0.042900,0.044766,-0.001865
10869,-3.775656,0.627281,-6.619967,-0.101389,0.028778,0.023582
10884,-3.612850,1.048660,-6.576872,-0.053692,-0.000533,0.013989
10899,-3.627216,1.046266,-6.639121,0.020651,-0.010792,-0.002798
10914,-3.665523,0.737414,-6.670246,0.052626,-0.014655,-0.006129
10929,-3.758897,0.423774,-6.670246,0.030910,-0.006662,0.001599
10944,-3.828328,0.335188,-6.658275,-0.061819,0.028778,0.024914
10959,-3.653552,0.572214,-6.639121,-0.133364,0.050095,0.029044
10974,-3.600879,0.790087,-6.687005,-0.137361,0.079406,0.007328
10989,-3.574543,0.749385,-6.639121,-0.123639,0.085268,-0.008127
11004,-3.634398,1.120486,-6.603208,-0.057023,0.049828,-0.023182
11019,-3.713407,1.170765,-6.591237,0.059821,0.008660,-0.053026
11034,-3.821146,0.588974,-6.746861,0.065949,0.005063,-0.047830
11049,-3.823540,0.387861,-6.727706,0.005329,0.031975,-0.016121
11064,-3.761291,0.495600,-6.691793,-0.066349,0.043966,0.012923
11079,-3.464410,0.821211,-6.799533,-0.100190,0.031176,0.026913
11094,-3.457227,1.003170,-6.720524,-0.049962,0.010259,0.009459
11109,-3.749320,1.007959,-6.763620,0.016254,-0.025447,-0.018253
11124,-3.881001,0.840365,-6.675034,0.073410,-0.035972,-0.035972
11139,-3.732560,0.555455,-6.761226,0.061553,-0.020518,-0.035573
11154,-3.756502,0.490811,-6.670246,0.018119,0.000933,-0.018786
11169,-3.794810,0.421380,-6.761226,-0.031975,0.037172,-0.005596
11184,-3.687071,0.553061,-6.754043,-0.085534,0.052227,0.010925
11199,-3.548207,0.890643,-6.677428,-0.078207,0.041302,0.007594
11214,-3.667917,0.984017,-6.593631,-0.004130,0.020917,-0.013190
11229,-3.744531,0.782904,-6.691793,0.045832,0.002132,-0.032642
11244,-3.854665,0.531513,-6.660669,0.031176,0.031309,-0.027579
11259,-3.854665,0.342371,-6.569689,-0.046231,0.031975,0.005596
11274,-3.588908,0.579397,-6.543353,-0.109916,0.019185,0.033175
11289,-3.615244,0.811634,-6.564901,-0.086467,0.002798,0.025447
11304,-3.703830,0.835576,-6.720524,-0.026247,-0.001732,0.006795
11319,-3.672705,0.893037,-6.756437,0.023982,-0.009193,-0.006928
11334,-3.632004,0.612916,-6.552930,0.039303,-0.008660,-0.012790
11349,-3.768473,0.414197,-6.493075,-0.017587,0.003864,-0.003730
11364,-3.773262,0.514753,-6.579266,-0.085002,0.018386,0.009060
11379,-3.691859,0.849942,-6.564901,-0.083003,0.033041,0.001066
11394,-3.586514,0.754174,-6.440403,-0.073810,0.048096,-0.004530
11409,-3.634398,1.012747,-6.560112,-0.020518,0.030510,-0.017187
11424,-3.682282,0.869095,-6.749255,0.037038,0.015721,-0.030776
11439,-3.761291,0.677559,-6.603208,0.039836,0.027979,-0.019052
11454,-3.629610,0.560243,-6.651092,-0.002132,0.029044,0.006795
11469,-3.579331,0.555455,-6.588843,-0.066083,0.032375,0.028778
11484,-3.703830,0.711078,-6.720524,-0.098858,0.023182,0.036239
11499,-3.706224,0.849942,-6.720524,-0.076342,0.018386,0.018919
11514,-3.574543,0.864307,-6.768408,-0.039570,0.021583,-0.009726
11529,-3.598485,0.708684,-6.813898,-0.029044,0.013723,-0.031043
11544,-3.624821,0.598550,-6.694188,-0.040103,0.025047,-0.043833
11559,-3.785233,0.593762,-6.775591,-0.050228,0.033441,-0.053159
11574,-3.591302,0.766145,-6.497863,-0.071678,0.039170,-0.047164
11589,-3.648763,0.974440,-6.710947,-0.003864,0.025580,-0.064217
11604,-3.912126,0.699107,-6.761226,0.041968,0.031443,-0.063152
11619,-3.770868,0.617704,-6.785168,0.042368,0.028645,-0.048629
11634,-3.696647,0.531513,-6.749255,-0.003864,0.021983,-0.019718
11649,-3.493140,0.591368,-6.749255,-0.037838,0.014389,0.001199
11664,-3.677494,0.682347,-6.780379,-0.038237,0.003997,0.004930
11679,-3.842694,0.732626,-6.677428,-0.026380,-0.003198,-0.004397
11694,-3.732560,0.761356,-6.706159,-0.004130,0.003997,-0.016787
11709,-3.672705,0.567426,-6.691793,-0.004530,-0.008660,-0.020118
11724,-3.679888,0.435745,-6.675034,-0.037971,-0.000133,-0.006662
11739,-3.778050,0.536301,-6.631938,-0.055025,0.007727,-0.001066
11754,-3.639187,0.677559,-6.569689,-0.066216,0.017320,-0.003597
11769,-3.564966,0.845153,-6.531382,-0.044632,0.057289,-0.008394
11784,-3.620033,0.981623,-6.514623,0.018786,0.065683,-0.030377
11799,-3.555389,0.835576,-6.567295,0.081804,0.044499,-0.048096
11814,-3.552995,0.579397,-6.761226,0.082470,0.035173,-0.045832
11829,-3.502717,0.402226,-6.687005,0.041302,0.023315,-0.032508
11844,-3.612850,0.402226,-6.689399,-0.025447,0.013323,-0.016121
11859,-3.742137,0.488417,-6.773197,-0.057289,0.015855,-0.009193
11874,-3.758897,0.634463,-6.687005,-0.060487,-0.002398,-0.006928
11889,-3.658340,0.687136,-6.653486,-0.039037,-0.006395,-0.018519
11904,-3.706224,0.557849,-6.766014,-0.012257,-0.009726,-0.016254
11919,-3.835511,0.392649,-6.754043,-0.048363,-0.006395,-0.000799
11934,-3.864241,0.500388,-6.665457,-0.084069,0.028911,0.011858
11949,-3.658340,0.689530,-6.639121,-0.095394,0.056224,0.012657
11964,-3.562572,0.653617,-6.543353,-0.080072,0.063818,0.008926
11979,-3.495534,0.794875,-6.655880,-0.059155,0.058089,-0.003198
11994,-3.612850,0.878672,-6.694188,0.021450,0.028378,-0.037038
12009,-3.600879,0.782904,-6.732495,0.081005,0.020917,-0.060487
12024,-3.627216,0.256180,-6.658275,0.053159,0.034374,-0.055957
12039,-3.828328,0.186748,-6.612785,-0.034507,0.067815,-0.015988
12054,-3.864241,0.397437,-6.737284,-0.093795,0.055291,0.025047
12069,-3.588908,0.823605,-6.746861,-0.070213,0.037838,0.036372
12084,-3.634398,0.960075,-6.672640,0.005462,0.003864,0.032242
12099,-3.608062,0.780510,-6.770802,0.084868,-0.052093,0.021317
12114,-3.782839,0.399832,-6.715735,0.079939,-0.050761,0.024248
12129,-3.780444,0.318429,-6.713341,-0.001599,-0.037838,0.035706
12144,-3.629610,0.483629,-6.708553,-0.072478,0.007594,0.033041
12159,-3.617639,0.644040,-6.725312,-0.091930,0.042234,0.006262
12174,-3.622427,0.651223,-6.627150,-0.079672,0.065017,-0.027179
12189,-3.505111,0.715866,-6.562507,-0.057289,0.067015,-0.043567
12204,-3.567360,0.632069,-6.651092,0.000666,0.050095,-0.054092
12219,-3.655946,0.524330,-6.588843,-0.002132,0.028112,-0.029044
12234,-3.639187,0.577003,-6.756437,0.005995,0.037438,0.000133
12249,-3.751714,0.462081,-6.619967,0.014789,0.050628,0.022250
12264,-3.598485,0.567426,-6.710947,-0.003597,0.029977,0.045565
12279,-3.627216,0.596156,-6.751649,0.007328,0.006528,0.041835
12294,-3.600879,0.500388,-6.849811,-0.008260,-0.011991,0.039303
12309,-3.670311,0.454898,-6.761226,-0.022383,-0.020784,0.024381
12324,-3.562572,0.526724,-6.552930,-0.044899,-0.025980,0.011458
12339,-3.706224,0.490811,-6.540959,-0.081538,0.017453,-0.000266
12354,-3.732560,0.591368,-6.564901,-0.082337,0.056623,-0.014922
12369,-3.770868,0.579397,-6.531382,-0.075409,0.094461,-0.016121
12384,-3.543418,0.610521,-6.643909,-0.062352,0.121107,-0.013456
12399,-3.457227,0.646434,-6.818686,-0.032109,0.101789,-0.004530
12414,-3.497929,0.603339,-6.763620,0.013057,0.067282,-0.004397
12429,-3.567360,0.509965,-6.746861,0.006928,0.026779,0.010925
12444,-3.541024,0.426168,-6.708553,-0.008793,0.018119,0.018519
12459,-3.574543,0.512359,-6.607996,-0.066616,0.036639,0.032508
12474,-3.512294,0.627281,-6.598420,-0.116577,0.038770,0.044100
12489,-3.718195,0.969652,-6.687005,-0.079406,0.016387,0.022783
12504,-3.651158,1.230620,-6.730101,0.034240,0.016920,-0.027712
12519,-3.543418,0.754174,-6.904878,0.117910,-0.007861,-0.064084
12534,-3.672705,0.256180,-6.897695,0.088199,-0.002665,-0.053559
12549,-3.778050,0.110133,-6.876147,-0.014123,0.020784,-0.019052
12564,-3.646369,0.299275,-6.710947,-0.086867,0.042501,0.010792
12579,-3.550601,0.577003,-6.758832,-0.112314,0.061819,0.024115
12594,-3.481169,0.933739,-6.792350,-0.094194,0.059421,0.022383
12609,-3.548207,0.909797,-6.864176,0.004397,0.042900,-0.006662
12624,-3.608062,0.864307,-6.775591,0.056090,0.021450,-0.023449
12639,-3.564966,0.775721,-6.830657,0.111515,0.006528,-0.054625
12654,-3.555389,0.272939,-6.828263,0.062752,0.022783,-0.054492
12669,-3.739743,0.205901,-6.787562,-0.048230,0.028245,-0.041968
12684,-3.730166,0.584185,-6.722918,-0.101256,0.024781,-0.027312
12699,-3.533842,0.804452,-6.797139,-0.069280,-0.018119,-0.031576
12714,-3.708618,0.952892,-6.828263,0.036772,-0.066616,-0.054758
12729,-3.548207,0.725443,-6.754043,0.123772,-0.113513,-0.068348
12744,-3.579331,0.361524,-6.670246,0.101389,-0.094594,-0.043034
12759,-3.699042,0.105345,-6.653486,0.007461,-0.053159,-0.014522
12774,-3.706224,0.143652,-6.687005,-0.095260,0.004397,0.007861
12789,-3.608062,0.450110,-6.517017,-0.157746,0.063685,0.003864
12804,-3.452439,0.617704,-6.634333,-0.161077,0.098991,-0.008127
12819,-3.421314,1.130063,-6.696582,-0.071145,0.063285,-0.040103
12834,-3.689465,0.967257,-6.655880,0.069014,0.031576,-0.091930
12849,-3.744531,0.574608,-6.698976,0.109250,0.022783,-0.106185
12864,-3.715801,0.124498,-6.691793,0.056090,0.031443,-0.088199
12879,-3.653552,-0.004788,-6.679822,-0.064484,0.061153,-0.042368
12894,-3.675100,0.136469,-6.687005,-0.153083,0.052893,0.002265
12909,-3.572149,0.462081,-6.610391,-0.162542,0.017320,0.022116
12924,-3.411737,0.866701,-6.698976,-0.092329,-0.014789,0.019319
12939,-3.572149,0.804452,-6.670246,0.028778,-0.042767,-0.007328
12954,-3.722984,0.409408,-6.593631,0.078340,-0.021051,-0.010792
12969,-3.785233,0.162806,-6.576872,0.030510,0.008260,0.001199
12984,-3.687071,0.256180,-6.579266,-0.020917,0.059688,0.006129
12999,-3.430891,0.328006,-6.607996,-0.069413,0.073677,0.014789
13014,-3.581726,0.581791,-6.655880,-0.044899,0.057956,-0.006795
13029,-3.689465,0.495600,-6.622362,0.006395,0.033708,-0.025580
13044,-3.713407,0.423774,-6.713341,0.008660,0.024914,-0.030910
13059,-3.665523,0.110133,-6.773197,-0.031443,0.028112,-0.014389
13074,-3.823540,0.167594,-6.708553,-0.096193,0.061020,0.023848
13089,-3.703830,0.282516,-6.799533,-0.133364,0.080605,0.059021
13104,-3.548207,0.581791,-6.651092,-0.134297,0.080205,0.089398
13119,-3.483563,0.854730,-6.856994,-0.056623,0.040369,0.088998
13134,-3.485958,0.897826,-6.892907,0.035972,0.014256,0.065283
13149,-3.533842,0.799663,-6.840234,0.123239,-0.041035,0.026779
13164,-3.529053,0.751779,-6.864176,0.164807,-0.053959,-0.018652
13179,-3.459621,0.435745,-6.833052,0.133098,-0.049029,-0.047830
13194,-3.490746,0.213084,-6.663063,0.038237,-0.018652,-0.053559
13209,-3.622427,0.079009,-6.641515,-0.053825,0.028245,-0.053026
13224,-3.667917,0.426168,-6.533776,-0.128435,0.069547,-0.046631
13239,-3.751714,0.622492,-6.631938,-0.115245,0.063551,-0.030910
13254,-3.581726,0.785298,-6.703764,-0.056757,0.086201,-0.016387
13269,-3.780444,0.519542,-6.852205,0.003730,0.132032,-0.001332
13284,-3.658340,0.184354,-6.732495,-0.022783,0.135496,0.047963
13299,-3.371036,0.330400,-6.696582,-0.078740,0.116577,0.083003
13314,-3.258508,0.531513,-6.801927,-0.108850,0.057289,0.088466
13329,-3.366247,0.718261,-6.859388,-0.070080,0.003730,0.053692
13344,-3.524265,0.828394,-6.914454,0.028511,-0.014256,0.001599
13359,-3.517082,0.541090,-6.818686,0.067149,-0.016920,-0.029311
13374,-3.519476,0.146046,-6.734890,0.015055,0.014655,-0.023715
13389,-3.574543,0.280122,-6.859388,-0.056357,0.029178,-0.013989
13404,-3.605668,0.196325,-6.768408,-0.098325,0.068348,0.002265
13419,-3.438074,0.359130,-6.730101,-0.130300,0.078074,0.015588
13434,-3.222595,0.696713,-6.823475,-0.116044,0.052360,0.025714
13449,-3.246537,1.041478,-6.914454,-0.002665,0.009859,-0.007727
13464,-3.545813,0.785298,-6.921637,0.109516,-0.013856,-0.036372
13479,-3.622427,0.502782,-6.624756,0.148686,-0.005063,-0.053692
13494,-3.591302,0.067038,-6.703764,0.063152,-0.002531,-0.034907
13509,-3.653552,0.069432,-6.804321,-0.051960,0.010525,-0.002798
13524,-3.636792,0.330400,-6.823475,-0.092063,0.002665,0.011191
13539,-3.591302,0.440533,-6.830657,-0.078074,-0.039570,0.013856
13554,-3.502717,0.486023,-6.698976,-0.036905,-0.070479,0.005462
13569,-3.569755,0.306458,-6.691793,-0.034107,-0.059554,0.011724
13584,-3.643975,0.325611,-6.622362,-0.050228,-0.021317,0.018253
13599,-3.608062,0.430956,-6.667851,-0.066616,0.039303,0.028245
13614,-3.500323,0.596156,-6.687005,-0.031176,0.075276,0.019452
13629,-3.428497,0.691924,-6.622362,0.008127,0.105519,-0.005329
13644,-3.567360,0.512359,-6.665457,0.031975,0.101655,-0.021983
13659,-3.646369,0.371101,-6.782773,0.024248,0.079672,-0.032375
13674,-3.526659,0.124498,-6.722918,-0.010525,0.035440,-0.029577
13689,-3.564966,0.155623,-6.811504,-0.092729,0.018786,0.002398
13704,-3.505111,0.457293,-6.868965,-0.126570,-0.019718,0.031443
13719,-3.548207,0.696713,-6.856994,-0.063551,-0.022250,0.032642
13734,-3.416526,0.826000,-6.809110,0.020518,-0.038904,0.029577
13749,-3.560178,0.569820,-6.828263,0.078074,-0.042767,0.024115
13764,-3.612850,0.196325,-6.713341,0.037038,-0.023049,0.037038
13779,-3.622427,0.141258,-6.823475,-0.055957,0.011991,0.046897
13794,-3.423708,0.366313,-6.677428,-0.129234,0.046498,0.040902
13809,-3.335123,0.646434,-6.689399,-0.118975,0.058622,-0.003464
13824,-3.433285,0.699107,-6.612785,-0.074743,0.099524,-0.046364
13839,-3.579331,0.869095,-6.866570,-0.015988,0.077274,-0.066749
13854,-3.447650,0.804452,-6.787562,0.083536,0.045432,-0.089931
13869,-3.450045,0.237026,-6.938396,0.075675,0.034640,-0.064351
13884,-3.574543,-0.114922,-6.837840,-0.019052,0.033574,-0.004796
13899,-3.639187,-0.011971,-6.739678,-0.145089,0.015055,0.057556
13914,-3.588908,0.438139,-6.727706,-0.208107,0.004796,0.087000
13929,-3.454833,0.885855,-6.749255,-0.132432,-0.003730,0.054358
13944,-3.457227,0.936133,-6.799533,-0.007861,-0.031443,0.014123
13959,-3.555389,0.715866,-6.821081,0.105386,-0.068747,-0.025580
13974,-3.507505,0.397437,-6.789956,0.111381,-0.060487,-0.028112
13989,-3.497929,0.189142,-6.770802,0.043833,-0.034240,-0.016387
14004,-3.457227,0.107739,-6.775591,-0.038104,0.018253,0.004397
14019,-3.651158,0.186748,-6.703764,-0.108317,0.080472,0.017720
14034,-3.485958,0.335188,-6.591237,-0.139493,0.091530,0.026113
14049,-3.421314,0.660800,-6.768408,-0.117510,0.097525,0.028778
14064,-3.371036,0.665588,-6.801927,-0.074743,0.099657,0.022116
14079,-3.500323,0.900220,-6.842628,0.003464,0.095394,0.000666
14094,-3.545813,0.514753,-6.856994,0.037571,0.075409,-0.007861
14109,-3.299210,0.536301,-6.789956,0.013456,0.039570,-0.000533
14124,-3.366247,0.454898,-6.816292,-0.023049,0.009726,0.000266
14139,-3.332729,0.512359,-6.828263,-0.048230,-0.011991,-0.001466
14154,-3.596091,0.651223,-6.856994,-0.025314,-0.040369,-0.019985
14169,-3.414132,0.553061,-6.823475,0.017853,-0.048496,-0.037438
14184,-3.502717,0.428562,-6.691793,0.025847,-0.016654,-0.039969
14199,-3.608062,0.265756,-6.768408,-0.007594,0.026247,-0.032375
14214,-3.624821,0.311246,-6.732495,-0.050095,0.059554,-0.011991
14229,-3.485958,0.526724,-6.825869,-0.059821,0.074077,-0.005995
14244,-3.368642,0.509965,-6.782773,-0.057023,0.086467,-0.006928
14259,-3.423708,0.476446,-6.811504,-0.041835,0.072611,-0.012657
14274,-3.646369,0.332794,-6.979098,-0.048363,0.051960,-0.019985
14289,-3.452439,0.265756,-6.718130,-0.076608,0.024248,-0.019452
14304,-3.519476,0.299275,-6.830657,-0.136828,0.030377,-0.013456
14319,-3.462016,0.567426,-6.847417,-0.157613,0.017853,0.010525
14334,-3.361459,0.878672,-6.821081,-0.057423,-0.006262,-0.005462
14349,-3.426103,0.916979,-6.892907,0.072478,-0.047430,-0.028245
14364,-3.387795,0.577003,-6.909666,0.149752,-0.094861,-0.036372
14379,-3.572149,0.134075,-6.895301,0.111381,-0.101789,-0.022116
14394,-3.670311,-0.141258,-6.837840,-0.007994,-0.057556,0.004130
14409,-3.749320,0.110133,-6.849811,-0.117243,-0.012657,0.019985
14424,-3.526659,0.383072,-6.634333,-0.150818,0.028511,0.001865
14439,-3.430891,0.562637,-6.651092,-0.139493,0.055824,-0.017187
14454,-3.591302,0.691924,-6.653486,-0.075542,0.045299,-0.039703
14469,-3.500323,0.675165,-6.744466,0.000799,0.027579,-0.044366
14484,-3.459621,0.454898,-6.962338,0.045432,0.012657,-0.041302
14499,-3.466804,0.076614,-6.777985,-0.006528,0.025047,-0.009992
14514,-3.524265,0.064643,-6.758832,-0.099790,0.035440,0.030510
14529,-3.620033,0.344765,-6.557718,-0.158545,0.045432,0.050228
14544,-3.464410,0.806846,-6.617573,-0.124038,0.024781,0.036239
14559,-3.394978,0.948104,-6.787562,-0.010525,-0.001998,0.002798
14574,-3.394978,0.670376,-6.761226,0.088998,-0.037838,-0.031576
14589,-3.514688,0.268151,-6.754043,0.096459,-0.053426,-0.019851
14604,-3.483563,0.062249,-6.708553,0.001865,-0.028511,0.016121
14619,-3.490746,0.241814,-6.658275,-0.086467,0.008394,0.035440
14634,-3.667917,0.418985,-6.658275,-0.114179,0.085002,0.030377
14649,-3.495534,0.536301,-6.567295,-0.117377,0.110982,0.025714
14664,-3.450045,0.691924,-6.768408,-0.041968,0.088199,0.006528
14679,-3.366247,0.474052,-6.804321,-0.024115,0.050095,0.010925
14694,-3.476381,0.313640,-6.852205,-0.060753,0.024115,0.030643
14709,-3.509900,0.426168,-6.756437,-0.107251,0.032109,0.054758
14724,-3.567360,0.761356,-6.775591,-0.088466,0.037172,0.060887
14739,-3.505111,0.940921,-6.940791,-0.013323,0.024381,0.036639
14754,-3.471592,0.818817,-6.950367,0.057289,0.000533,0.009326
14769,-3.552995,0.526724,-6.892907,0.080072,-0.025314,-0.002398
14784,-3.564966,0.395043,-6.926425,0.045965,-0.024914,-0.003064
14799,-3.538630,0.272939,-6.749255,-0.018386,-0.006928,0.001066
14814,-3.603273,0.397437,-6.792350,-0.074343,0.028911,-0.003198
14829,-3.641581,0.373495,-6.797139,-0.105652,0.054092,-0.011058
14844,-3.466804,0.519542,-6.830657,-0.101522,0.066882,-0.018253
14859,-3.383007,0.727837,-6.876147,-0.066882,0.043167,-0.012790
14874,-3.390190,0.567426,-6.914454,-0.023848,0.009593,-0.011325
14889,-3.483563,0.471658,-6.943185,-0.020384,-0.005063,0.003198
14904,-3.610456,0.562637,-6.837840,-0.026646,-0.022916,0.012923
14919,-3.509900,0.577003,-6.971915,-0.033574,-0.033574,0.012124
14934,-3.500323,0.644040,-6.883330,-0.027979,-0.042368,0.001466
14949,-3.552995,0.533907,-6.971915,-0.013856,-0.042234,-0.011458
14964,-3.512294,0.421380,-6.933608,-0.026247,-0.037704,-0.007994
14979,-3.306392,0.407014,-6.804321,-0.062219,-0.027046,0.002531
14994,-3.344700,0.507571,-6.694188,-0.096326,-0.015588,0.005329
15009,-3.375824,0.605733,-6.643909,-0.099790,-0.008260,-0.006262
15024,-3.658340,0.617704,-6.670246,-0.080205,0.021850,-0.023848
15039,-3.485958,0.660800,-6.562507,-0.066616,0.025714,-0.034773
15054,-3.337517,0.651223,-6.672640,-0.057023,0.015988,-0.032775
15069,-3.462016,0.696713,-6.756437,-0.033441,-0.028511,-0.028112
15084,-3.531447,0.629675,-6.758832,-0.032775,-0.037971,-0.023582
15099,-3.584120,0.481235,-6.701370,-0.030776,-0.016654,-0.022916
15114,-3.742137,0.632069,-6.619967,-0.020917,-0.019718,-0.031842
15129,-3.493140,0.349553,-6.770802,-0.074876,-0.002265,-0.023848
15144,-3.521871,0.486023,-6.643909,-0.090997,0.027712,-0.022250
15159,-3.593697,0.735020,-6.540959,-0.076741,0.038104,-0.035706
15174,-3.529053,0.809240,-6.540959,-0.017453,0.017853,-0.056490
15189,-3.562572,0.627281,-6.567295,0.024115,0.024914,-0.061953
15204,-3.689465,0.375890,-6.751649,-0.004530,0.025047,-0.034240
15219,-3.588908,0.296881,-6.868965,-0.061686,-0.004530,0.000266
15234,-3.608062,0.416591,-6.811504,-0.098058,-0.011858,0.022916
15249,-3.519476,0.457293,-6.777985,-0.140159,-0.013989,0.029977
15264,-3.596091,0.474052,-6.722918,-0.162142,-0.023449,0.021450
15279,-3.550601,0.584185,-6.756437,-0.171602,-0.016121,-0.000533
15294,-3.471592,0.713472,-6.696582,-0.146288,0.004796,-0.029311
15309,-3.497929,0.869095,-6.696582,-0.110449,0.042501,-0.052493
15324,-3.579331,0.916979,-6.627150,-0.044233,0.026513,-0.056490
15339,-3.667917,0.790087,-6.703764,0.054625,0.016254,-0.075142
15354,-3.730166,0.474052,-6.696582,0.056890,0.009593,-0.061020
15369,-3.658340,0.201113,-6.605602,-0.019185,-0.001199,-0.014389
15384,-3.617639,0.280122,-6.725312,-0.109250,0.022516,0.027446
15399,-3.612850,0.565032,-6.651092,-0.144023,0.037172,0.036239
15414,-3.418920,0.754174,-6.670246,-0.140959,0.040236,0.019585
15429,-3.371036,0.799663,-6.751649,-0.126037,0.056090,-0.003730
15444,-3.289633,0.792481,-6.689399,-0.094328,0.056623,-0.034107
15459,-3.471592,0.826000,-6.653486,-0.074343,0.036905,-0.040103
15474,-3.481169,0.900220,-6.665457,-0.007594,0.017320,-0.061953
15489,-3.560178,0.823605,-6.670246,0.028378,0.011724,-0.056890
15504,-3.672705,0.500388,-6.576872,0.047963,0.021450,-0.053159
15519,-3.837905,0.330400,-6.684611,-0.016920,0.063551,-0.015988
15534,-3.701436,0.301669,-6.737284,-0.081937,0.080205,0.014522
15549,-3.541024,0.560243,-6.895301,-0.141092,0.082070,0.036239
15564,-3.347094,1.003170,-6.825869,-0.118576,0.050894,0.022649
15579,-3.430891,1.017536,-6.816292,-0.050761,0.015988,-0.017853
15594,-3.349488,0.881066,-6.605602,0.002132,-0.003597,-0.051827
15609,-3.287239,0.780510,-6.610391,-0.006795,0.011058,-0.069813
15624,-3.481169,0.533907,-6.557718,-0.047430,0.031443,-0.070213
15639,-3.727772,0.651223,-6.667851,-0.093795,0.060753,-0.057556
15654,-3.658340,0.682347,-6.605602,-0.097792,0.085534,-0.049828
15669,-3.469198,0.778116,-6.758832,-0.065816,0.095660,-0.044233
15684,-3.368642,0.677559,-6.914454,-0.042101,0.069147,-0.021583
15699,-3.485958,0.591368,-6.957550,-0.026913,0.027579,-0.003064
15714,-3.665523,0.418985,-6.873753,-0.040236,0.009593,0.019319
15729,-3.660734,0.481235,-6.880936,-0.065283,0.012657,0.028378
15744,-3.672705,0.574608,-6.878541,-0.085268,0.036905,0.024381
15759,-3.552995,0.600945,-6.842628,-0.100190,0.053026,0.016521
15774,-3.579331,0.627281,-6.895301,-0.099657,0.048763,0.007727
15789,-3.435679,0.754174,-6.943185,-0.062885,0.025181,0.004130
15804,-3.375824,0.749385,-6.830657,-0.008926,-0.002398,-0.007328
15819,-3.521871,0.521936,-6.742072,0.002398,-0.017320,0.002798
15834,-3.658340,0.433351,-6.849811,-0.024648,-0.017054,0.033308
15849,-3.507505,0.543484,-6.634333,-0.044499,-0.020384,0.061153
15864,-3.438074,0.766145,-6.581660,-0.055557,-0.002931,0.071279
15879,-3.275268,0.914585,-6.612785,-0.035306,0.012391,0.063418
15894,-3.394978,0.948104,-6.596025,0.004263,0.027979,0.035573
15909,-3.438074,0.823605,-6.600814,0.023982,0.050095,0.002132
15924,-3.330334,0.739808,-6.643909,0.015721,0.056224,-0.028645
15939,-3.275268,0.651223,-6.684611,0.002531,0.056490,-0.050095
15954,-3.385401,0.562637,-6.742072,-0.024248,0.034907,-0.051694
15969,-3.624821,0.572214,-6.718130,-0.035706,0.050495,-0.055291
15984,-3.495534,0.567426,-6.809110,-0.039170,0.040502,-0.035173
15999,-3.541024,0.565032,-6.672640,-0.049296,0.045299,-0.007994
16014,-3.574543,0.656011,-6.809110,-0.035839,0.059288,0.023848
16029,-3.538630,0.694318,-6.821081,-0.008793,0.045432,0.031709
16044,-3.433285,0.639252,-6.732495,-0.018386,0.044632,0.043300
16059,-3.363853,0.634463,-6.689399,-0.053825,0.037172,0.042634
16074,-3.574543,0.682347,-6.701370,-0.080472,0.047697,0.034907
16089,-3.478775,0.857124,-6.816292,-0.057822,0.031709,0.004663
16104,-3.471592,0.775721,-6.830657,-0.038104,0.036639,-0.013590
16119,-3.373430,0.799663,-6.916849,-0.025181,0.035306,-0.017187
16134,-3.438074,0.560243,-6.916849,-0.032242,0.040502,0.001066
16149,-3.502717,0.562637,-6.852205,-0.046631,0.033841,0.026646
16164,-3.454833,0.780510,-6.859388,-0.052760,0.030243,0.048629
16179,-3.414132,0.809240,-6.888118,-0.036505,0.036505,0.048629
16194,-3.428497,0.842759,-6.799533,-0.023982,0.032375,0.041435
16209,-3.485958,0.857124,-6.749255,0.000933,0.039969,0.017320
16224,-3.447650,0.732626,-6.852205,0.002265,0.035573,-0.009193
16239,-3.308787,0.667982,-6.926425,-0.012124,0.019052,-0.025181
16254,-3.469198,0.545878,-6.876147,-0.023715,0.017587,-0.036106
16269,-3.390190,0.665588,-6.727706,-0.043433,0.012657,-0.036372
16284,-3.392584,0.691924,-6.837840,-0.052360,0.005462,-0.028511
16299,-3.426103,0.751779,-6.859388,-0.024914,0.003064,-0.013723
16314,-3.469198,0.682347,-6.864176,-0.016387,0.004263,0.000799
16329,-3.308787,0.629675,-6.754043,-0.035573,0.005729,0.018919
16344,-3.318363,0.766145,-6.777985,-0.046098,0.013856,0.030110
16359,-3.426103,0.732626,-6.667851,-0.036505,0.025314,0.020251
16374,-3.421314,0.756568,-6.746861,-0.017587,0.039570,0.001599
16389,-3.457227,0.758962,-6.725312,-0.006528,0.053959,-0.019452
16404,-3.394978,0.600945,-6.770802,-0.009593,0.057289,-0.028645
16419,-3.457227,0.524330,-6.722918,-0.045832,0.052626,-0.011458
16434,-3.488352,0.634463,-6.754043,-0.063285,0.030377,0.000133
16449,-3.383007,0.670376,-6.821081,-0.066083,0.009193,0.009859
16464,-3.311181,0.708684,-6.983886,-0.049429,-0.001066,0.010658
16479,-3.375824,0.591368,-6.859388,-0.060087,0.001332,0.014655
16494,-3.462016,0.577003,-6.897695,-0.091663,0.009726,0.023449
16509,-3.359065,0.749385,-6.691793,-0.104853,0.011191,0.025047
16524,-3.284845,0.873884,-6.598420,-0.083003,0.016654,0.015322
16539,-3.411737,0.900220,-6.651092,-0.050894,0.020917,-0.002665
16554,-3.639187,0.921768,-6.667851,0.000533,0.049828,-0.024781
16569,-3.459621,0.821211,-6.813898,0.035972,0.064617,-0.028112
16584,-3.347094,0.713472,-6.926425,0.033175,0.055158,-0.015188
16599,-3.270479,0.550666,-6.871359,-0.000666,0.034640,0.008793
16614,-3.306392,0.533907,-6.830657,-0.051028,0.011458,0.034907
16629,-3.433285,0.727837,-6.813898,-0.070346,0.010259,0.037038
16644,-3.416526,0.921768,-6.797139,-0.038237,0.010925,0.023049
16659,-3.349488,0.919373,-6.804321,0.005329,0.020917,-0.007461
16674,-3.418920,0.713472,-6.787562,0.025580,0.037172,-0.024914
16689,-3.375824,0.596156,-6.789956,0.012391,0.036372,-0.027845
16704,-3.416526,0.608127,-6.864176,-0.007328,0.049029,-0.020251
16719,-3.320758,0.735020,-6.837840,-0.010658,0.026913,-0.009992
16734,-3.339911,0.474052,-6.900089,-0.022383,0.031443,-0.005596
16749,-3.320758,0.529119,-6.864176,-0.055158,0.012391,0.016787
16764,-3.438074,0.689530,-6.770802,-0.069014,-0.001466,0.027579
16779,-3.433285,0.763750,-6.708553,-0.066083,0.003730,0.037971
16794,-3.464410,0.916979,-6.720524,-0.021717,0.007194,0.031975
16809,-3.481169,0.809240,-6.653486,0.016254,0.006528,0.028112
16824,-3.390190,0.746991,-6.727706,0.041835,-0.000799,0.021583
16839,-3.287239,0.648829,-6.833052,0.024781,-0.008127,0.025314
16854,-3.251326,0.490811,-6.775591,-0.019985,0.001066,0.034773
16869,-3.349488,0.593762,-6.864176,-0.059288,0.005995,0.038371
16884,-3.332729,0.754174,-6.698976,-0.087666,0.016521,0.034773
16899,-3.296816,0.770933,-6.687005,-0.108317,0.035706,0.031443
16914,-3.359065,0.948104,-6.732495,-0.091530,0.054358,0.017986
16929,-3.411737,0.981623,-6.789956,-0.051827,0.047564,0.004397
16944,-3.435679,1.065420,-6.861782,0.023049,0.034507,-0.022516
16959,-3.232172,0.799663,-6.902483,0.059155,0.015855,-0.035173
16974,-3.234566,0.670376,-6.833052,0.055824,-0.004263,-0.027312
16989,-3.593697,0.481235,-6.847417,0.023848,-0.002665,-0.019985
17004,-3.545813,0.548272,-6.981492,-0.019985,0.000933,0.000799
17019,-3.430891,0.682347,-7.062895,-0.013590,-0.013190,0.010392
17034,-3.325546,0.696713,-7.067683,-0.011325,-0.027712,0.016521
17049,-3.390190,0.612916,-6.926425,-0.029178,-0.032242,0.025714
17064,-3.402161,0.639252,-6.821081,-0.051560,-0.024248,0.025181
17079,-3.517082,0.804452,-6.672640,-0.074210,0.009060,0.014522
17094,-3.411737,0.797269,-6.665457,-0.076475,0.064484,0.001199
17109,-3.368642,0.849942,-6.698976,-0.050761,0.076475,-0.011058
17124,-3.351882,1.110910,-6.789956,-0.002531,0.074743,-0.029178
17139,-3.418920,1.079785,-6.756437,0.100323,0.039836,-0.062086
17154,-3.292027,0.658405,-6.873753,0.110315,-0.000666,-0.055424
17169,-3.454833,0.337582,-6.864176,0.040636,-0.030643,-0.025181
17184,-3.483563,0.268151,-6.698976,-0.063418,-0.042368,0.006928
17199,-3.392584,0.488417,-6.806715,-0.123106,-0.054092,0.027845
17214,-3.280056,0.787692,-6.763620,-0.129501,-0.037438,0.035839
17229,-3.524265,0.976834,-6.763620,-0.068881,-0.014256,0.013190
17244,-3.596091,0.735020,-6.648698,-0.029444,0.010126,0.002531
17259,-3.490746,0.641646,-6.773197,-0.044366,0.028645,0.007061
17274,-3.327940,0.636858,-6.713341,-0.083936,0.041168,0.022516
17289,-3.347094,0.799663,-6.677428,-0.087533,0.058622,0.016254
17304,-3.313575,0.852336,-6.744466,-0.065949,0.071945,0.004397
17319,-3.284845,1.046266,-6.813898,-0.004796,0.072078,-0.018919
17334,-3.292027,0.986411,-6.926425,0.063951,0.038637,-0.051294
17349,-3.320758,0.644040,-6.888118,0.060354,0.034374,-0.048096
17364,-3.277662,0.390255,-6.854599,-0.005995,0.007861,-0.027312
17379,-3.397372,0.514753,-6.895301,-0.076342,-0.010925,-0.002398
17394,-3.409343,0.742203,-6.938396,-0.070613,-0.030510,-0.006795
17409,-3.438074,0.797269,-6.847417,-0.040369,-0.016920,-0.015988
17424,-3.397372,0.761356,-6.895301,-0.000666,-0.033574,-0.021317
17439,-3.550601,0.653617,-6.825869,0.035706,-0.026113,-0.033041
17454,-3.433285,0.512359,-6.825869,0.033974,-0.019052,-0.029178
17469,-3.342305,0.351948,-6.847417,-0.019985,-0.001199,-0.013723
17484,-3.507505,0.380678,-6.766014,-0.071145,0.015855,-0.001865
17499,-3.490746,0.627281,-6.703764,-0.098325,0.048896,0.008660
17514,-3.306392,0.742203,-6.682217,-0.069680,0.035706,0.004130
17529,-3.383007,0.859518,-6.742072,-0.007328,0.037971,-0.015988
17544,-3.464410,0.725443,-6.744466,0.043700,0.021184,-0.036505
17559,-3.517082,0.428562,-6.749255,0.015455,0.015455,-0.024781
17574,-3.368642,0.545878,-6.830657,-0.024248,-0.006795,-0.001199
17589,-3.155558,0.577003,-6.801927,-0.052360,-0.029178,0.014922
17604,-3.308787,0.665588,-6.816292,-0.036106,-0.052893,0.017587
17619,-3.361459,0.653617,-6.725312,0.002798,-0.055557,0.004796
17634,-3.562572,0.529119,-6.682217,0.026513,-0.018253,-0.000266
17649,-3.639187,0.430956,-6.739678,0.004530,0.037838,0.009726
17664,-3.538630,0.423774,-6.679822,-0.039703,0.080072,0.031975
17679,-3.457227,0.565032,-6.713341,-0.074609,0.102588,0.046631
17694,-3.500323,0.706289,-6.679822,-0.080338,0.105253,0.053159
17709,-3.327940,0.945710,-6.670246,-0.041168,0.105519,0.041568
17724,-3.390190,1.036689,-6.730101,0.029444,0.078740,0.012657
17739,-3.430891,0.782904,-6.782773,0.076874,0.059821,-0.012524
17754,-3.459621,0.500388,-6.859388,0.050361,0.055424,-0.015188
17769,-3.296816,0.361524,-6.835446,-0.046631,0.045832,0.011858
17784,-3.198653,0.524330,-6.801927,-0.120841,0.028645,0.032908
17799,-3.380613,0.952892,-6.773197,-0.100723,0.002398,0.033175
17814,-3.495534,1.074997,-6.895301,-0.014389,-0.009326,0.012124
17829,-3.433285,1.041478,-6.924031,0.106585,-0.059821,-0.011724
17844,-3.423708,0.665588,-6.969521,0.132299,-0.068081,-0.011458
17859,-3.533842,0.227449,-6.974309,0.064617,-0.053825,0.011058
17874,-3.493140,0.177171,-6.864176,-0.055158,-0.015322,0.048896
17889,-3.397372,0.517148,-6.677428,-0.140559,0.034640,0.051560
17904,-3.356671,0.732626,-6.584054,-0.155614,0.078207,0.036905
17919,-3.478775,1.012747,-6.612785,-0.100590,0.087533,-0.002132
17934,-3.397372,0.809240,-6.816292,-0.043433,0.084469,-0.014789
17949,-3.394978,0.708684,-6.835446,-0.002931,0.071678,-0.027179
17964,-3.394978,0.390255,-6.811504,-0.021983,0.074876,-0.012790
17979,-3.306392,0.328006,-6.727706,-0.119775,0.079806,0.049828
17994,-3.327940,0.670376,-6.866570,-0.133764,0.038104,0.071945
18009,-3.260903,1.053449,-6.936002,-0.094727,0.019851,0.059821
18024,-3.078943,1.154005,-6.955156,0.012124,-0.021317,0.019585
18039,-3.308787,0.732626,-6.921637,0.082603,-0.022383,-0.024914
18054,-3.433285,0.435745,-6.818686,0.036505,0.007594,-0.031176
18069,-3.421314,0.284910,-6.734890,-0.057822,0.036639,-0.024648
18084,-3.277662,0.478840,-6.809110,-0.149885,0.069413,-0.012923
18099,-3.342305,0.780510,-6.763620,-0.133098,0.107917,-0.031576
18114,-3.359065,0.916979,-6.600814,-0.093662,0.109916,-0.034240
18129,-3.428497,1.058237,-6.737284,0.025447,0.068081,-0.056890
18144,-3.337517,0.603339,-6.797139,0.081005,0.056090,-0.051694
18159,-3.385401,0.280122,-6.749255,0.018652,0.051427,-0.014389
18174,-3.538630,0.153229,-6.854599,-0.095793,0.072211,0.047564
18189,-3.428497,0.694318,-6.847417,-0.148420,0.051694,0.077940
18204,-3.186682,1.003170,-6.821081,-0.107917,0.036905,0.068081
18219,-3.052607,1.225831,-6.859388,-0.001199,-0.012923,0.032908
18234,-3.138798,0.909797,-6.981492,0.068614,-0.035972,0.004530
18249,-3.303998,0.658405,-6.976704,0.080605,-0.040236,-0.011058
18264,-3.258508,0.486023,-6.940791,0.015188,-0.020384,-0.009992
18279,-3.406949,0.330400,-6.696582,-0.070746,0.025847,-0.008793
18294,-3.541024,0.574608,-6.775591,-0.153083,0.081937,-0.002132
18309,-3.337517,0.737414,-6.789956,-0.145622,0.131366,-0.005063
18324,-3.253720,1.070208,-6.878541,-0.096060,0.128568,-0.012923
18339,-3.021482,1.209072,-6.957550,0.021450,0.085002,-0.041968
18354,-3.289633,0.931344,-7.036559,0.095527,0.040369,-0.049828
18369,-3.430891,0.296881,-7.015011,0.056757,0.023982,-0.037571
18384,-3.272874,0.347159,-6.962338,-0.062352,0.041968,0.013323
18399,-3.193865,0.605733,-6.928820,-0.120041,0.027579,0.031043
18414,-3.155558,0.964863,-6.983886,-0.102588,-0.003064,0.025447
18429,-3.239355,1.029507,-7.003040,0.014256,-0.037704,-0.013323
18444,-3.318363,0.845153,-6.986280,0.102721,-0.071678,-0.036372
18459,-3.270479,0.402226,-7.026982,0.093928,-0.061420,-0.032642
18474,-3.177106,0.177171,-6.909666,0.001998,-0.039836,-0.004530
18489,-3.311181,0.294487,-6.840234,-0.094861,-0.007994,0.023049
18504,-3.248932,0.598550,-6.670246,-0.144822,0.026913,0.028511
18519,-3.122039,1.063026,-6.586449,-0.113513,0.069413,0.004397
18534,-3.145981,1.175553,-6.593631,-0.016920,0.079539,-0.041701
18549,-3.378219,0.933739,-6.847417,0.083669,0.081937,-0.077008
18564,-3.375824,0.505177,-6.931214,0.100456,0.073410,-0.091930
18579,-3.315969,0.112527,-6.921637,-0.013590,0.069014,-0.050095
18594,-3.124433,0.160412,-6.780379,-0.151084,0.093395,0.002798
18609,-3.287239,0.610521,-6.749255,-0.185724,0.029178,0.037838
18624,-3.268085,1.034295,-6.864176,-0.118309,-0.022649,0.032508
18639,-3.275268,1.319205,-6.744466,0.053026,-0.058089,0.000666
18654,-3.308787,0.715866,-6.856994,0.170536,-0.073410,-0.019452
18669,-3.404555,0.189142,-6.847417,0.102455,-0.035972,0.014389
18684,-3.428497,0.158017,-6.789956,-0.013989,0.001732,0.048629
18699,-3.248932,0.440533,-6.849811,-0.125104,0.040236,0.067948
18714,-3.052607,0.804452,-6.818686,-0.157879,0.092729,0.050894
18729,-3.215413,0.979228,-6.804321,-0.135496,0.102055,0.019851
18744,-3.203442,1.094150,-6.761226,-0.055691,0.079806,-0.020651
18759,-3.169923,0.878672,-6.816292,0.020784,0.037438,-0.053159
18774,-3.205836,0.512359,-6.871359,0.016654,0.029844,-0.046764
18789,-3.363853,0.244209,-6.871359,-0.048763,0.054358,-0.004663
18804,-3.315969,0.452504,-6.667851,-0.115245,0.035706,0.045432
18819,-3.418920,0.916979,-6.749255,-0.094727,0.024781,0.051694
18834,-3.191471,1.137246,-6.878541,0.014655,0.005596,0.032508
18849,-3.248932,0.852336,-6.866570,0.112047,-0.028911,0.003464
18864,-3.294421,0.529119,-6.981492,0.096593,-0.020118,-0.000933
18879,-3.236961,0.347159,-6.924031,0.032775,-0.009193,0.005995
18894,-3.155558,0.423774,-6.986280,-0.044899,0.017187,0.002798
18909,-3.371036,0.328006,-6.916849,-0.117377,0.062752,-0.004530
18924,-3.450045,0.586579,-6.775591,-0.171202,0.106185,0.009859
18939,-3.165135,1.043872,-6.797139,-0.100190,0.103654,-0.011991
18954,-3.227384,0.928950,-6.945579,0.003464,0.079139,-0.015322
18969,-3.117250,0.778116,-7.010222,0.042634,0.012257,0.005063
18984,-3.198653,0.562637,-6.938396,0.039570,0.015455,0.023715
18999,-3.335123,0.426168,-6.864176,-0.026380,0.032642,0.057556
19014,-3.268085,0.644040,-6.777985,-0.093795,0.042501,0.068614
19029,-3.157952,0.969652,-6.943185,-0.091530,0.022250,0.041701
19044,-3.136404,1.091756,-7.003040,0.012257,-0.026247,-0.010792
19059,-3.177106,0.837971,-7.019799,0.066083,-0.077008,-0.032642
19074,-3.129222,0.634463,-6.943185,0.098058,-0.114712,-0.048230
19089,-3.210624,0.407014,-6.833052,0.058755,-0.110715,-0.036106
19104,-3.462016,0.280122,-6.801927,-0.010392,-0.045165,-0.011724
19119,-3.552995,0.483629,-6.758832,-0.044766,0.030643,0.001332
19134,-3.313575,0.634463,-6.770802,-0.068614,0.092995,0.015188
19149,-3.186682,0.804452,-6.787562,-0.044366,0.110315,0.021184
19164,-3.155558,0.804452,-6.928820,-0.018786,0.105786,0.020651
19179,-3.306392,0.586579,-6.890512,-0.010525,0.120841,0.006662
19194,-3.280056,0.375890,-6.854599,-0.060487,0.110982,0.010792
19209,-3.019088,0.442927,-6.816292,-0.155081,0.079939,0.035573
19224,-3.150769,0.864307,-6.785168,-0.151617,0.033708,0.030776
19239,-3.169923,1.307234,-7.019799,-0.028112,-0.050495,0.005063
19254,-3.258508,1.132457,-6.919243,0.156147,-0.084469,-0.041568
19269,-3.349488,0.538695,-6.916849,0.192519,-0.070213,-0.042767
19284,-3.339911,0.126893,-6.818686,0.084602,-0.041435,-0.006262
19299,-3.363853,0.131681,-6.825869,-0.061153,0.021051,0.039037
19314,-3.263297,0.519542,-6.888118,-0.142424,0.082337,0.056890
19329,-2.983175,0.955286,-6.921637,-0.151217,0.109383,0.045565
19344,-2.949656,1.046266,-7.003040,-0.066749,0.085401,0.009992
19359,-3.157952,0.907402,-6.993463,-0.009193,0.046631,-0.027845
19374,-3.311181,0.538695,-7.005434,0.004663,0.006129,-0.043833
19389,-3.181894,0.397437,-7.012617,-0.037971,-0.019985,-0.027712
19404,-3.284845,0.392649,-6.895301,-0.116577,-0.025580,0.009593
19419,-3.301604,0.620098,-6.751649,-0.119775,-0.032508,0.027312
19434,-3.361459,0.957681,-6.816292,-0.070080,-0.029711,0.022916
19449,-3.253720,0.962469,-6.828263,0.008260,0.002132,0.011191
19464,-3.289633,0.663194,-6.854599,0.022649,0.038904,0.010658
19479,-3.155558,0.605733,-6.921637,-0.015322,0.054358,0.014256
19494,-3.081337,0.572214,-7.043741,-0.061153,0.063818,0.002665
19509,-3.043030,0.778116,-6.904878,-0.079539,0.055557,-0.010392
19524,-3.014300,0.790087,-6.955156,-0.035972,0.022116,-0.044499
19539,-3.227384,0.675165,-6.976704,0.000666,0.003331,-0.065683
19554,-3.423708,0.351948,-6.964733,0.002665,0.009193,-0.051694
19569,-3.399766,0.124498,-6.833052,-0.106185,0.037038,0.007461
19584,-3.208230,0.588974,-6.837840,-0.186790,0.044100,0.066882
19599,-3.102885,1.024718,-6.854599,-0.134963,0.018119,0.069280
19614,-3.165135,1.237802,-6.840234,-0.022383,0.007194,0.032109
19629,-3.138798,1.072602,-6.852205,0.091930,-0.017453,-0.016521
19644,-3.102885,0.574608,-6.928820,0.116444,-0.025847,-0.032642
19659,-3.165135,0.256180,-6.873753,0.044766,-0.001732,-0.020384
19674,-3.292027,0.141258,-6.883330,-0.071412,0.033041,0.003198
19689,-3.145981,0.682347,-6.842628,-0.132032,0.051694,0.013723
19704,-3.047819,0.984017,-6.866570,-0.080871,0.035040,0.001599
19719,-3.117250,0.869095,-6.708553,-0.007194,0.047297,-0.011724
19734,-3.423708,0.675165,-6.866570,0.020384,0.051827,-0.010925
19749,-3.462016,0.428562,-6.789956,-0.020384,0.043700,0.005462
19764,-3.248932,0.493206,-6.749255,-0.071678,0.058888,0.021184
19779,-3.083732,0.644040,-6.876147,-0.108983,0.048496,0.035040
19794,-3.172317,0.909797,-6.895301,-0.049562,0.015455,0.017054
19809,-3.222595,0.806846,-6.892907,0.011724,-0.010792,-0.004930
19824,-3.244143,0.670376,-6.912060,0.029178,-0.010259,-0.004263
19839,-3.311181,0.442927,-6.885724,-0.018253,0.011724,0.024781
19854,-3.150769,0.622492,-6.895301,-0.085401,0.040902,0.050894
19869,-3.045424,0.869095,-6.854599,-0.096060,0.072078,0.049562
19884,-2.992752,1.074997,-6.682217,-0.072345,0.072611,0.029844
19899,-3.052607,1.173159,-6.730101,-0.025714,0.083270,-0.008793
19914,-3.323152,1.110910,-6.928820,0.082070,0.082337,-0.060221
19929,-3.292027,0.490811,-6.955156,0.060087,0.047564,-0.063951
19944,-3.169923,0.316035,-7.055712,-0.049029,0.057689,-0.026513
19959,-3.306392,0.545878,-7.053318,-0.084868,0.017453,-0.009726
19974,-3.220201,0.689530,-7.098808,-0.083270,-0.014256,-0.000400
19989,-3.119645,0.861913,-6.983886,-0.060887,-0.032508,0.004930
20004,-3.177106,0.763750,-6.880936,-0.019452,-0.029577,0.009193
20019,-3.234566,0.928950,-6.816292,0.020917,-0.002132,-0.006129
20034,-3.203442,0.751779,-6.890512,0.034240,0.026247,-0.023982
20049,-3.143587,0.572214,-6.979098,0.003730,0.056623,-0.028778
20064,-2.954445,0.600945,-6.983886,-0.024248,0.039170,-0.032775
20079,-2.894590,0.644040,-6.993463,-0.048629,-0.017720,-0.027446
20094,-3.165135,0.663194,-6.983886,-0.001332,-0.022916,-0.042234
20109,-3.239355,0.524330,-6.919243,-0.008394,-0.040902,-0.033041
20124,-3.296816,0.296881,-6.821081,-0.061553,-0.039303,-0.005862
20139,-3.248932,0.665588,-6.837840,-0.081671,-0.025980,0.020118
20154,-3.277662,0.835576,-6.775591,-0.032508,-0.018253,0.019718
20169,-3.088520,0.938527,-6.878541,0.050495,-0.038371,0.001066
20184,-3.076549,0.804452,-6.845023,0.090864,-0.024648,-0.017187
20199,-3.105279,0.471658,-6.849811,0.063418,-0.006662,-0.017587
20214,-3.229778,0.220267,-6.979098,-0.021583,0.024248,-0.006928
20229,-3.157952,0.344765,-6.940791,-0.109516,0.047830,0.001865
20244,-3.107674,0.632069,-6.924031,-0.135763,0.069413,-0.006262
20259,-3.011906,0.809240,-6.866570,-0.097126,0.050228,-0.015855
20274,-3.189077,1.074997,-6.854599,0.002531,-0.009726,-0.028245
20289,-3.315969,0.720655,-6.950367,0.077141,-0.024248,-0.038371
20304,-3.399766,0.526724,-6.890512,0.074077,-0.015455,-0.020251
20319,-3.303998,0.119710,-6.682217,-0.016920,0.004263,0.024381
20334,-3.148375,0.308852,-6.766014,-0.156680,0.037704,0.075142
20349,-3.124433,0.897826,-6.797139,-0.168271,0.018253,0.073011
20364,-2.995146,1.235408,-6.761226,-0.047963,0.007328,0.015855
20379,-3.189077,1.158794,-6.921637,0.091930,0.002265,-0.047430
20394,-3.292027,0.658405,-6.921637,0.136029,-0.023982,-0.067548
20409,-3.296816,0.304064,-7.031770,0.093928,-0.024781,-0.055691
20424,-3.193865,0.248997,-7.048530,0.005063,-0.017453,-0.021583
20439,-3.088520,0.296881,-6.974309,-0.078606,0.011858,0.013590
20454,-3.196259,0.565032,-6.758832,-0.108450,0.014522,0.029977
20469,-3.342305,0.857124,-6.682217,-0.070080,0.016654,0.022383
20484,-3.380613,0.859518,-6.775591,0.009593,0.051161,-0.009726
20499,-3.373430,0.708684,-6.878541,0.032508,0.062219,-0.024515
20514,-3.351882,0.208296,-6.866570,-0.000933,0.071678,-0.014123
20529,-3.124433,0.311246,-6.947973,-0.109516,0.068214,0.035040
20544,-2.916138,0.749385,-7.046135,-0.097126,-0.007861,0.040902
20559,-2.760514,0.780510,-6.916849,-0.066216,-0.072078,0.030910
20574,-3.098097,0.854730,-6.823475,0.003331,-0.112714,0.003198
20589,-3.445256,0.509965,-6.689399,0.017054,-0.095660,-0.011458
20604,-3.469198,0.507571,-6.703764,0.002665,-0.019985,-0.008127
20619,-3.306392,0.541090,-6.679822,-0.021850,0.053692,-0.007061
20634,-3.191471,0.533907,-6.835446,-0.044499,0.093129,-0.002798
20649,-3.318363,0.593762,-6.758832,-0.052760,0.108184,0.004530
20664,-3.040636,0.656011,-6.837840,-0.053426,0.114446,0.009459
20679,-3.191471,0.835576,-6.809110,0.002531,0.073011,-0.003864
20694,-3.246537,0.622492,-6.859388,0.029044,0.030776,-0.013989
20709,-3.406949,0.359130,-6.864176,0.008260,0.055957,-0.009593
20724,-3.452439,0.320823,-6.914454,-0.087533,0.086067,0.026247
20739,-3.131616,0.746991,-6.873753,-0.126170,0.069547,0.060221
20754,-2.968810,1.127669,-6.947973,-0.047697,0.019585,0.055291
20769,-3.016694,1.359907,-6.993463,0.110449,-0.040502,0.016787
20784,-3.186682,0.897826,-7.110779,0.217700,-0.086600,-0.012391
20799,-3.157952,0.399832,-7.022193,0.188655,-0.100723,-0.022250
20814,-3.315969,-0.035913,-6.940791,0.045565,-0.047430,0.004397
20829,-3.428497,0.045490,-7.158663,-0.111115,0.005196,0.033708
20844,-3.323152,0.471658,-6.981492,-0.191320,0.053026,0.029844
20859,-3.157952,0.849942,-6.904878,-0.143490,0.097792,0.004263
20874,-3.050213,1.096544,-6.763620,-0.037571,0.066616,-0.020917
20889,-3.110068,0.955286,-6.876147,0.065283,0.034507,-0.034907
20904,-3.277662,0.766145,-6.912060,0.165740,0.009859,-0.056890
20919,-3.411737,0.083797,-6.873753,0.109250,0.016521,-0.026646
20934,-3.282450,0.191536,-6.888118,-0.013590,0.003198,0.023315
20949,-3.227384,0.318429,-7.043741,-0.083936,0.011058,0.044499
20964,-3.270479,0.634463,-6.993463,-0.083003,-0.009193,0.034640
20979,-3.165135,0.581791,-6.864176,-0.063818,-0.012790,0.022783
20994,-3.069366,0.610521,-6.818686,-0.055691,-0.012790,0.019319
21009,-3.196259,0.543484,-6.777985,-0.053426,0.008260,0.020251
21024,-3.227384,0.500388,-6.780379,-0.085002,0.029577,0.031043
21039,-3.203442,0.684742,-6.708553,-0.078873,0.068348,0.023315
21054,-3.009511,1.039083,-6.730101,-0.019851,0.083536,-0.001998
21069,-3.023877,0.952892,-6.756437,0.044766,0.087666,-0.033041
21084,-3.136404,0.682347,-6.890512,0.093395,0.045299,-0.059155
21099,-3.208230,0.337582,-6.983886,0.059688,0.042234,-0.064217
21114,-3.066972,0.165200,-6.957550,-0.029044,0.048230,-0.045165
21129,-3.093308,0.114922,-6.830657,-0.146688,0.055158,-0.008926
21144,-3.169923,0.555455,-6.876147,-0.191054,0.030910,0.011724
21159,-3.191471,0.881066,-6.871359,-0.127769,0.004930,-0.001332
21174,-3.090914,1.089362,-6.818686,-0.021850,-0.036372,-0.016787
21189,-3.172317,0.770933,-6.821081,0.076342,-0.072611,-0.027179
21204,-3.236961,0.509965,-6.792350,0.106851,-0.051960,-0.028511
21219,-3.368642,0.342371,-6.876147,0.079806,-0.013456,-0.018119
21234,-3.179500,0.328006,-6.912060,0.021317,0.036239,-0.010126
21249,-3.078943,0.304064,-6.907272,-0.052093,0.079006,-0.003864
21264,-3.150769,0.426168,-6.859388,-0.112447,0.113113,0.004663
21279,-3.100491,0.677559,-6.816292,-0.117377,0.106985,-0.002798
21294,-3.038242,0.780510,-6.878541,-0.081804,0.085801,-0.019319
21309,-3.078943,0.670376,-7.053318,-0.057822,0.072478,-0.028112
21324,-3.155558,0.560243,-6.962338,-0.040769,0.057556,-0.023582
21339,-3.337517,0.560243,-6.835446,-0.027579,0.068747,-0.018386
21354,-3.213019,0.651223,-6.940791,-0.011991,0.047164,-0.010792
21369,-3.167529,0.684742,-7.146692,0.044100,-0.005462,-0.011458
21384,-3.186682,0.284910,-7.163451,0.063551,-0.019185,-0.002665
21399,-3.284845,0.217872,-7.161057,0.021583,-0.040636,0.026779
21414,-3.145981,0.162806,-6.962338,-0.042368,-0.037704,0.052093
21429,-3.114856,0.354342,-6.931214,-0.119375,0.007594,0.059421
21444,-3.213019,0.632069,-6.821081,-0.133364,0.056357,0.038104
21459,-3.162740,0.653617,-6.952762,-0.097259,0.099124,0.007861
21474,-2.971204,0.895431,-6.816292,-0.056357,0.110315,-0.011058
21489,-2.916138,0.979228,-6.921637,0.047297,0.079406,-0.037838
21504,-2.942474,0.557849,-6.974309,0.110582,0.037838,-0.049162
21519,-3.232172,0.260968,-6.895301,0.094194,0.010525,-0.025980
21534,-3.215413,-0.016759,-6.940791,0.007994,0.007727,0.023582
21549,-3.064578,0.337582,-6.849811,-0.071945,0.016920,0.073544
21564,-3.031059,0.572214,-7.036559,-0.060087,0.001998,0.080338
21579,-2.995146,0.557849,-7.125144,-0.031443,-0.037704,0.072744
21594,-3.126827,0.545878,-7.041347,-0.046231,-0.032109,0.068481
21609,-3.074155,0.481235,-6.890512,-0.060620,-0.026913,0.053159
21624,-3.026271,0.438139,-6.969521,-0.089132,0.006395,0.036239
21639,-3.090914,0.488417,-6.895301,-0.120574,0.032908,0.022116
21654,-3.145981,0.670376,-6.801927,-0.110449,0.062219,0.002265
21669,-2.877831,0.596156,-6.821081,-0.086067,0.051427,-0.004663
21684,-3.016694,0.986411,-6.725312,-0.007727,0.081404,-0.011191
21699,-3.138798,0.581791,-6.816292,0.065683,0.054492,0.003064
21714,-3.253720,0.493206,-6.847417,0.071678,0.053825,0.014655
21729,-3.191471,0.351948,-6.914454,0.012391,0.072078,0.049029
21744,-3.028665,0.459687,-6.880936,-0.042101,0.058222,0.071145
21759,-2.954445,0.641646,-7.010222,-0.060620,0.041568,0.060487
21774,-3.055001,0.785298,-7.019799,-0.033841,-0.003464,0.035040
21789,-2.956839,0.885855,-7.024588,0.015455,-0.027979,0.002265
21804,-3.007117,0.751779,-7.070077,0.051960,-0.043833,-0.022916
21819,-3.284845,0.414197,-6.959944,0.037172,-0.018119,-0.025847
21834,-3.224990,0.383072,-6.983886,-0.005462,0.009992,-0.019052
21849,-3.167529,0.390255,-7.012617,-0.063685,0.044632,-0.006795
21864,-3.031059,0.505177,-6.998251,-0.089531,0.061553,-0.000533
21879,-2.992752,0.555455,-6.991069,-0.106851,0.080605,0.011191
21894,-3.083732,0.835576,-7.091625,-0.045165,0.076874,-0.007461
21909,-3.114856,0.881066,-6.945579,0.034374,0.049562,-0.031443
21924,-3.119645,0.567426,-6.998251,0.056357,0.031576,-0.046098
21939,-3.153164,0.246603,-6.998251,-0.010126,0.036106,-0.026513
21954,-3.153164,0.153229,-7.015011,-0.127502,0.030910,0.016920
21969,-3.078943,0.735020,-7.000646,-0.151750,0.000266,0.029444
21984,-3.002329,0.986411,-7.125144,-0.066616,-0.032109,0.011591
21999,-3.007117,0.816423,-7.144298,0.030776,-0.071812,-0.013723
22014,-3.119645,0.440533,-6.993463,0.040369,-0.072744,-0.018652
22029,-3.141193,0.351948,-7.034164,0.005729,-0.060087,-0.007061
22044,-3.090914,0.332794,-7.012617,-0.050361,-0.014389,-0.002132
22059,-3.016694,0.335188,-6.868965,-0.098991,0.030377,-0.000266
22074,-2.995146,0.517148,-6.828263,-0.103920,0.049429,-0.003864
22089,-3.153164,0.634463,-6.821081,-0.078873,0.045432,-0.016787
22104,-3.153164,0.691924,-6.842628,-0.035706,0.049029,-0.035306
22119,-3.098097,0.519542,-6.998251,-0.012923,0.059021,-0.039303
22134,-3.210624,0.418985,-6.979098,-0.012657,0.046764,-0.017187
22149,-3.083732,0.584185,-6.959944,-0.010525,-0.019052,0.014789
22164,-3.031059,0.667982,-6.981492,0.005596,-0.055557,0.026113
22179,-3.004723,0.653617,-6.974309,0.041168,-0.073277,0.018652
22194,-3.179500,0.399832,-7.129932,0.021583,-0.065550,0.018919
22209,-3.256114,0.311246,-7.019799,-0.047697,-0.030910,0.031309
22224,-3.131616,0.402226,-7.036559,-0.108317,0.002531,0.028645
22239,-2.906561,0.608127,-6.876147,-0.114179,0.034773,0.014522
22254,-3.114856,0.699107,-6.849811,-0.088865,0.015988,-0.000799
22269,-3.098097,0.847547,-6.864176,-0.032375,-0.008926,-0.014389
22284,-3.179500,0.584185,-6.995857,0.020917,-0.025181,-0.015855
22299,-3.098097,0.450110,-6.909666,-0.000133,-0.001332,0.001998
22314,-3.157952,0.486023,-6.907272,-0.027046,0.003064,0.023315
22329,-3.157952,0.574608,-6.964733,-0.025580,-0.000533,0.029711
22344,-3.105279,0.560243,-6.842628,-0.034907,0.005329,0.026646
22359,-3.150769,0.610521,-6.914454,-0.039969,0.008926,0.023049
22374,-3.059790,0.742203,-6.947973,-0.053559,0.006262,0.014922
22389,-3.090914,0.656011,-6.878541,-0.051827,0.000666,0.000533
22404,-3.019088,0.663194,-6.859388,-0.054625,0.015988,-0.012257
22419,-3.007117,0.768539,-6.847417,-0.041701,0.011858,-0.019185
22434,-3.038242,0.634463,-6.756437,-0.003597,-0.006262,-0.034507
22449,-3.373430,0.296881,-6.959944,-0.035040,0.010126,-0.026646
22464,-3.354276,0.452504,-6.962338,-0.073677,0.029444,-0.008660
22479,-3.205836,0.452504,-6.813898,-0.085002,0.055691,0.003730
22494,-3.114856,0.495600,-6.947973,-0.118309,0.079406,0.024914
22509,-3.011906,0.900220,-6.955156,-0.070879,0.020384,0.024115
22524,-3.198653,1.027112,-6.986280,0.026513,-0.017453,-0.002798
22539,-3.057395,1.031901,-6.931214,0.112181,-0.031842,-0.041701
22554,-3.026271,0.533907,-6.919243,0.126436,-0.033041,-0.059421
22569,-3.117250,0.246603,-6.936002,0.039969,-0.016254,-0.054758
22584,-3.201048,0.138864,-6.900089,-0.064617,0.019851,-0.033708
22599,-3.105279,0.550666,-6.813898,-0.110582,0.030110,-0.023315
22614,-3.134010,0.567426,-6.868965,-0.079806,0.031309,-0.025714
22629,-3.287239,0.579397,-6.902483,-0.049695,0.005862,-0.012923
22644,-3.282450,0.584185,-6.993463,-0.010392,0.027845,-0.011325
22659,-3.275268,0.399832,-6.873753,-0.019985,0.018652,0.018386
22674,-3.028665,0.639252,-6.971915,-0.014123,-0.023582,0.027312
22689,-3.119645,0.679953,-7.031770,-0.000133,-0.033041,0.030510
22704,-3.181894,0.701501,-7.086837,0.036639,-0.059021,0.015721
22719,-3.253720,0.603339,-7.058106,0.036372,-0.067681,0.004796
22734,-3.064578,0.543484,-6.897695,-0.002132,-0.044366,-0.000666
22749,-3.064578,0.586579,-6.888118,-0.052760,-0.010792,-0.008793
22764,-3.263297,0.538695,-6.756437,-0.073277,0.029444,-0.029044
22779,-3.078943,0.682347,-6.794744,-0.091397,0.024515,-0.031176
22794,-3.145981,0.780510,-6.816292,-0.057023,0.038637,-0.043433
22809,-3.292027,0.569820,-6.876147,-0.028112,0.016787,-0.047031
22824,-3.294421,0.464475,-7.036559,-0.030910,-0.001865,-0.033041
22839,-3.366247,0.282516,-6.916849,-0.060221,0.003597,-0.007594
22854,-3.100491,0.481235,-6.806715,-0.105386,-0.015455,0.017054
22869,-3.028665,0.754174,-6.878541,-0.086600,-0.054891,0.021717
22884,-3.177106,0.837971,-6.799533,-0.033308,-0.046764,-0.002132
22899,-3.337517,0.797269,-6.773197,0.032242,-0.054225,-0.026913
22914,-3.169923,0.636858,-6.756437,0.024914,-0.027579,-0.039170
22929,-3.107674,0.588974,-6.816292,0.004130,0.000799,-0.046764
22944,-3.129222,0.483629,-6.799533,-0.023848,0.015855,-0.050361
22959,-3.165135,0.555455,-6.816292,-0.030510,0.015855,-0.048629
22974,-3.227384,0.536301,-6.916849,-0.006662,0.003730,-0.056090
22989,-3.272874,0.246603,-6.926425,-0.031043,0.005063,-0.040369
23004,-3.404555,0.165200,-6.914454,-0.100057,0.004397,-0.007328
23019,-3.433285,0.299275,-6.933608,-0.132165,0.023182,0.023848
23034,-3.277662,0.775721,-6.842628,-0.094194,0.005596,0.023049
23049,-3.179500,0.859518,-7.012617,-0.013456,-0.016387,0.011191
23064,-3.210624,0.727837,-6.957550,0.061020,-0.043167,-0.004930
23079,-3.464410,0.390255,-7.026982,0.069280,-0.056890,-0.010658
23094,-3.270479,0.265756,-7.034164,0.010525,-0.030643,0.000533
23109,-3.131616,0.320823,-6.861782,-0.056090,-0.011458,0.007594
23124,-3.234566,0.550666,-6.823475,-0.077407,-0.022116,-0.002931
23139,-3.270479,0.624887,-6.866570,-0.065283,-0.031309,-0.022383
23154,-3.303998,0.361524,-6.816292,-0.075009,-0.011724,-0.017054
23169,-3.349488,0.366313,-6.713341,-0.107651,-0.000133,-0.000799
23184,-3.292027,0.421380,-6.744466,-0.155614,0.011991,0.026646
23199,-3.203442,0.775721,-6.660669,-0.137495,0.018386,0.036106
23214,-3.222595,0.974440,-6.914454,-0.050628,0.027845,0.024515
23229,-3.308787,0.916979,-6.837840,0.054758,0.017187,-0.010792
23244,-3.160346,0.677559,-6.914454,0.083270,0.005995,-0.026113
23259,-3.299210,0.342371,-6.873753,0.034374,0.009859,-0.029444
23274,-3.241749,0.361524,-7.012617,-0.042501,0.017720,-0.022516
23289,-3.167529,0.514753,-6.859388,-0.086867,0.012790,-0.016654
23304,-3.150769,0.691924,-6.799533,-0.085534,0.003198,-0.024914
23319,-3.383007,0.541090,-6.706159,-0.061953,-0.014389,-0.034907
23334,-3.512294,0.495600,-6.845023,-0.067548,-0.001599,-0.026779
23349,-3.402161,0.596156,-6.801927,-0.062619,0.019052,-0.021184
23364,-3.409343,0.610521,-6.854599,-0.054758,0.027979,-0.010126
23379,-3.351882,0.550666,-6.907272,-0.055025,0.051427,0.008660
23394,-3.078943,0.749385,-6.897695,-0.029044,0.020118,0.015188
23409,-3.122039,0.804452,-6.950367,0.009459,0.000266,-0.004530
23424,-3.268085,0.660800,-6.864176,0.032375,-0.023315,-0.022516
23439,-3.318363,0.553061,-6.964733,0.029577,-0.032242,-0.034773
23454,-3.236961,0.375890,-6.864176,-0.021051,-0.036505,-0.033841
23469,-3.234566,0.208296,-6.816292,-0.093662,-0.011325,-0.019585
23484,-3.509900,0.289698,-6.763620,-0.164407,0.008527,-0.005596
23499,-3.488352,0.584185,-6.823475,-0.197182,0.007727,0.003064
23514,-3.277662,0.902614,-6.873753,-0.141891,0.014123,-0.011458
23529,-3.363853,0.950498,-6.792350,-0.035440,-0.009859,-0.032375
23544,-3.406949,0.639252,-6.854599,0.032775,-0.018119,-0.038104
23559,-3.435679,0.416591,-6.727706,0.017587,-0.001066,-0.021583
23574,-3.476381,0.411803,-6.691793,-0.019718,0.025580,-0.002665
23589,-3.275268,0.450110,-6.809110,-0.077541,0.048363,0.012923
23604,-3.339911,0.545878,-6.868965,-0.107518,0.066749,0.009459
23619,-3.378219,0.632069,-6.758832,-0.123106,0.059821,-0.005995
23634,-3.208230,0.615310,-6.852205,-0.135896,0.037438,-0.015455
23649,-3.088520,0.871489,-6.811504,-0.118709,-0.017986,-0.022783
23664,-3.335123,0.837971,-6.746861,-0.080072,-0.040769,-0.029577
23679,-3.567360,0.684742,-6.775591,-0.044899,-0.040636,-0.027446
23694,-3.485958,0.533907,-6.710947,-0.073144,-0.011724,-0.007061
23709,-3.292027,0.565032,-6.888118,-0.104587,0.011325,0.010792
23724,-3.366247,0.565032,-6.864176,-0.128835,0.033974,0.017320
23739,-3.483563,0.622492,-6.912060,-0.127502,0.024648,0.010259
23754,-3.337517,0.713472,-6.868965,-0.118709,-0.000266,-0.002531
23769,-3.299210,0.663194,-6.823475,-0.126170,-0.009193,0.002132
23784,-3.246537,0.809240,-6.718130,-0.124571,-0.048896,0.001199
23799,-3.462016,0.703895,-6.828263,-0.111914,-0.047830,-0.005862
23814,-3.490746,0.651223,-6.794744,-0.113779,-0.048096,0.002531
23829,-3.318363,0.806846,-6.782773,-0.114046,-0.047697,0.008394
23844,-3.344700,0.890643,-6.849811,-0.090064,-0.015721,-0.009060
23859,-3.541024,0.847547,-6.794744,-0.044100,-0.001466,-0.025447
23874,-3.445256,0.864307,-6.852205,-0.022383,0.013456,-0.032109
23889,-3.347094,0.852336,-6.696582,-0.009593,0.017986,-0.037838
23904,-3.299210,0.689530,-6.766014,-0.020118,0.025314,-0.036639
23919,-3.402161,0.586579,-6.746861,-0.050894,0.017720,-0.025447
23934,-3.485958,0.720655,-6.859388,-0.062485,0.024115,-0.016654
23949,-3.378219,0.730232,-6.718130,-0.067149,0.027712,-0.015455
23964,-3.332729,0.725443,-6.706159,-0.081138,0.042900,-0.012391
23979,-3.371036,0.761356,-6.768408,-0.081671,0.043167,-0.018652
23994,-3.371036,0.773327,-6.801927,-0.065683,0.041435,-0.026513
24009,-3.244143,0.804452,-6.789956,-0.046764,0.000266,-0.036905
24024,-3.296816,0.828394,-6.758832,-0.027446,-0.015721,-0.038371
24039,-3.469198,0.763750,-6.806715,-0.037305,-0.019585,-0.031043
24054,-3.531447,0.699107,-6.773197,-0.035040,-0.003864,-0.020251
24069,-3.359065,0.790087,-6.682217,-0.039836,0.003064,-0.000400
24084,-3.313575,0.725443,-6.612785,-0.050095,0.008394,0.021850
24099,-3.356671,0.794875,-6.653486,-0.051560,0.021717,0.028511
24114,-3.438074,0.854730,-6.698976,-0.047430,0.042634,0.020917
24129,-3.371036,0.849942,-6.859388,-0.034507,0.044499,0.014123
24144,-3.287239,0.864307,-6.828263,-0.036372,0.047297,0.005462
24159,-3.258508,0.890643,-6.828263,-0.017054,0.044766,-0.015322
24174,-3.366247,0.735020,-6.885724,-0.002398,0.041035,-0.021317
24189,-3.323152,0.758962,-6.833052,-0.019052,0.029977,-0.019985
24204,-3.323152,0.773327,-6.933608,-0.029044,0.027979,-0.019185
24219,-3.282450,0.735020,-6.696582,-0.038371,0.033841,-0.009593
24234,-3.509900,0.687136,-6.634333,-0.042501,0.030243,-0.007061
24249,-3.409343,0.732626,-6.722918,-0.049429,0.036106,-0.001865
24264,-3.366247,0.718261,-6.859388,-0.050361,0.031975,-0.006262
24279,-3.347094,0.773327,-6.799533,-0.055957,0.036905,-0.000799
24294,-3.327940,0.754174,-6.919243,-0.059821,0.035040,0.007461
24309,-3.363853,0.818817,-6.849811,-0.047031,0.028778,0.013723
24324,-3.251326,0.742203,-6.845023,-0.053559,0.024648,0.017720
24339,-3.203442,0.744597,-6.766014,-0.064750,0.017187,0.025714
24354,-3.296816,0.766145,-6.670246,-0.068747,0.025714,0.027046
24369,-3.454833,0.837971,-6.713341,-0.044499,0.036905,0.015855
24384,-3.452439,1.034295,-6.648698,0.009459,0.069014,-0.008793
24399,-3.323152,0.943315,-6.746861,0.045565,0.078074,-0.017187
24414,-3.368642,0.627281,-6.742072,0.036372,0.098458,-0.005862
24429,-3.335123,0.550666,-6.754043,-0.041835,0.080472,0.028245
24444,-3.086126,0.744597,-6.713341,-0.073544,0.033841,0.047297
24459,-3.090914,0.770933,-6.852205,-0.063551,-0.011858,0.036905
24474,-3.239355,0.646434,-6.900089,-0.079139,-0.029577,0.027579
24489,-3.533842,0.737414,-6.785168,-0.073544,-0.006262,0.017320
24504,-3.519476,0.931344,-6.828263,-0.034107,0.042234,0.007061
24519,-3.320758,0.938527,-6.926425,0.003198,0.051560,-0.000533
24534,-3.268085,0.816423,-6.957550,0.031443,0.059688,0.014655
24549,-3.347094,0.744597,-6.864176,0.035573,0.048230,0.030776
24564,-3.361459,0.835576,-6.900089,0.012124,0.023848,0.060887
24579,-3.385401,1.012747,-7.007828,0.031309,0.005329,0.052493
24594,-3.409343,0.792481,-7.089231,0.035440,0.003864,0.038371
24609,-3.493140,0.548272,-6.938396,-0.030510,0.019185,0.039836
24624,-3.368642,0.699107,-6.998251,-0.096326,0.015322,0.044766
24639,-3.150769,1.060631,-6.933608,-0.113779,0.006395,0.036772
24654,-2.964022,1.170765,-6.856994,-0.029444,-0.039836,-0.004130
24669,-3.234566,1.165976,-6.880936,0.029711,-0.092729,-0.016121
24684,-3.323152,1.192312,-6.799533,0.132299,-0.132032,-0.037172
24699,-3.383007,0.873884,-6.773197,0.188256,-0.138028,-0.043300
24714,-3.418920,0.414197,-6.892907,0.124172,-0.089931,-0.019052
24729,-3.557784,0.265756,-6.821081,-0.000666,-0.041968,0.013723
24744,-3.509900,0.543484,-6.773197,-0.108850,0.012391,0.033041
24759,-3.356671,0.837971,-6.734890,-0.114446,0.026380,0.027712
24774,-3.174711,1.060631,-6.734890,-0.078340,0.010392,0.008926
24789,-3.282450,1.079785,-6.763620,-0.000933,-0.009992,-0.025047
24804,-3.442862,0.677559,-6.828263,0.023848,-0.020518,-0.036239
24819,-3.445256,0.507571,-6.653486,-0.036372,-0.015721,-0.013190
24834,-3.289633,0.691924,-6.617573,-0.107251,0.000533,0.016121
24849,-3.404555,0.773327,-6.756437,-0.121907,0.016787,0.028245
24864,-3.368642,0.998382,-6.687005,-0.114845,0.007994,0.030510
24879,-3.287239,1.134852,-6.811504,-0.062219,-0.004263,0.010925
24894,-3.181894,0.986411,-6.687005,-0.024515,-0.015988,-0.013723
24909,-3.342305,0.723049,-6.725312,-0.039303,-0.002398,-0.018919
24924,-3.457227,0.646434,-6.675034,-0.085002,0.028245,-0.023449
24939,-3.555389,0.782904,-6.658275,-0.112447,0.052760,-0.033441
24954,-3.289633,0.876278,-6.684611,-0.096992,0.069946,-0.051694
24969,-3.351882,0.979228,-6.732495,-0.066482,0.085002,-0.062485
24984,-3.383007,1.019930,-6.818686,-0.011458,0.054625,-0.071945
24999,-3.473987,0.957681,-6.888118,0.058355,0.021450,-0.079273
25014,-3.423708,0.677559,-6.845023,0.049962,0.032242,-0.063551
25029,-3.447650,0.368707,-6.789956,-0.017453,0.011591,-0.025047
25044,-3.476381,0.624887,-6.734890,-0.090331,0.006928,0.008394
25059,-3.490746,0.814029,-6.806715,-0.095926,-0.010792,0.016387
25074,-3.375824,1.065420,-6.742072,-0.038237,-0.024648,0.003064
25089,-3.337517,1.146823,-6.892907,0.053426,-0.046098,-0.013989
25104,-3.438074,0.758962,-6.780379,0.115911,-0.062086,-0.030243
25119,-3.464410,0.440533,-6.854599,0.077008,-0.039037,-0.015855
25134,-3.406949,0.378284,-6.761226,-0.004663,-0.003331,0.011724
25149,-3.361459,0.756568,-6.696582,-0.053825,0.032508,0.023449
25164,-3.452439,0.799663,-6.691793,-0.044100,0.069413,0.014389
25179,-3.552995,0.967257,-6.734890,-0.024914,0.059155,0.000400
25194,-3.442862,0.876278,-6.871359,0.024648,0.054625,-0.020784
25209,-3.399766,0.768539,-6.852205,0.025447,0.026779,-0.025447
25224,-3.531447,0.519542,-6.936002,-0.006528,0.015588,-0.020917
25239,-3.538630,0.457293,-6.837840,-0.065283,0.021317,-0.000133
25254,-3.454833,0.636858,-6.806715,-0.095260,0.016254,0.008926
25269,-3.414132,0.837971,-6.818686,-0.109383,-0.000933,0.023449
25284,-3.301604,1.060631,-6.749255,-0.036905,-0.024914,0.011991
25299,-3.454833,0.960075,-6.885724,0.034773,-0.056490,0.007328
25314,-3.397372,0.754174,-6.873753,0.054625,-0.068081,0.004130
25329,-3.246537,0.689530,-6.837840,0.003730,-0.061686,0.021583
25344,-3.371036,0.713472,-6.754043,-0.038237,-0.034240,0.017320
25359,-3.464410,0.821211,-6.617573,-0.068747,0.009193,0.001199
25374,-3.485958,0.909797,-6.600814,-0.061153,0.046897,-0.035440
25389,-3.344700,0.847547,-6.457162,-0.056224,0.073277,-0.049695
25404,-3.397372,1.017536,-6.660669,-0.026513,0.048629,-0.064884
25419,-3.495534,0.792481,-6.682217,0.010392,0.034507,-0.072611
25434,-3.550601,0.624887,-6.763620,0.005995,0.047564,-0.052493
25449,-3.493140,0.593762,-6.682217,-0.036772,0.073677,-0.016387
25464,-3.287239,0.624887,-6.821081,-0.073943,0.053026,0.013190
25479,-3.361459,0.732626,-6.797139,-0.081671,0.009593,0.026913
25494,-3.308787,0.893037,-6.835446,-0.058622,-0.037704,0.022916
25509,-3.210624,0.940921,-6.804321,-0.001332,-0.082737,-0.000533
25524,-3.414132,0.756568,-6.813898,0.025181,-0.080472,-0.031443
25539,-3.624821,0.466869,-6.833052,0.001865,-0.027446,-0.038904
25554,-3.632004,0.454898,-6.739678,-0.027046,0.020917,-0.034507
25569,-3.311181,0.550666,-6.816292,-0.076342,0.069147,-0.010259
25584,-3.210624,0.737414,-6.689399,-0.090597,0.088998,0.008527
25599,-3.299210,1.000776,-6.782773,-0.001199,0.052493,0.001732
25614,-3.447650,0.773327,-6.780379,0.052227,0.059155,-0.009326
25629,-3.471592,0.725443,-6.847417,0.070346,0.035040,-0.018119
25644,-3.505111,0.442927,-6.919243,0.085268,0.083802,-0.025447
25659,-3.572149,0.351948,-6.758832,0.024914,0.068614,-0.007194
25674,-3.433285,0.474052,-6.873753,-0.047430,0.016121,0.021850
25689,-3.292027,0.713472,-6.859388,-0.022783,-0.023582,0.011458
25704,-3.253720,0.646434,-6.981492,0.027312,-0.059288,-0.002531
25719,-3.433285,0.656011,-6.900089,0.052093,-0.078740,0.002798
25734,-3.519476,0.387861,-6.806715,0.015988,-0.061420,0.017320
25749,-3.538630,0.462081,-6.737284,-0.053959,-0.020784,0.040636
25764,-3.414132,0.641646,-6.701370,-0.098325,0.038371,0.046231
25779,-3.452439,0.830788,-6.627150,-0.078340,0.085668,0.032508
25794,-3.505111,0.984017,-6.538565,-0.038504,0.124438,0.005063
25809,-3.385401,0.854730,-6.742072,0.018786,0.114046,-0.021983
25824,-3.277662,0.708684,-6.921637,0.035839,0.093795,-0.033974
25839,-3.268085,0.351948,-6.962338,-0.015055,0.067282,-0.015322
25854,-3.426103,0.354342,-6.895301,-0.097392,0.065683,0.023848
25869,-3.301604,0.533907,-6.780379,-0.162942,0.048896,0.057289
25884,-3.122039,0.924162,-6.687005,-0.176665,0.019718,0.072744
25899,-3.208230,1.376666,-6.799533,-0.049162,-0.009859,0.031975
25914,-3.404555,1.144428,-6.684611,0.089665,-0.017320,-0.016654
25929,-3.588908,0.696713,-6.792350,0.131632,-0.005995,-0.033175
25944,-3.450045,0.507571,-6.876147,0.098325,0.009593,-0.026247
25959,-3.361459,0.378284,-6.900089,0.016654,0.040636,-0.005462
25974,-3.366247,0.421380,-6.969521,-0.046498,0.061553,0.009060
25989,-3.320758,0.596156,-6.739678,-0.061819,0.063018,0.007194
26004,-3.371036,0.916979,-6.761226,-0.031043,0.036505,0.005329
26019,-3.397372,0.962469,-6.754043,0.045299,0.032375,-0.008394
26034,-3.555389,0.773327,-6.909666,0.077274,0.034374,-0.014922
26049,-3.517082,0.488417,-6.964733,0.069014,0.040636,-0.006262
26064,-3.351882,0.301669,-6.821081,-0.032508,0.044366,0.035972
26079,-3.239355,0.507571,-6.830657,-0.115112,0.004930,0.066882
26094,-3.287239,0.998382,-6.904878,-0.099391,-0.041168,0.059155
26109,-3.387795,1.098939,-7.003040,-0.001332,-0.118709,0.021184
26124,-3.478775,1.029507,-6.943185,0.094727,-0.144156,-0.018786
26139,-3.406949,0.715866,-6.871359,0.124704,-0.159744,-0.038637
26154,-3.447650,0.366313,-6.852205,0.074476,-0.131366,-0.025847
26169,-3.699042,0.217872,-6.703764,-0.005329,-0.059288,-0.013856
26184,-3.560178,0.435745,-6.684611,-0.085801,0.025047,-0.012657
26199,-3.485958,0.541090,-6.603208,-0.102322,0.091263,-0.017587
26214,-3.430891,0.725443,-6.660669,-0.071412,0.089132,-0.020518
26229,-3.478775,0.641646,-6.742072,-0.055025,0.072345,-0.021450
26244,-3.342305,0.500388,-6.785168,-0.055291,0.098058,-0.022783
26259,-3.375824,0.316035,-6.612785,-0.100989,0.100190,-0.001998
26274,-3.052607,0.629675,-6.555324,-0.180795,0.050228,0.037571
26289,-3.294421,1.130063,-6.634333,-0.076608,0.009459,0.004796
26304,-3.502717,1.216254,-6.763620,0.069547,-0.019452,-0.047031
26319,-3.473987,0.799663,-6.833052,0.166006,-0.041968,-0.076608
26334,-3.502717,0.251391,-6.864176,0.140959,-0.030377,-0.063018
26349,-3.663129,0.031125,-6.842628,0.035972,-0.009992,-0.023182
26364,-3.620033,0.186748,-6.732495,-0.099124,0.025580,0.022516
26379,-3.469198,0.622492,-6.754043,-0.155481,0.061420,0.038237
26394,-3.275268,0.854730,-6.540959,-0.149352,0.108583,0.033841
26409,-3.284845,0.864307,-6.619967,-0.090331,0.101922,0.009992
26424,-3.268085,0.737414,-6.895301,-0.032775,0.098458,-0.015322
26439,-3.371036,0.888249,-6.902483,0.040236,0.080738,-0.047031
26454,-3.380613,0.627281,-6.890512,0.091130,0.065816,-0.056623
26469,-3.397372,0.378284,-6.878541,0.038637,0.005729,-0.000266
26484,-3.387795,0.442927,-6.845023,0.032375,-0.013057,0.023582
26499,-3.440468,0.442927,-6.914454,-0.005995,-0.049695,0.053426
26514,-3.471592,0.476446,-6.900089,-0.012790,-0.037838,0.062219
26529,-3.394978,0.442927,-6.902483,-0.041035,-0.001332,0.061553
26544,-3.323152,0.380678,-7.036559,-0.085002,0.048230,0.056357
26559,-3.224990,0.450110,-7.041347,-0.141625,0.065550,0.040769
26574,-3.205836,0.651223,-6.876147,-0.131366,0.071145,0.001998
26589,-3.143587,0.679953,-6.749255,-0.130833,0.064750,-0.005063
26604,-3.442862,0.969652,-6.639121,-0.017986,0.026380,-0.039703
26619,-3.502717,0.732626,-6.660669,0.061420,0.016387,-0.051161
26634,-3.543418,0.596156,-6.797139,0.115511,-0.009193,-0.053959
26649,-3.502717,0.165200,-6.967127,0.083536,-0.001732,-0.018652
26664,-3.387795,-0.292093,-6.856994,-0.048763,0.019052,0.044499
26679,-3.229778,0.129287,-6.847417,-0.196516,0.048096,0.113113
26694,-3.292027,0.821211,-6.837840,-0.182527,-0.009593,0.127236
26709,-3.344700,1.244985,-6.777985,-0.058222,-0.037838,0.095260
26724,-3.737349,1.163582,-6.433220,0.084069,-0.036239,0.044233
26739,-3.543418,0.826000,-6.586449,0.145622,-0.006395,0.010126
26754,-3.323152,0.706289,-6.821081,0.115778,0.029444,0.000533
26769,-3.296816,0.486023,-6.904878,0.061553,0.090331,0.010126
26784,-3.196259,0.447716,-6.825869,-0.034507,0.101256,0.032775
26799,-3.153164,0.646434,-6.840234,-0.097392,0.099391,0.037438
26814,-3.193865,0.885855,-6.777985,-0.095660,0.039436,0.019452
26829,-3.289633,0.905008,-6.876147,-0.059688,0.033041,-0.006395
26844,-3.497929,0.641646,-6.828263,-0.025580,0.027312,-0.022649
26859,-3.428497,0.330400,-6.770802,-0.094727,0.009859,0.009859
26874,-3.256114,0.806846,-6.809110,-0.114046,-0.013590,0.032109
26889,-3.284845,0.962469,-6.849811,-0.049162,-0.021717,0.012124
26904,-3.296816,0.852336,-6.936002,0.039303,-0.036372,-0.019185
26919,-3.517082,0.500388,-6.959944,0.107118,-0.021051,-0.049162
26934,-3.337517,0.304064,-6.988675,0.086334,0.003198,-0.047963
26949,-3.356671,0.117316,-6.921637,0.010925,0.020651,-0.027179
26964,-3.361459,0.117316,-6.967127,-0.085534,0.043300,0.001865
26979,-3.404555,0.414197,-6.806715,-0.145888,0.048496,0.024914
26994,-3.347094,0.773327,-6.596025,-0.122173,0.071812,0.023049
27009,-3.442862,0.725443,-6.732495,-0.038504,0.059954,0.007994
27024,-3.359065,0.878672,-6.799533,0.029044,0.051827,-0.000533
27039,-3.323152,0.596156,-6.789956,0.096859,0.034107,-0.017986
27054,-3.167529,0.129287,-6.888118,0.004530,0.049695,0.029577
27069,-3.227384,0.416591,-6.813898,-0.092462,0.021317,0.083003
27084,-3.277662,0.761356,-6.995857,-0.098191,-0.015055,0.091796
27099,-3.138798,1.010353,-6.880936,-0.039703,-0.065949,0.073144
27114,-3.126827,1.082179,-6.811504,0.055824,-0.102188,0.032109
27129,-3.356671,0.641646,-6.648698,0.055291,-0.089931,0.007994
27144,-3.414132,0.438139,-6.617573,-0.001466,-0.046231,0.000533
27159,-3.423708,0.469264,-6.646304,-0.062352,0.028778,-0.002265
27174,-3.186682,0.450110,-6.663063,-0.114446,0.087933,0.004796
27189,-3.198653,0.773327,-6.655880,-0.103121,0.127636,0.009726
27204,-3.260903,0.924162,-6.799533,-0.035706,0.075276,0.014123
27219,-3.380613,1.010353,-6.809110,0.035040,0.028911,0.007727
27234,-3.387795,0.773327,-6.806715,0.055291,0.019185,0.003997
27249,-3.385401,0.454898,-6.698976,0.019718,0.033441,0.009859
27264,-3.311181,0.414197,-6.734890,-0.071945,0.026779,0.031443
27279,-3.335123,0.749385,-6.756437,-0.100456,0.014789,0.020118
27294,-3.342305,0.976834,-6.840234,-0.046631,-0.021184,-0.009193
27309,-3.234566,0.952892,-6.809110,0.038104,-0.057822,-0.039303
27324,-3.562572,0.526724,-6.964733,0.065417,-0.033308,-0.048496
27339,-3.615244,0.287304,-6.842628,0.014123,-0.002931,-0.033841
27354,-3.488352,0.241814,-6.751649,-0.094461,0.026113,0.000400
27369,-3.375824,0.385466,-6.631938,-0.165340,0.068881,0.024381
27384,-3.588908,0.912191,-6.600814,-0.149885,0.124838,0.016654
27399,-3.402161,1.144428,-6.696582,-0.029711,0.101789,-0.021450
27414,-3.265691,1.149217,-6.912060,0.087533,0.097525,-0.059688
27429,-3.311181,0.653617,-6.988675,0.150685,0.072211,-0.084069
27444,-3.435679,-0.057461,-7.082048,0.038504,0.068214,-0.037971
27459,-3.368642,0.033519,-7.046135,-0.121507,0.027046,0.025847
27474,-3.203442,0.514753,-7.036559,-0.185858,0.006129,0.053292
27489,-3.136404,0.924162,-6.950367,-0.138694,-0.041968,0.048230
27504,-3.217807,0.984017,-7.046135,-0.015855,-0.083003,0.017054
27519,-3.351882,0.737414,-6.979098,0.056490,-0.100590,-0.007861
27534,-3.299210,0.450110,-6.876147,0.044766,-0.091796,-0.019718
27549,-3.236961,0.323217,-6.744466,-0.019185,-0.045832,-0.012657
27564,-3.428497,0.217872,-6.713341,-0.086334,0.015055,-0.001865
27579,-3.390190,0.519542,-6.550536,-0.119242,0.064750,-0.000533
27594,-3.327940,0.828394,-6.634333,-0.043300,0.094727,-0.023848
27609,-3.244143,0.943315,-6.732495,0.051294,0.102855,-0.045965
27624,-3.315969,0.636858,-6.947973,0.131499,0.067681,-0.055025
27639,-3.366247,-0.023942,-6.926425,0.083136,0.045965,-0.020384
27654,-3.354276,-0.162806,-6.794744,-0.073011,0.054625,0.054358
27669,-3.260903,0.126893,-6.782773,-0.216234,0.029844,0.121507
27684,-3.256114,0.679953,-6.897695,-0.234221,0.000000,0.129501
27699,-3.294421,1.151611,-6.885724,-0.111381,-0.025047,0.086600
27714,-3.318363,0.940921,-6.859388,0.024648,-0.060887,0.040769
27729,-3.215413,0.737414,-6.818686,0.053825,-0.051294,0.030510
27744,-3.224990,0.617704,-6.821081,0.040103,-0.027712,0.027712
27759,-3.313575,0.531513,-6.854599,-0.014522,0.014123,0.037571
27774,-3.181894,0.569820,-6.859388,-0.071012,0.070346,0.037971
27789,-3.215413,0.694318,-6.754043,-0.094061,0.101522,0.026513
27804,-3.390190,0.780510,-6.825869,-0.090064,0.101389,0.007328
27819,-3.268085,1.039083,-6.974309,-0.024648,0.096060,-0.021850
27834,-3.481169,0.974440,-7.110779,0.075409,0.049828,-0.057689
27849,-3.385401,0.584185,-7.115567,0.109916,0.034773,-0.043966
27864,-3.354276,0.332794,-6.995857,0.027312,0.004796,0.007461
27879,-3.359065,0.287304,-6.979098,-0.052360,-0.047697,0.049695
27894,-3.361459,0.617704,-6.945579,-0.106985,-0.075809,0.074210
27909,-3.253720,0.962469,-6.840234,-0.056623,-0.102055,0.057956
27924,-3.292027,0.746991,-6.892907,-0.007594,-0.097525,0.024515
27939,-3.359065,0.641646,-6.878541,-0.014655,-0.056757,-0.002265
27954,-3.356671,0.550666,-6.777985,-0.047031,-0.011724,-0.015988
27969,-3.308787,0.459687,-6.739678,-0.082337,0.032109,-0.021583
27984,-3.236961,0.636858,-6.617573,-0.104986,0.046364,-0.025181
27999,-3.270479,0.849942,-6.557718,-0.085668,0.073277,-0.016254
28014,-3.512294,0.907402,-6.773197,0.008127,0.077541,-0.028778
28029,-3.502717,0.758962,-6.777985,0.074476,0.048896,-0.031709
28044,-3.423708,0.356736,-6.828263,0.060354,0.063418,-0.019052
28059,-3.423708,0.162806,-6.789956,-0.037571,0.067548,0.023715
28074,-3.325546,0.320823,-6.806715,-0.126303,0.024115,0.052893
28089,-3.244143,0.857124,-6.794744,-0.129767,-0.027845,0.044632
28104,-3.124433,1.089362,-6.775591,-0.017320,-0.076874,0.000933
28119,-3.342305,0.751779,-6.787562,0.080738,-0.105386,-0.024248
28134,-3.495534,0.471658,-6.715735,0.079806,-0.063551,-0.022250
28149,-3.421314,0.318429,-6.651092,0.030110,0.000933,0.008660
28164,-3.315969,0.284910,-6.794744,-0.062485,0.064750,0.046764
28179,-3.280056,0.548272,-6.813898,-0.130833,0.117510,0.063818
28194,-3.253720,0.828394,-6.725312,-0.131499,0.133098,0.051294
28209,-3.224990,1.120486,-6.885724,-0.036505,0.088732,-0.001599
28224,-3.134010,1.070208,-6.845023,0.086334,0.041435,-0.050894
28239,-3.452439,0.418985,-6.900089,0.108051,0.018253,-0.067681
28254,-3.610456,0.033519,-6.928820,-0.011591,0.026779,-0.016787
28269,-3.490746,0.160412,-6.833052,-0.137228,0.049162,0.038770
28284,-3.253720,0.524330,-6.943185,-0.201446,0.032775,0.086734
28299,-3.292027,1.060631,-6.936002,-0.130433,0.011191,0.070346
28314,-3.313575,1.055843,-6.856994,-0.029311,0.012524,0.037571
28329,-3.493140,0.763750,-7.010222,0.048230,0.008260,0.002398
28344,-3.311181,0.612916,-6.952762,0.032908,0.031975,0.001865
28359,-3.201048,0.529119,-6.993463,-0.022516,0.032908,0.003331
28374,-3.179500,0.636858,-6.983886,-0.060487,0.036372,0.008127
28389,-3.318363,0.859518,-6.775591,-0.029044,0.023848,-0.015055
28404,-3.354276,0.991199,-6.770802,0.043700,-0.016787,-0.045165
28419,-3.332729,0.541090,-6.780379,0.062619,0.002798,-0.050361
28434,-3.490746,0.304064,-6.943185,0.011591,0.020518,-0.021983
28449,-3.507505,0.375890,-6.943185,-0.052760,0.025314,0.018786
28464,-3.356671,0.538695,-6.837840,-0.089132,0.028112,0.040103
28479,-3.162740,0.770933,-6.880936,-0.078873,0.006662,0.051960
28494,-3.253720,0.871489,-6.907272,-0.027979,-0.022516,0.032242
28509,-3.323152,0.921768,-6.895301,0.042501,-0.046764,-0.003464
28524,-3.323152,0.620098,-6.785168,0.059288,-0.041568,-0.022783
28539,-3.153164,0.490811,-6.732495,-0.007461,-0.024515,-0.029711
