T,AX,AY,AZ,GX,GY,GZ
46,-3.287239,2.116474,-6.761226,-0.047564,0.013590,0.005995
61,-3.143587,2.075773,-6.607996,-0.025314,0.007461,-0.004397
76,-3.189077,1.889025,-6.715735,-0.015455,0.005596,-0.007861
91,-3.256114,1.754950,-6.555324,-0.000799,-0.001599,-0.003331
106,-3.277662,1.814805,-6.579266,-0.021317,0.004663,-0.003597
121,-3.284845,1.932121,-6.651092,-0.017986,0.018652,-0.002931
136,-3.181894,1.958457,-6.643909,-0.011458,0.006262,-0.003198
151,-3.323152,1.848324,-6.701370,0.004663,0.023848,-0.010525
166,-3.361459,1.814805,-6.605602,0.015455,0.025314,-0.010658
181,-3.189077,1.795651,-6.605602,0.014922,0.025980,-0.009326
196,-3.236961,1.640028,-6.646304,-0.005995,0.037971,-0.000266
211,-3.306392,1.637634,-6.651092,-0.034107,0.035173,0.011991
226,-3.287239,1.745373,-6.703764,-0.056224,0.032109,0.015721
241,-3.222595,1.754950,-6.622362,-0.068614,0.032908,0.021051
256,-3.198653,1.912967,-6.708553,-0.072877,0.017853,0.024115
271,-3.292027,1.956063,-6.718130,-0.054492,0.012524,0.008527
286,-3.339911,1.980005,-6.720524,-0.037838,0.004530,-0.006795
301,-3.193865,1.865083,-6.603208,-0.032109,-0.002132,-0.006129
316,-3.208230,1.793257,-6.548141,-0.031176,-0.001066,-0.003198
331,-3.248932,1.829170,-6.689399,-0.045965,-0.001466,0.003064
346,-3.383007,1.932121,-6.634333,-0.036505,0.013190,-0.001865
361,-3.325546,2.068590,-6.622362,-0.015855,0.010126,-0.008394
376,-3.210624,2.039860,-6.576872,0.006395,0.010525,-0.008127
391,-3.335123,1.774103,-6.725312,0.017853,0.046764,-0.011325
406,-3.373430,1.659182,-6.619967,-0.003198,0.030377,0.002798
421,-3.186682,1.704672,-6.679822,-0.014922,0.035306,0.009593
436,-3.270479,1.711854,-6.648698,-0.032375,0.034773,0.006928
451,-3.210624,1.628057,-6.596025,-0.053426,0.025181,0.014256
466,-3.375824,1.644817,-6.639121,-0.076075,0.022516,0.024248
481,-3.256114,2.011129,-6.715735,-0.076475,0.012257,0.024515
496,-3.160346,2.056619,-6.584054,-0.052626,0.001599,0.005862
511,-3.253720,1.886631,-6.651092,-0.045565,0.001599,-0.002531
526,-3.296816,1.857901,-6.622362,-0.043700,0.003597,-0.000266
541,-3.342305,1.841141,-6.672640,-0.044632,0.008926,-0.001732
556,-3.184288,2.063802,-6.624756,-0.032242,-0.005729,-0.002132
571,-3.179500,1.867477,-6.634333,-0.030110,0.012257,-0.006528
586,-3.428497,1.879448,-6.696582,-0.025447,0.012257,-0.006928
601,-3.354276,1.805228,-6.675034,-0.034374,0.006928,0.002132
616,-3.148375,1.836353,-6.677428,-0.015855,0.031443,-0.004397
631,-3.251326,1.752556,-6.648698,-0.029977,0.036905,0.001998
646,-3.284845,1.735796,-6.612785,-0.039570,0.028778,0.013723
661,-3.282450,1.843535,-6.689399,-0.044499,0.035839,0.016654
676,-3.141193,1.877054,-6.593631,-0.046631,0.026913,0.014922
691,-3.215413,1.929726,-6.667851,-0.046098,0.028112,0.017187
706,-3.332729,1.944092,-6.646304,-0.041302,0.010792,0.007727
721,-3.294421,2.001553,-6.737284,-0.031309,0.009859,0.004930
736,-3.193865,2.003947,-6.576872,-0.021850,-0.001466,-0.005196
751,-3.186682,1.853112,-6.596025,0.010658,-0.008394,-0.012391
766,-3.256114,1.841141,-6.619967,-0.016920,0.011458,-0.005995
781,-3.433285,1.872266,-6.756437,-0.007461,0.015721,-0.006795
796,-3.280056,1.853112,-6.665457,-0.016254,0.004796,-0.005596
811,-3.167529,1.872266,-6.684611,-0.011991,0.009593,-0.008926
826,-3.327940,1.826776,-6.615179,-0.003064,0.016787,-0.010392
841,-3.378219,1.747767,-6.696582,-0.004930,0.013856,-0.001066
856,-3.327940,1.577779,-6.631938,-0.024115,0.043700,0.007328
871,-3.289633,1.618480,-6.622362,-0.058622,0.041168,0.022516
886,-3.308787,1.702277,-6.562507,-0.084735,0.033841,0.025714
901,-3.325546,1.807622,-6.593631,-0.093528,0.035573,0.024914
916,-3.210624,2.066196,-6.612785,-0.080738,0.020384,0.023982
931,-3.141193,2.281674,-6.758832,-0.042900,0.003464,0.005063
946,-3.248932,2.121263,-6.811504,-0.002265,0.000666,-0.013456
961,-3.268085,1.889025,-6.641515,0.005729,-0.003464,-0.019452
976,-3.351882,1.740585,-6.545747,-0.016521,0.017453,-0.010658
991,-3.174711,1.936909,-6.739678,-0.005063,-0.012657,-0.001865
1006,-3.227384,1.889025,-6.691793,-0.007861,0.009060,-0.011858
1021,-3.378219,1.877054,-6.665457,-0.005196,0.011724,-0.010259
1036,-3.327940,1.845930,-6.584054,-0.007861,0.007994,-0.011191
1051,-3.263297,1.781286,-6.607996,-0.010126,0.019452,-0.004263
1066,-3.251326,1.680730,-6.708553,-0.027979,0.027046,-0.000933
1081,-3.303998,1.663970,-6.533776,-0.046364,0.029844,0.007994
1096,-3.318363,1.671153,-6.631938,-0.066482,0.028911,0.017853
1111,-3.196259,1.766921,-6.569689,-0.086734,0.034907,0.027579
1126,-3.196259,1.881842,-6.677428,-0.090864,0.026913,0.025314
1141,-3.256114,2.154782,-6.627150,-0.074343,0.016787,0.021583
1156,-3.292027,2.169147,-6.677428,-0.031043,0.007061,-0.001466
1171,-3.174711,2.109292,-6.687005,-0.005329,0.001066,-0.014522
1186,-3.172317,1.977611,-6.710947,0.036639,-0.021184,-0.019052
1201,-3.284845,1.702277,-6.648698,0.000133,0.007194,-0.015322
1216,-3.471592,1.711854,-6.713341,0.000666,0.010658,-0.011858
1231,-3.169923,1.790863,-6.641515,-0.028911,0.005862,-0.003331
1246,-3.189077,1.814805,-6.646304,-0.031043,0.011058,-0.008260
1261,-3.282450,1.958457,-6.619967,-0.024115,0.006662,-0.006528
1276,-3.399766,1.805228,-6.696582,-0.029711,0.028511,-0.003464
1291,-3.306392,1.759738,-6.667851,-0.038371,0.019585,0.008260
1306,-3.186682,1.723825,-6.612785,-0.045165,0.034640,0.012257
1321,-3.234566,1.690306,-6.665457,-0.057956,0.032642,0.021983
1336,-3.347094,1.726219,-6.720524,-0.077807,0.035706,0.029311
1351,-3.229778,1.910573,-6.648698,-0.076475,0.032242,0.023449
1366,-3.165135,2.164358,-6.665457,-0.057423,0.019718,0.015322
1381,-3.198653,2.173935,-6.665457,-0.021850,0.011724,-0.005196
1396,-3.359065,1.970428,-6.737284,0.000533,0.001998,-0.012923
1411,-3.251326,1.793257,-6.710947,0.003997,-0.007461,-0.011191
1426,-3.222595,1.826776,-6.749255,-0.024115,0.006129,-0.003464
1441,-3.277662,1.814805,-6.737284,-0.023449,0.004263,-0.000933
1456,-3.263297,1.898602,-6.732495,-0.024781,0.004397,-0.002398
1471,-3.335123,1.927332,-6.576872,-0.013456,0.012391,-0.008394
1486,-3.263297,1.908179,-6.555324,-0.010392,0.009992,-0.007194
1501,-3.301604,1.886631,-6.849811,-0.009459,0.039436,-0.006262
1516,-3.327940,1.786074,-6.658275,-0.007328,0.020518,-0.001732
1531,-3.270479,1.740585,-6.507440,-0.014389,0.028645,0.000933
1546,-3.253720,1.644817,-6.550536,-0.031309,0.029178,0.014123
1561,-3.241749,1.726219,-6.670246,-0.064351,0.030643,0.025181
1576,-3.280056,1.762132,-6.677428,-0.076475,0.032375,0.026247
1591,-3.351882,2.006341,-6.794744,-0.072611,0.027312,0.018253
1606,-3.186682,2.011129,-6.603208,-0.049162,0.010126,0.010925
1621,-3.189077,1.970428,-6.497863,-0.013323,0.003064,-0.000933
1636,-3.280056,1.723825,-6.713341,-0.032908,0.002665,-0.003597
1651,-3.351882,1.726219,-6.636727,-0.036905,0.001865,-0.003464
1666,-3.227384,1.810017,-6.768408,-0.052760,0.008260,0.005329
1681,-3.227384,1.898602,-6.617573,-0.056623,0.014256,0.011325
1696,-3.222595,1.934515,-6.555324,-0.049162,0.016387,0.007727
1711,-3.363853,2.015918,-6.548141,-0.021317,0.028245,0.001466
1726,-3.306392,1.991976,-6.715735,-0.002931,0.026380,-0.000666
1741,-3.145981,1.774103,-6.651092,-0.000266,0.023582,-0.006395
1756,-3.349488,1.572991,-6.574478,-0.033441,0.035306,0.004263
1771,-3.378219,1.426944,-6.603208,-0.084469,0.031842,0.021184
1786,-3.263297,1.616086,-6.665457,-0.124172,0.042368,0.035173
1801,-3.112462,1.991976,-6.763620,-0.136562,0.033708,0.042234
1816,-3.186682,2.267309,-6.655880,-0.108583,0.023049,0.025847
1831,-3.241749,2.243367,-6.694188,-0.062485,0.011724,0.005329
1846,-3.239355,2.164358,-6.557718,-0.025980,-0.003997,-0.006928
1861,-3.244143,1.850718,-6.713341,-0.018786,0.013723,-0.010658
1876,-3.224990,1.862689,-6.806715,-0.030377,-0.007061,-0.004530
1891,-3.349488,1.798045,-6.631938,-0.051294,0.004397,0.000000
1906,-3.272874,1.915361,-6.576872,-0.052093,0.007594,0.002265
1921,-3.074155,2.111686,-6.564901,-0.026779,-0.003198,-0.017453
1936,-3.342305,1.862689,-6.672640,-0.018652,0.008127,-0.017453
1951,-3.462016,1.814805,-6.505046,-0.018919,0.027712,-0.009326
1966,-3.311181,1.762132,-6.665457,-0.051294,0.026646,0.012257
1981,-3.162740,1.903390,-6.533776,-0.034107,0.032642,0.015588
1996,-3.167529,1.968034,-6.586449,-0.028911,0.034240,0.009326
2011,-3.404555,1.742979,-6.605602,-0.042900,0.019185,0.014655
2026,-3.241749,1.917755,-6.538565,-0.046631,0.009193,0.016920
2041,-3.292027,1.968034,-6.617573,-0.045965,0.021583,0.009060
2056,-3.181894,2.118868,-6.607996,-0.035173,0.013723,0.000933
2071,-3.337517,1.934515,-6.612785,-0.012790,0.001732,0.002132
2086,-3.282450,1.941698,-6.648698,-0.002798,0.001998,-0.007994
2101,-3.196259,1.786074,-6.722918,-0.006262,0.003064,-0.003597
2116,-3.342305,1.728614,-6.612785,-0.041701,0.007861,0.007328
2131,-3.227384,1.874660,-6.596025,-0.045432,-0.005462,0.003198
2146,-3.186682,2.094926,-6.600814,-0.021717,0.017453,-0.006928
2161,-3.224990,2.018312,-6.531382,0.011191,0.019052,-0.028778
2176,-3.196259,1.754950,-6.514623,0.003331,0.012790,-0.015055
2191,-3.330334,1.553837,-6.641515,-0.025181,0.031176,0.004663
2206,-3.363853,1.611298,-6.782773,-0.070613,0.042767,0.023715
2221,-3.277662,1.900996,-6.567295,-0.084469,0.023182,0.028378
2236,-3.105279,2.169147,-6.675034,-0.071812,0.032642,0.020917
2251,-3.196259,2.243367,-6.722918,-0.024781,0.020784,0.001599
2266,-3.227384,2.097321,-6.696582,0.022516,0.001998,-0.015721
2281,-3.251326,1.956063,-6.469133,0.052227,-0.009459,-0.034240
2296,-3.227384,1.630451,-6.708553,0.043567,-0.006928,-0.029311
2311,-3.471592,1.513135,-6.651092,-0.026113,-0.033974,0.004530
2326,-3.213019,1.932121,-6.691793,-0.040369,-0.027845,0.006928
2341,-3.253720,1.829170,-6.679822,-0.044100,0.031709,0.003597
2356,-3.325546,1.946486,-6.758832,-0.020251,0.023049,0.001599
2371,-3.258508,1.920150,-6.682217,-0.011191,0.012391,0.005063
2386,-3.272874,1.798045,-6.737284,-0.003864,0.033574,-0.001066
2401,-3.323152,1.747767,-6.533776,-0.006928,0.034640,0.005329
2416,-3.287239,1.651999,-6.493075,-0.027046,0.020917,0.015988
2431,-3.275268,1.723825,-6.634333,-0.059155,0.031309,0.017187
2446,-3.294421,1.747767,-6.557718,-0.066482,0.022649,0.022383
2461,-3.256114,1.982399,-6.665457,-0.075009,0.031443,0.021450
2476,-3.110068,2.159570,-6.679822,-0.035972,0.015188,0.000000
2491,-3.126827,1.996764,-6.636727,-0.009060,0.015188,-0.006395
2506,-3.399766,1.960851,-6.646304,0.005063,0.012657,-0.006395
2521,-3.299210,1.929726,-6.615179,0.003064,0.014389,-0.011724
2536,-3.327940,1.970428,-6.698976,0.008260,0.013989,-0.007061
2551,-3.148375,1.848324,-6.596025,0.006662,0.000799,-0.008660
2566,-3.313575,1.719037,-6.670246,0.003597,0.009326,-0.001199
2581,-3.375824,1.640028,-6.794744,0.000400,0.018119,-0.004530
2596,-3.289633,1.671153,-6.610391,-0.035306,0.014389,0.009193
2611,-3.169923,1.776498,-6.718130,-0.062619,0.025980,0.012657
2626,-3.402161,1.865083,-6.610391,-0.066216,0.027179,0.009726
2641,-3.268085,1.900996,-6.749255,-0.071678,0.020784,0.007061
2656,-3.258508,1.920150,-6.598420,-0.055424,0.019718,0.005995
2671,-3.148375,2.018312,-6.634333,-0.048763,0.019718,0.011325
2686,-3.234566,2.080561,-6.746861,-0.014389,0.014256,0.000933
2701,-3.354276,2.051831,-6.710947,0.003997,0.013190,-0.010126
2716,-3.272874,1.898602,-6.689399,0.012657,0.003730,-0.014389
2731,-3.232172,1.764527,-6.677428,0.002798,0.000933,-0.015455
2746,-3.306392,1.673547,-6.770802,-0.018919,0.006129,-0.008127
2761,-3.490746,1.716643,-6.682217,-0.042234,0.009593,-0.000799
2776,-3.270479,1.754950,-6.564901,-0.063818,0.006129,0.008127
2791,-3.162740,1.929726,-6.586449,-0.051427,0.017320,0.002931
2806,-3.258508,1.951274,-6.627150,-0.037038,0.020118,-0.002265
2821,-3.387795,1.857901,-6.696582,-0.030643,0.014655,-0.002265
2836,-3.337517,1.788469,-6.665457,-0.034240,0.023848,0.007194
2851,-3.145981,1.845930,-6.634333,-0.045565,0.027845,0.016920
2866,-3.253720,2.056619,-6.603208,-0.036639,0.023315,0.014789
2881,-3.363853,2.090138,-6.701370,0.002265,0.014922,-0.004263
2896,-3.311181,2.025495,-6.610391,0.024648,0.006395,-0.015988
2911,-3.205836,1.838747,-6.586449,0.027446,0.001332,-0.024381
2926,-3.253720,1.680730,-6.777985,0.005596,0.003464,-0.017720
2941,-3.330334,1.594538,-6.617573,-0.022783,0.006395,-0.003064
2956,-3.229778,1.625663,-6.607996,-0.055691,0.011724,0.002931
2971,-3.385401,1.733402,-6.651092,-0.070213,0.012524,0.009859
2986,-3.354276,1.850718,-6.593631,-0.066616,0.017986,0.011858
3001,-3.193865,1.826776,-6.655880,-0.060087,0.021717,0.011591
3016,-3.167529,1.915361,-6.574478,-0.050095,0.023449,0.009193
3031,-3.244143,1.879448,-6.579266,-0.047430,0.024648,0.012790
3046,-3.292027,1.912967,-6.593631,-0.036106,0.022783,0.009992
3061,-3.229778,2.042254,-6.682217,-0.023982,0.024914,0.007727
3076,-3.150769,2.042254,-6.725312,-0.005729,0.025447,0.006928
3091,-3.210624,2.099715,-6.687005,0.026913,0.019052,-0.008260
3106,-3.327940,1.932121,-6.615179,0.045165,0.007194,-0.020917
3121,-3.229778,1.747767,-6.639121,0.048496,0.001066,-0.020784
3136,-3.232172,1.671153,-6.687005,0.027979,0.003864,-0.019452
3151,-3.303998,1.565808,-6.679822,-0.004397,0.003464,-0.011724
3166,-3.426103,1.596933,-6.617573,-0.040236,0.005196,-0.001466
3181,-3.356671,1.721431,-6.655880,-0.056757,0.009859,0.004397
3196,-3.280056,1.845930,-6.725312,-0.063418,0.018919,0.003730
3211,-3.275268,1.908179,-6.663063,-0.052493,0.030643,0.007861
3226,-3.270479,1.800440,-6.660669,-0.064750,0.018652,0.020518
3241,-3.246537,1.891419,-6.617573,-0.050761,0.032775,0.016654
3256,-3.229778,1.948880,-6.605602,-0.039037,0.028645,0.009859
3271,-3.186682,2.066196,-6.679822,-0.019985,0.021184,0.000933
3286,-3.323152,1.939303,-6.713341,-0.001199,0.021450,-0.004530
3301,-3.308787,1.891419,-6.687005,0.011058,0.011591,-0.004130
3316,-3.227384,1.841141,-6.598420,0.014789,0.015188,-0.013856
3331,-3.208230,1.740585,-6.555324,0.015188,0.006395,-0.015322
3346,-3.325546,1.647211,-6.624756,-0.001599,0.004663,-0.009326
3361,-3.406949,1.601721,-6.634333,-0.026779,0.008527,-0.005196
3376,-3.205836,1.572991,-6.581660,-0.055158,0.012124,0.004930
3391,-3.224990,1.661576,-6.691793,-0.077008,0.011858,0.014655
3406,-3.359065,1.790863,-6.758832,-0.076208,0.021583,0.015988
3421,-3.375824,1.774103,-6.722918,-0.076475,0.028911,0.021983
3436,-3.234566,1.924938,-6.488286,-0.067548,0.030377,0.022783
3451,-3.160346,1.989582,-6.639121,-0.054225,0.023315,0.017853
3466,-3.234566,2.025495,-6.581660,-0.024781,0.028112,0.005596
3481,-3.344700,1.881842,-6.701370,-0.001599,0.019185,0.000133
3496,-3.181894,1.939303,-6.689399,0.006262,0.016254,-0.004930
3511,-3.213019,1.879448,-6.696582,0.013590,0.009726,-0.012257
3526,-3.196259,1.747767,-6.607996,0.013323,0.008660,-0.011991
3541,-3.351882,1.675941,-6.694188,-0.003198,0.011724,-0.008127
3556,-3.287239,1.704672,-6.612785,-0.017320,0.008260,-0.004263
3571,-3.196259,1.731008,-6.622362,-0.031975,0.010658,-0.002265
3586,-3.289633,1.721431,-6.593631,-0.035706,0.018652,0.005462
3601,-3.342305,1.740585,-6.636727,-0.039170,0.016920,0.007594
3616,-3.332729,1.742979,-6.708553,-0.036639,0.020384,0.003331
3631,-3.241749,1.829170,-6.653486,-0.040502,0.030510,0.007594
3646,-3.201048,1.774103,-6.698976,-0.044233,0.026513,0.007328
3661,-3.306392,1.620875,-6.574478,-0.062086,0.029444,0.020518
3676,-3.308787,1.793257,-6.672640,-0.075809,0.029844,0.023449
3691,-3.160346,2.054225,-6.653486,-0.066083,0.033175,0.018919
3706,-3.229778,2.121263,-6.667851,-0.029711,0.011191,-0.000266
3721,-3.303998,1.987187,-6.698976,-0.005462,0.005196,-0.012923
3736,-3.294421,1.848324,-6.698976,0.005729,0.002931,-0.015055
3751,-3.263297,1.726219,-6.639121,-0.005862,0.000266,-0.008793
3766,-3.201048,1.697489,-6.691793,-0.015855,0.005995,-0.001466
3781,-3.325546,1.752556,-6.687005,-0.029711,0.008660,-0.000266
3796,-3.342305,1.874660,-6.562507,-0.027579,0.018253,0.001599
3811,-3.205836,1.862689,-6.694188,-0.012790,0.012124,-0.009992
3826,-3.213019,1.783680,-6.720524,-0.008127,0.019585,-0.003997
3841,-3.347094,1.707066,-6.706159,-0.012391,0.027312,-0.002132
3856,-3.371036,1.735796,-6.615179,-0.026779,0.027446,0.002798
3871,-3.205836,1.704672,-6.531382,-0.033974,0.021583,0.011991
3886,-3.229778,1.731008,-6.588843,-0.046364,0.033308,0.014655
3901,-3.268085,1.699883,-6.660669,-0.059288,0.028911,0.020784
3916,-3.330334,1.965640,-6.677428,-0.056490,0.018786,0.017853
3931,-3.260903,2.023100,-6.722918,-0.030643,0.008660,0.000000
3946,-3.227384,1.898602,-6.653486,-0.014655,0.000799,-0.013190
3961,-3.308787,1.699883,-6.641515,-0.020251,0.006795,-0.010658
3976,-3.375824,1.740585,-6.682217,-0.029711,0.016121,-0.001332
3991,-3.270479,1.886631,-6.715735,-0.028245,0.013856,0.000266
4006,-3.213019,1.886631,-6.691793,-0.016521,0.012790,-0.002265
4021,-3.205836,1.879448,-6.651092,0.000400,0.005063,-0.010925
4036,-3.440468,1.709460,-6.596025,0.003198,0.024648,-0.005329
4051,-3.361459,1.687912,-6.727706,-0.006395,0.027712,-0.000799
4066,-3.224990,1.640028,-6.651092,-0.022250,0.031576,0.007061
4081,-3.292027,1.580173,-6.634333,-0.051694,0.043833,0.023982
4096,-3.246537,1.735796,-6.706159,-0.063018,0.039703,0.023449
4111,-3.224990,1.857901,-6.567295,-0.049962,0.038504,0.013323
4126,-3.193865,1.898602,-6.596025,-0.042501,0.033175,0.013856
4141,-3.177106,2.037466,-6.837840,-0.030110,0.019585,0.008926
4156,-3.339911,1.946486,-6.651092,-0.013590,0.014123,-0.001599
4171,-3.327940,1.886631,-6.643909,0.010392,0.007328,-0.018652
4186,-3.201048,1.764527,-6.619967,0.010658,0.007594,-0.014789
4201,-3.172317,1.685518,-6.687005,-0.002265,0.011591,-0.006129
4216,-3.361459,1.802834,-6.794744,-0.003064,0.007594,-0.001998
4231,-3.354276,1.774103,-6.617573,-0.002931,0.005862,-0.007328
4246,-3.342305,2.535460,-6.318298,0.008926,-0.004796,-0.005995
4261,-3.306392,1.553837,-6.806715,-0.003331,0.024515,-0.008127
4276,-3.371036,1.561020,-6.684611,-0.028511,0.025047,0.001732
4291,-3.294421,1.505953,-6.576872,-0.063818,0.027979,0.011858
4306,-3.222595,1.556231,-6.718130,-0.096992,0.028112,0.023182
4321,-3.066972,1.711854,-6.660669,-0.116711,0.029178,0.032242
4336,-3.272874,1.833959,-6.701370,-0.115911,0.021583,0.036505
4351,-3.366247,1.927332,-6.756437,-0.105919,0.019985,0.029711
4366,-3.160346,2.056619,-6.713341,-0.084335,0.003064,0.018119
4381,-3.184288,1.980005,-6.761226,-0.067948,0.004796,-0.001732
4396,-3.287239,1.814805,-6.670246,-0.064750,0.004397,-0.000666
4411,-3.296816,1.800440,-6.665457,-0.069147,0.002665,0.000933
4426,-3.277662,1.920150,-6.651092,-0.063018,0.005596,0.000266
4441,-3.174711,1.936909,-6.636727,-0.055424,0.007594,-0.000666
4456,-3.301604,1.833959,-6.715735,-0.045965,0.000133,0.001199
4471,-3.327940,1.838747,-6.651092,-0.045832,0.013723,-0.001865
4486,-3.349488,1.841141,-6.560112,-0.038770,0.021983,0.002531
4501,-3.196259,1.774103,-6.607996,-0.046098,0.028511,0.004263
4516,-3.292027,1.661576,-6.679822,-0.066349,0.034640,0.015055
4531,-3.332729,1.735796,-6.682217,-0.091530,0.052493,0.028112
4546,-3.227384,1.879448,-6.629544,-0.095260,0.044499,0.033708
4561,-3.090914,2.085350,-6.593631,-0.069014,0.040369,0.024381
4576,-3.119645,2.248155,-6.536170,-0.035040,0.022516,0.015721
4591,-3.148375,2.221819,-6.682217,0.019985,0.014256,-0.003331
4606,-3.174711,2.054225,-6.660669,0.068881,0.000000,-0.022649
4621,-3.289633,1.814805,-6.641515,0.066882,-0.005329,-0.028245
4636,-3.229778,1.659182,-6.653486,0.048363,-0.008260,-0.024381
4651,-3.344700,1.568202,-6.675034,0.002665,0.007594,-0.010392
4666,-3.339911,1.697489,-6.665457,-0.020917,0.008660,-0.000666
4681,-3.186682,1.821988,-6.675034,-0.023982,0.007461,0.000666
4696,-3.234566,1.862689,-6.607996,-0.016521,0.016387,-0.001199
4711,-3.418920,1.824382,-6.713341,-0.002665,0.033441,0.000933
4726,-3.292027,1.671153,-6.572083,-0.012124,0.017853,-0.001732
4741,-3.189077,1.666364,-6.624756,-0.030110,0.033708,0.006662
4756,-3.162740,1.561020,-6.543353,-0.075675,0.032242,0.023182
4771,-3.301604,1.640028,-6.672640,-0.102988,0.030243,0.034507
4786,-3.351882,1.879448,-6.672640,-0.106851,0.031043,0.038904
4801,-3.167529,2.197877,-6.651092,-0.078207,0.023182,0.023182
4816,-3.220201,2.212242,-6.706159,-0.029178,0.016787,-0.004796
4831,-3.280056,2.015918,-6.665457,-0.005196,0.001599,-0.018386
4846,-3.239355,1.798045,-6.600814,-0.001732,-0.004663,-0.018786
4861,-3.215413,1.680730,-6.670246,-0.022250,0.001199,-0.009992
4876,-3.217807,1.711854,-6.615179,-0.050095,0.000533,0.000400
4891,-3.363853,1.680730,-6.612785,-0.074876,0.001732,0.007994
4906,-3.339911,1.764527,-6.651092,-0.087000,0.008127,0.007994
4921,-3.356671,1.793257,-6.629544,-0.098058,0.012524,0.013989
4936,-3.205836,1.905784,-6.742072,-0.100190,0.027979,0.011858
4951,-3.239355,1.874660,-6.622362,-0.093795,0.030377,0.015988
4966,-3.301604,1.944092,-6.550536,-0.083536,0.027046,0.016654
4981,-3.277662,1.958457,-6.622362,-0.074476,0.030776,0.020251
4996,-3.165135,1.948880,-6.675034,-0.068481,0.038371,0.021317
5011,-3.284845,1.975216,-6.658275,-0.067415,0.041302,0.024515
5026,-3.299210,2.011129,-6.696582,-0.041168,0.015588,0.015455
5041,-3.265691,2.092532,-6.713341,-0.027046,0.007461,0.001599
5056,-3.143587,1.965640,-6.643909,-0.018786,0.012124,-0.004130
5071,-3.215413,1.900996,-6.670246,-0.019985,0.010658,-0.002398
5086,-3.315969,1.738190,-6.691793,-0.030510,0.006662,0.005063
5101,-3.268085,1.924938,-6.679822,-0.043700,0.013323,0.007994
5116,-3.205836,2.039860,-6.698976,-0.042634,0.015322,0.003730
5131,-3.179500,1.922544,-6.634333,-0.028511,0.020917,-0.003331
5146,-3.409343,1.814805,-6.675034,-0.021583,0.035573,-0.000266
5161,-3.227384,1.960851,-6.584054,-0.019185,0.015855,0.003331
5176,-3.157952,1.936909,-6.619967,-0.026779,0.039170,0.006662
5191,-3.239355,1.912967,-6.617573,-0.035839,0.027446,0.012391
5206,-3.275268,1.814805,-6.588843,-0.044766,0.027446,0.013323
5221,-3.241749,1.929726,-6.543353,-0.044100,0.024381,0.014123
5236,-3.169923,2.066196,-6.607996,-0.041168,0.016387,0.006395
5251,-3.167529,2.090138,-6.691793,-0.021717,0.008260,0.000133
5266,-3.268085,2.039860,-6.603208,-0.001199,0.001732,-0.011858
5281,-3.275268,1.944092,-6.653486,0.004663,0.008660,-0.008793
5296,-3.205836,1.970428,-6.696582,0.000266,0.006795,-0.006395
5311,-3.134010,1.960851,-6.600814,0.008260,0.014922,-0.008527
5326,-3.335123,1.927332,-6.624756,0.004930,0.017986,-0.012124
5341,-3.366247,1.752556,-6.718130,0.008260,0.008394,-0.015988
5356,-3.224990,1.764527,-6.639121,-0.014922,0.008926,-0.004930
5371,-3.184288,1.742979,-6.624756,-0.029044,0.031842,0.003198
5386,-3.253720,1.735796,-6.643909,-0.043300,0.026247,0.013323
5401,-3.339911,1.810017,-6.605602,-0.056490,0.027712,0.022516
5416,-3.272874,1.865083,-6.593631,-0.063551,0.024781,0.027446
5431,-3.203442,2.035071,-6.708553,-0.059954,0.036239,0.017187
5446,-3.232172,2.027889,-6.603208,-0.047297,0.028778,0.008793
5461,-3.272874,2.044648,-6.588843,-0.035573,0.020384,0.009193
5476,-3.244143,2.152387,-6.663063,-0.008527,0.016387,-0.001865
5491,-3.179500,2.073379,-6.634333,0.016654,0.012524,-0.012790
5506,-3.189077,1.764527,-6.517017,0.004530,0.015855,0.002931
5521,-3.416526,1.649605,-6.766014,0.009593,0.013856,-0.005462
5536,-3.323152,1.898602,-6.574478,-0.010126,-0.006129,0.005063
5551,-3.208230,1.788469,-6.639121,-0.015988,0.018119,-0.000799
5566,-3.265691,1.831564,-6.600814,-0.016920,0.021184,-0.007061
5581,-3.339911,1.836353,-6.708553,-0.013057,0.020784,-0.006262
5596,-3.227384,1.747767,-6.641515,-0.012923,0.031309,-0.005329
5611,-3.136404,1.711854,-6.584054,-0.037038,0.032242,0.010925
5626,-3.234566,1.699883,-6.612785,-0.067815,0.024115,0.025314
5641,-3.318363,1.920150,-6.651092,-0.077940,0.025580,0.023582
5656,-3.234566,1.924938,-6.648698,-0.075009,0.020518,0.018253
5671,-3.138798,2.092532,-6.648698,-0.068481,0.013590,0.011458
5686,-3.165135,2.109292,-6.552930,-0.036106,0.003198,-0.002531
5701,-3.246537,1.941698,-6.658275,-0.020518,-0.001998,-0.008660
5716,-3.337517,1.884237,-6.722918,-0.018919,0.006795,-0.010392
5731,-3.172317,1.970428,-6.655880,-0.021051,0.004796,0.000533
5746,-3.179500,1.970428,-6.756437,-0.020118,0.005995,-0.002398
5761,-3.318363,1.970428,-6.665457,-0.008926,0.012923,-0.003730
5776,-3.342305,1.853112,-6.682217,-0.005196,0.018652,-0.008660
5791,-3.244143,1.841141,-6.591237,-0.001865,0.014789,-0.004796
5806,-3.229778,1.762132,-6.713341,-0.002132,0.029577,-0.005196
5821,-3.287239,1.640028,-6.639121,-0.030776,0.018253,0.011191
5836,-3.361459,1.625663,-6.682217,-0.060620,0.034374,0.017054
5851,-3.153164,1.867477,-6.631938,-0.075009,0.027446,0.017320
5866,-3.143587,1.886631,-6.648698,-0.082337,0.020384,0.019452
5881,-3.232172,2.159570,-6.636727,-0.066083,0.011724,0.007727
5896,-3.306392,2.171541,-6.615179,-0.029711,0.005596,-0.007194
5911,-3.251326,1.999158,-6.555324,-0.017453,0.001466,-0.012657
5926,-3.201048,1.877054,-6.629544,-0.011458,-0.008926,-0.005596
5941,-3.256114,1.812411,-6.777985,-0.023715,0.001066,0.000133
5956,-3.323152,1.917755,-6.687005,-0.030377,0.010392,-0.002665
5971,-3.270479,1.936909,-6.701370,-0.026513,0.009326,-0.005862
5986,-3.201048,1.900996,-6.574478,-0.014789,0.016121,-0.007727
6001,-3.205836,1.833959,-6.603208,-0.019185,0.014922,-0.002398
6016,-3.325546,1.860295,-6.557718,-0.010925,0.018786,-0.004130
6031,-3.263297,1.860295,-6.588843,-0.015988,0.018519,-0.001599
6046,-3.177106,1.759738,-6.672640,-0.021850,0.014655,0.003997
6061,-3.292027,1.841141,-6.663063,-0.030776,0.018919,0.005329
6076,-3.347094,1.886631,-6.694188,-0.032908,0.014655,0.001466
6091,-3.292027,1.991976,-6.732495,-0.031309,0.018919,-0.002398
6106,-3.131616,2.023100,-6.766014,-0.015188,0.002798,-0.012124
6121,-3.169923,1.915361,-6.615179,0.010792,-0.000933,-0.018119
6136,-3.277662,1.750161,-6.643909,-0.003730,-0.000400,-0.009726
6151,-3.289633,1.795651,-6.701370,-0.011191,0.013856,-0.002798
6166,-3.203442,1.929726,-6.682217,-0.019851,0.009992,0.001332
6181,-3.246537,1.845930,-6.682217,-0.012391,0.013456,0.005196
6196,-3.416526,1.905784,-6.766014,-0.006528,0.023049,0.001066
6211,-3.282450,1.853112,-6.538565,0.001998,0.021184,-0.000933
6226,-3.196259,1.853112,-6.684611,0.012391,0.026247,-0.008394
6241,-3.196259,1.711854,-6.694188,-0.006129,0.023848,-0.009193
6256,-3.366247,1.529895,-6.627150,-0.034507,0.020118,0.003198
6271,-3.275268,1.618480,-6.687005,-0.065550,0.025314,0.018786
6286,-3.227384,1.860295,-6.718130,-0.080738,0.025847,0.027312
6301,-3.210624,2.092532,-6.720524,-0.065550,0.013057,0.013856
6316,-3.258508,2.142811,-6.588843,-0.032908,0.012790,-0.001332
6331,-3.162740,2.008735,-6.607996,-0.013190,0.011591,-0.007994
6346,-3.208230,1.831564,-6.641515,-0.008394,0.006129,-0.006395
6361,-3.335123,1.769315,-6.670246,-0.020384,0.008660,-0.001466
6376,-3.330334,1.783680,-6.607996,-0.027179,0.010392,-0.000400
6391,-3.153164,1.829170,-6.603208,-0.035306,0.015455,0.005063
6406,-3.169923,1.838747,-6.636727,-0.034240,0.017320,0.004130
6421,-3.339911,1.960851,-6.624756,-0.031576,0.020784,0.001865
6436,-3.303998,1.829170,-6.713341,-0.029577,0.015455,0.002931
6451,-3.189077,1.778892,-6.691793,-0.029178,0.014522,0.005729
6466,-3.157952,1.714248,-6.639121,-0.048363,0.020784,0.009992
6481,-3.361459,1.814805,-6.600814,-0.054092,0.016254,0.018119
6496,-3.339911,1.960851,-6.672640,-0.044632,0.017720,0.010792
6511,-3.217807,1.948880,-6.572083,-0.037838,0.016254,0.005329
6526,-3.215413,1.936909,-6.696582,-0.030643,0.015188,0.001199
6541,-3.318363,1.829170,-6.670246,-0.024914,0.011191,-0.002931
6556,-3.282450,1.788469,-6.684611,-0.037438,0.012391,0.001066
6571,-3.196259,1.855506,-6.651092,-0.037838,0.016920,0.003064
6586,-3.138798,1.920150,-6.722918,-0.037704,0.015322,0.003597
6601,-3.284845,1.841141,-6.615179,-0.031176,0.013590,0.003597
6616,-3.325546,1.860295,-6.646304,-0.030377,0.014655,0.006795
6631,-3.179500,1.862689,-6.713341,-0.026779,0.023848,0.000666
6646,-3.217807,1.845930,-6.634333,-0.027845,0.021983,0.001732
6661,-3.172317,1.848324,-6.701370,0.003331,0.082603,-0.019851
6676,-3.485958,1.618480,-6.536170,-0.038904,0.075809,-0.002265
6691,-3.383007,1.896208,-6.615179,-0.048896,0.009859,0.017187
6706,-3.040636,2.121263,-6.588843,-0.041435,-0.004263,0.005729
6721,-3.191471,2.037466,-6.624756,-0.016521,0.020251,-0.007328
6736,-3.330334,1.821988,-6.708553,-0.003198,0.007861,-0.005329
6751,-3.239355,1.798045,-6.619967,-0.018119,0.005995,-0.008127
6766,-3.208230,1.802834,-6.677428,-0.023315,0.017453,-0.001998
6781,-3.292027,1.831564,-6.603208,-0.029844,0.013723,0.006928
6796,-3.253720,1.860295,-6.634333,-0.029444,0.009992,0.005196
6811,-3.330334,1.824382,-6.754043,-0.024648,0.024914,-0.002265
6826,-3.196259,1.810017,-6.629544,-0.037038,0.015055,0.003064
6841,-3.227384,1.726219,-6.536170,-0.043833,0.014655,0.004530
6856,-3.306392,1.781286,-6.713341,-0.050361,0.013856,0.009459
6871,-3.327940,1.786074,-6.694188,-0.061686,0.024381,0.014922
6886,-3.186682,2.047042,-6.708553,-0.059021,0.023848,0.012657
6901,-3.210624,2.027889,-6.610391,-0.040103,0.011724,0.003064
6916,-3.313575,1.944092,-6.540959,-0.027579,0.011991,-0.000666
6931,-3.313575,1.865083,-6.619967,-0.024381,0.013456,0.000000
6946,-3.160346,1.946486,-6.598420,-0.026113,0.014123,0.000933
6961,-3.232172,1.860295,-6.636727,-0.026779,0.012124,-0.001466
6976,-3.330334,1.821988,-6.615179,-0.022649,0.012257,0.003198
6991,-3.325546,1.860295,-6.619967,-0.023848,0.014389,-0.000533
7006,-3.224990,1.841141,-6.593631,-0.030377,0.015322,0.007994
7021,-3.169923,1.896208,-6.653486,-0.034640,0.020651,0.011991
7036,-3.330334,1.912967,-6.634333,-0.046364,0.017453,0.010925
7051,-3.318363,1.848324,-6.670246,-0.038237,0.013057,0.008394
7066,-3.227384,1.910573,-6.627150,-0.051427,0.021051,0.011058
7081,-3.198653,1.920150,-6.665457,-0.041835,0.024781,0.006395
7096,-3.282450,1.924938,-6.627150,-0.035440,0.011191,0.007194
7111,-3.313575,1.939303,-6.665457,-0.022916,0.014123,0.000933
7126,-3.270479,1.908179,-6.624756,-0.016387,0.014789,-0.001066
7141,-3.169923,1.795651,-6.655880,-0.016654,0.007994,-0.003597
7156,-3.246537,1.699883,-6.646304,-0.035173,0.013590,0.000400
7171,-3.387795,1.776498,-6.684611,-0.043167,0.011858,0.004663
7186,-3.248932,1.891419,-6.694188,-0.054758,0.014522,0.013723
7201,-3.177106,1.968034,-6.663063,-0.048763,0.017453,0.011724
7216,-3.224990,1.956063,-6.500257,-0.031443,0.020384,0.001199
7231,-3.349488,1.989582,-6.670246,-0.012923,0.016521,-0.005196
7246,-3.265691,1.886631,-6.703764,-0.006528,0.017054,-0.002132
7261,-3.189077,1.831564,-6.581660,-0.017720,0.018652,-0.001199
7276,-3.263297,1.742979,-6.701370,-0.034640,0.017986,0.010792
7291,-3.306392,1.824382,-6.629544,-0.048363,0.024781,0.011058
7306,-3.325546,1.960851,-6.684611,-0.043167,0.014922,0.008660
7321,-3.165135,2.006341,-6.694188,-0.031576,0.011591,0.000799
7336,-3.227384,2.020706,-6.665457,-0.018919,0.008793,-0.005329
7351,-3.294421,1.829170,-6.627150,-0.017320,0.004397,-0.006262
7366,-3.335123,1.805228,-6.641515,-0.019718,0.013989,-0.004930
7381,-3.210624,1.872266,-6.663063,-0.027979,0.007994,0.000133
7396,-3.222595,1.829170,-6.701370,-0.029178,0.013190,0.001199
7411,-3.277662,1.874660,-6.660669,-0.039703,0.007994,0.005462
7426,-3.277662,1.867477,-6.658275,-0.036772,0.018786,0.002265
7441,-3.189077,1.951274,-6.646304,-0.030377,0.021850,0.002931
7456,-3.150769,2.063802,-6.708553,0.001332,-0.047830,-0.006395
7471,-3.222595,1.745373,-6.634333,-0.053026,0.035440,0.008926
7486,-3.469198,1.843535,-6.672640,-0.051560,0.041568,0.007861
7501,-3.193865,2.118868,-6.631938,-0.037704,0.006129,0.007328
7516,-3.138798,2.080561,-6.677428,-0.012257,0.018919,-0.012524
7531,-3.349488,1.893813,-6.679822,0.011724,0.016254,-0.015055
7546,-3.335123,1.766921,-6.619967,-0.000133,0.005995,-0.015188
7561,-3.186682,1.802834,-6.624756,-0.013723,0.007994,-0.005462
7576,-3.167529,1.771709,-6.617573,-0.030110,0.015588,0.000933
7591,-3.263297,1.802834,-6.682217,-0.041968,0.017587,0.002665
7606,-3.323152,1.905784,-6.603208,-0.037971,0.023182,0.006928
7621,-3.248932,1.821988,-6.687005,-0.038904,0.023315,0.005729
7636,-3.236961,1.934515,-6.552930,-0.032242,0.023848,0.005196
7651,-3.253720,1.881842,-6.600814,-0.028911,0.020251,0.006528
7666,-3.414132,1.704672,-6.478710,-0.017853,0.002798,0.005063
7681,-3.117250,1.956063,-6.576872,-0.031309,0.002531,0.009726
7696,-2.992752,1.991976,-6.801927,-0.012790,0.043167,-0.001332
7711,-3.440468,1.898602,-6.701370,-0.005862,0.036239,-0.008660
7726,-3.325546,1.953669,-6.572083,-0.004397,-0.012524,-0.008793
7741,-3.217807,1.802834,-6.634333,-0.014123,0.004663,-0.005196
7756,-3.215413,1.821988,-6.660669,-0.016521,0.014789,-0.004263
7771,-3.241749,1.719037,-6.639121,-0.028112,0.008926,-0.000799
7786,-3.375824,1.723825,-6.648698,-0.042767,0.012124,0.003997
7801,-3.332729,1.745373,-6.588843,-0.055691,0.015455,0.010126
7816,-3.248932,1.889025,-6.667851,-0.062752,0.024381,0.016387
7831,-3.258508,1.987187,-6.598420,-0.050894,0.026646,0.010792
7846,-3.275268,1.860295,-6.603208,-0.041302,0.023315,0.002531
7861,-3.282450,1.908179,-6.591237,-0.033175,0.027712,0.004130
7876,-3.189077,1.838747,-6.603208,-0.023449,0.017986,0.006395
7891,-3.160346,1.874660,-6.663063,-0.022916,0.025181,0.005862
7906,-3.327940,1.956063,-6.682217,-0.011724,0.027312,0.001066
7921,-3.359065,1.900996,-6.670246,0.000266,0.008660,-0.011325
7936,-3.234566,1.795651,-6.677428,-0.005862,0.003730,-0.005596
7951,-3.177106,1.752556,-6.730101,-0.025314,0.008127,-0.000799
7966,-3.347094,1.711854,-6.655880,-0.039703,0.005196,0.005462
7981,-3.315969,1.666364,-6.663063,-0.057822,0.010925,0.003997
7996,-3.217807,1.857901,-6.581660,-0.071279,0.011858,0.009726
8011,-3.215413,1.872266,-6.619967,-0.076342,0.019452,0.017986
8026,-3.335123,1.905784,-6.643909,-0.066216,0.021450,0.019052
8041,-3.258508,2.092532,-6.670246,-0.041035,0.022649,0.010392
8056,-3.248932,2.087744,-6.655880,-0.007994,0.017587,-0.001332
8071,-3.181894,1.953669,-6.667851,0.009726,0.010925,-0.008793
8086,-3.299210,1.687912,-6.684611,-0.001599,0.021184,-0.009193
8101,-3.363853,1.668759,-6.679822,-0.025047,0.023848,-0.000133
8116,-3.213019,1.778892,-6.629544,-0.038504,0.014389,0.004930
8131,-3.167529,1.944092,-6.703764,-0.037305,0.014789,0.001998
8146,-3.282450,1.869871,-6.722918,-0.032109,0.012923,0.000266
8161,-3.354276,1.860295,-6.598420,-0.027046,0.011058,-0.003331
8176,-3.277662,1.874660,-6.584054,-0.020917,0.007461,-0.003730
8191,-3.213019,1.910573,-6.804321,-0.024115,0.012790,-0.004530
8206,-3.284845,1.836353,-6.708553,-0.027312,0.016521,-0.001199
8221,-3.294421,1.793257,-6.655880,-0.030910,0.018119,0.003198
8236,-3.344700,1.855506,-6.682217,-0.035706,0.028245,0.009593
8251,-3.155558,1.944092,-6.634333,-0.036772,0.016787,0.005862
8266,-3.203442,1.805228,-6.658275,-0.027979,0.016121,-0.001332
8281,-3.354276,1.754950,-6.677428,-0.038371,0.014922,0.009060
8296,-3.313575,1.817199,-6.670246,-0.053692,0.018386,0.011458
8311,-3.184288,1.886631,-6.648698,-0.053559,0.019185,0.011991
8326,-3.179500,2.047042,-6.770802,-0.041168,0.021317,0.004130
8341,-3.311181,2.023100,-6.624756,-0.023715,0.012790,-0.004663
8356,-3.296816,1.972822,-6.691793,-0.008527,0.007727,-0.008527
8371,-3.172317,1.934515,-6.564901,-0.010925,0.012657,-0.008260
8386,-3.253720,1.805228,-6.646304,-0.013323,0.008926,-0.000266
8401,-3.344700,1.752556,-6.696582,-0.026779,0.013856,0.001066
8416,-3.294421,1.867477,-6.576872,-0.039969,0.016654,0.007061
8431,-3.234566,1.855506,-6.636727,-0.045032,0.012391,0.007594
8446,-3.191471,1.857901,-6.754043,-0.039303,0.021583,0.005196
8461,-3.339911,1.798045,-6.648698,-0.044499,0.015721,0.009593
8476,-3.339911,1.699883,-6.631938,-0.056357,0.018786,0.017187
8491,-3.265691,1.843535,-6.600814,-0.068614,0.024115,0.020384
8506,-3.167529,2.035071,-6.720524,-0.058355,0.027979,0.015855
8521,-3.232172,2.092532,-6.646304,-0.042368,0.019985,0.005329
8536,-3.344700,2.047042,-6.653486,-0.023982,0.011858,-0.001199
8551,-3.205836,1.987187,-6.567295,-0.007594,0.009193,-0.003730
8566,-3.191471,1.819593,-6.521805,-0.006795,0.014123,-0.005995
8581,-3.318363,1.721431,-6.754043,-0.017187,0.011191,-0.001865
8596,-3.397372,1.800440,-6.545747,-0.032908,0.012124,0.003464
8611,-3.268085,1.900996,-6.687005,-0.039436,0.018119,0.002798
8626,-3.189077,1.845930,-6.696582,-0.044100,0.016521,0.010925
8641,-3.244143,1.817199,-6.636727,-0.046498,0.031576,0.009193
8656,-3.280056,1.838747,-6.643909,-0.042234,0.016121,0.007727
8671,-3.287239,1.740585,-6.603208,-0.044100,0.013989,0.014522
8686,-3.191471,1.831564,-6.663063,-0.062352,0.022516,0.020518
8701,-3.258508,1.908179,-6.607996,-0.063418,0.020251,0.017853
8716,-3.303998,1.948880,-6.722918,-0.061286,0.017320,0.013590
8731,-3.296816,1.984793,-6.653486,-0.036505,0.017853,0.001732
8746,-3.184288,1.975216,-6.689399,-0.023582,0.015588,-0.006795
8761,-3.165135,1.929726,-6.500257,-0.014789,0.013590,-0.005462
8776,-3.272874,1.845930,-6.732495,-0.013057,0.011724,-0.006129
8791,-3.315969,1.826776,-6.641515,-0.019052,0.015322,-0.005329
8806,-3.215413,1.857901,-6.701370,-0.024115,0.009726,0.000533
8821,-3.213019,1.867477,-6.722918,-0.020917,0.016521,-0.003597
8836,-3.383007,1.845930,-6.629544,-0.020651,0.024914,-0.004130
8851,-3.323152,1.826776,-6.576872,-0.027046,0.012524,-0.000799
8866,-3.251326,1.778892,-6.533776,-0.039969,0.019718,0.006528
8881,-3.227384,1.831564,-6.576872,-0.053292,0.024515,0.013456
8896,-3.284845,1.889025,-6.684611,-0.049562,0.029711,0.012391
8911,-3.284845,1.939303,-6.663063,-0.043034,0.022116,0.008926
8926,-3.198653,2.030283,-6.643909,-0.026247,0.018919,0.003730
8941,-3.177106,2.018312,-6.720524,-0.014655,0.015588,-0.005329
8956,-3.280056,1.867477,-6.555324,-0.010792,0.009593,-0.009859
8971,-3.337517,1.793257,-6.627150,-0.019185,0.005196,-0.005995
8986,-3.236961,1.829170,-6.770802,-0.027979,0.009859,-0.002398
9001,-3.210624,1.798045,-6.648698,-0.036372,0.011724,0.003064
9016,-3.292027,1.812411,-6.605602,-0.038371,0.019851,0.003864
9031,-3.311181,1.860295,-6.603208,-0.039170,0.019452,0.005063
9046,-3.229778,1.903390,-6.617573,-0.028245,0.022783,0.001332
9061,-3.150769,1.877054,-6.706159,-0.032508,0.029977,0.007328
9076,-3.284845,1.802834,-6.730101,-0.038371,0.033041,0.007594
9091,-3.318363,1.817199,-6.598420,-0.044632,0.031443,0.013989
9106,-3.265691,1.831564,-6.672640,-0.049296,0.028511,0.013190
9121,-3.189077,1.934515,-6.677428,-0.043433,0.021450,0.013057
9136,-3.241749,1.987187,-6.574478,-0.039570,0.020251,0.007461
9151,-3.332729,1.936909,-6.643909,-0.023982,0.007328,-0.002531
9166,-3.263297,1.850718,-6.588843,-0.024781,0.011191,-0.003864
9181,-3.224990,1.869871,-6.600814,-0.028511,0.001865,-0.001732
9196,-3.232172,1.872266,-6.653486,-0.032908,0.011191,-0.006262
9211,-3.375824,1.879448,-6.564901,-0.036905,0.007594,-0.001732
9226,-3.311181,1.841141,-6.651092,-0.045565,0.015855,0.002665
9241,-3.129222,1.960851,-6.691793,-0.044766,0.014123,0.009326
9256,-3.213019,1.975216,-6.634333,-0.029711,0.040369,0.000533
9271,-3.292027,1.891419,-6.622362,-0.019985,0.027179,-0.000799
9286,-3.256114,1.810017,-6.639121,-0.013456,0.016521,0.001466
9301,-3.167529,1.848324,-6.682217,-0.025980,0.026247,0.004263
9316,-3.205836,1.869871,-6.658275,-0.034240,0.024248,0.007194
9331,-3.308787,1.948880,-6.607996,-0.031709,0.014789,0.007861
9346,-3.282450,2.039860,-6.677428,-0.013456,0.012524,-0.000533
9361,-3.241749,1.929726,-6.646304,0.001599,0.006395,-0.012790
9376,-3.201048,1.836353,-6.687005,-0.011458,0.006928,-0.009859
9391,-3.270479,1.752556,-6.627150,-0.021317,0.007461,-0.007328
9406,-3.318363,1.838747,-6.722918,-0.031309,0.004930,-0.000666
9421,-3.277662,1.774103,-6.746861,-0.045299,0.006262,0.004130
9436,-3.203442,1.910573,-6.758832,-0.051294,0.015588,0.004530
9451,-3.282450,1.829170,-6.634333,-0.058755,0.014389,0.011991
9466,-3.270479,1.944092,-6.694188,-0.043567,0.021184,0.007994
9481,-3.294421,1.948880,-6.576872,-0.021983,0.025314,-0.000533
9496,-3.110068,1.877054,-6.574478,-0.018253,0.014123,-0.000266
9511,-3.265691,1.754950,-6.629544,-0.027312,0.027446,0.007727
9526,-3.368642,1.836353,-6.679822,-0.037704,0.031975,0.010392
9541,-3.196259,2.059013,-6.670246,-0.028511,0.020384,0.006395
9556,-3.124433,2.114080,-6.667851,-0.005329,0.015188,-0.004930
9571,-3.253720,1.905784,-6.691793,0.001998,0.009193,-0.008793
9586,-3.292027,1.838747,-6.646304,0.001466,0.005196,-0.011591
9601,-3.311181,1.776498,-6.730101,-0.009459,0.005729,-0.006928
9616,-3.244143,1.750161,-6.739678,-0.028378,0.007194,-0.001998
9631,-3.227384,1.786074,-6.722918,-0.036905,0.008394,0.001599
9646,-3.399766,1.805228,-6.574478,-0.043433,0.008793,0.001466
9661,-3.157952,1.877054,-6.631938,-0.043966,0.010126,0.005862
9676,-3.308787,1.884237,-6.655880,-0.041968,0.024515,0.000266
9691,-3.277662,1.898602,-6.727706,-0.040369,0.022383,0.002665
9706,-3.248932,1.833959,-6.665457,-0.038237,0.027446,0.012524
9721,-3.126827,1.879448,-6.665457,-0.040636,0.027979,0.011191
9736,-3.265691,1.936909,-6.653486,-0.028378,0.029444,0.009193
9751,-3.320758,1.915361,-6.756437,-0.015322,0.022916,0.004530
9766,-3.282450,1.939303,-6.562507,-0.005596,0.024248,0.001199
9781,-3.248932,1.908179,-6.687005,0.001199,0.014123,-0.005995
9796,-3.244143,1.795651,-6.646304,-0.009593,0.006662,-0.008394
9811,-3.275268,1.699883,-6.631938,-0.029577,0.011991,-0.000133
9826,-3.318363,1.745373,-6.653486,-0.053159,0.007994,0.006795
9841,-3.184288,1.896208,-6.691793,-0.058755,0.005596,0.009593
9856,-3.203442,1.927332,-6.682217,-0.060487,0.010792,0.008926
9871,-3.380613,1.862689,-6.593631,-0.060354,0.009060,0.008527
9886,-3.232172,1.977611,-6.682217,-0.052227,0.014256,0.006928
9901,-3.217807,1.968034,-6.653486,-0.041302,0.020518,0.005329
9916,-3.232172,2.001553,-6.651092,-0.026247,0.026779,0.005329
9931,-3.277662,1.879448,-6.708553,-0.013057,0.031842,-0.000133
9946,-3.258508,1.814805,-6.572083,-0.013989,0.034773,0.001732
9961,-3.157952,1.783680,-6.572083,-0.024515,0.027312,0.006928
9976,-3.184288,1.817199,-6.634333,-0.027312,0.027446,0.005729
9991,-3.375824,1.745373,-6.691793,-0.036372,0.032908,0.009459
10006,-3.280056,1.975216,-6.703764,-0.036372,0.010392,0.008926
10021,-3.189077,1.996764,-6.660669,-0.027979,0.000400,-0.002398
10036,-3.172317,1.860295,-6.651092,-0.027712,0.011458,-0.003064
10051,-3.296816,1.855506,-6.617573,-0.026113,0.002531,-0.002398
10066,-3.375824,1.829170,-6.698976,-0.029577,0.001599,-0.004130
10081,-3.222595,1.927332,-6.624756,-0.041168,0.004530,0.001466
10096,-3.177106,1.905784,-6.646304,-0.045032,0.005196,-0.002398
10111,-3.217807,1.903390,-6.536170,-0.034640,0.011325,0.003864
10126,-3.371036,1.977611,-6.648698,-0.017853,0.013057,0.004530
10141,-3.239355,1.956063,-6.631938,0.000799,0.035040,-0.009992
10156,-3.248932,1.802834,-6.643909,-0.007328,0.027979,0.000400
10171,-3.284845,1.680730,-6.667851,-0.024781,0.025314,0.002398
10186,-3.303998,1.742979,-6.660669,-0.041035,0.026779,0.010392
10201,-3.277662,1.865083,-6.777985,-0.047963,0.029577,0.012391
10216,-3.186682,2.015918,-6.555324,-0.040902,0.018919,0.008926
10231,-3.287239,1.958457,-6.634333,-0.018386,0.009060,-0.001066
10246,-3.308787,1.905784,-6.605602,-0.017720,0.007994,-0.003464
10261,-3.251326,1.872266,-6.615179,-0.017986,0.007727,-0.003331
10276,-3.213019,1.917755,-6.691793,-0.012391,0.005862,-0.010392
10291,-3.263297,1.874660,-6.670246,-0.015988,0.008127,-0.003997
10306,-3.349488,1.817199,-6.710947,-0.019452,0.007994,-0.003864
10321,-3.256114,1.819593,-6.679822,-0.025047,0.008527,-0.004530
10336,-3.227384,1.848324,-6.660669,-0.028778,0.013989,0.001599
10351,-3.263297,1.831564,-6.675034,-0.033041,0.025181,0.007061
10366,-3.342305,1.865083,-6.660669,-0.027712,0.030377,-0.000799
10381,-3.313575,1.874660,-6.665457,-0.028511,0.023182,0.003464
10396,-3.193865,1.771709,-6.622362,-0.036639,0.027579,0.009726
10411,-3.215413,1.819593,-6.715735,-0.045032,0.026513,0.011058
10426,-3.325546,1.817199,-6.689399,-0.045299,0.023982,0.008926
10441,-3.315969,1.934515,-6.687005,-0.033841,0.024115,0.009459
10456,-3.196259,2.075773,-6.758832,-0.019185,0.013989,0.001865
10471,-3.155558,1.953669,-6.624756,-0.015455,0.009593,-0.002265
10486,-3.332729,1.786074,-6.629544,-0.013456,0.012524,-0.003331
10501,-3.330334,1.764527,-6.581660,-0.018253,0.006928,-0.003464
10516,-3.186682,1.838747,-6.677428,-0.027579,0.000400,-0.001865
10531,-3.208230,1.798045,-6.754043,-0.039969,0.009060,0.001332
10546,-3.301604,1.812411,-6.634333,-0.046897,0.007194,0.003864
10561,-3.361459,1.781286,-6.612785,-0.047430,0.012657,0.003597
10576,-3.265691,1.951274,-6.684611,-0.046098,0.023582,0.005596
10591,-3.193865,1.922544,-6.706159,-0.040636,0.025181,0.002398
10606,-3.282450,1.769315,-6.564901,-0.040369,0.030377,0.006129
10621,-3.315969,1.719037,-6.598420,-0.050228,0.030776,0.012923
10636,-3.181894,1.912967,-6.627150,-0.047697,0.030910,0.011858
10651,-3.208230,2.121263,-6.682217,-0.032375,0.031309,0.009193
10666,-3.244143,2.068590,-6.679822,-0.004130,0.015721,0.000266
10681,-3.383007,1.929726,-6.725312,0.024381,0.012923,-0.015721
10696,-3.282450,1.891419,-6.670246,0.028378,0.000666,-0.017187
10711,-3.220201,1.702277,-6.634333,0.006528,0.007594,-0.013323
10726,-3.294421,1.644817,-6.670246,-0.019851,0.004530,-0.008527
10741,-3.330334,1.661576,-6.706159,-0.038637,0.005862,0.002398
10756,-3.256114,1.812411,-6.603208,-0.056090,0.010259,0.007594
10771,-3.157952,1.845930,-6.607996,-0.060887,0.007194,0.007328
10786,-3.256114,1.874660,-6.619967,-0.055424,0.013057,0.008260
10801,-3.363853,1.819593,-6.469133,-0.062885,0.026913,0.012257
10816,-3.253720,1.968034,-6.754043,-0.033175,0.019718,0.005462
10831,-3.143587,1.898602,-6.622362,-0.035306,0.042767,0.001732
10846,-3.236961,1.687912,-6.708553,-0.034107,0.017986,0.008260
10861,-3.284845,1.771709,-6.754043,-0.050228,0.028378,0.015855
10876,-3.294421,1.860295,-6.651092,-0.040636,0.037971,0.009459
10891,-3.165135,2.059013,-6.794744,-0.023982,0.008660,0.004663
10906,-3.284845,1.936909,-6.679822,-0.016787,0.022783,-0.005462
10921,-3.327940,1.898602,-6.687005,-0.014655,-0.002931,-0.005729
10936,-3.244143,1.833959,-6.593631,-0.013723,0.009992,-0.005196
10951,-3.215413,1.845930,-6.687005,-0.016121,0.003464,-0.008793
10966,-3.184288,1.810017,-6.713341,-0.025714,-0.001599,-0.003997
10981,-3.287239,1.805228,-6.665457,-0.036239,0.017720,-0.000799
10996,-3.347094,1.802834,-6.655880,-0.041835,0.004130,0.001732
11011,-3.198653,1.865083,-6.684611,-0.045698,0.016254,0.005862
11026,-3.289633,1.908179,-6.538565,-0.038637,0.024115,0.009060
11041,-3.332729,1.795651,-6.672640,-0.038237,0.021051,0.008793
11056,-3.344700,1.762132,-6.665457,-0.045832,0.033574,0.013856
11071,-3.232172,1.778892,-6.655880,-0.054758,0.039170,0.013057
11086,-3.196259,1.886631,-6.627150,-0.053159,0.029178,0.013057
11101,-3.236961,1.920150,-6.691793,-0.043966,0.035173,0.011724
11116,-3.289633,2.018312,-6.607996,-0.034507,0.018253,0.006528
11131,-3.222595,2.078167,-6.684611,-0.016121,0.012124,-0.001066
11146,-3.169923,1.970428,-6.648698,-0.007727,0.011858,-0.010392
11161,-3.282450,1.788469,-6.708553,-0.003064,0.003597,-0.013723
11176,-3.217807,1.807622,-6.727706,-0.007461,0.002798,-0.010792
11191,-3.263297,1.857901,-6.756437,-0.019452,0.011325,-0.004530
11206,-3.277662,1.821988,-6.624756,-0.028378,0.009593,-0.005063
11221,-3.241749,1.879448,-6.720524,-0.028511,0.000799,-0.005862
11236,-3.411737,1.776498,-6.672640,-0.038104,0.012790,0.000000
11251,-3.303998,1.843535,-6.605602,-0.035839,0.018786,0.000000
11266,-3.177106,1.920150,-6.658275,-0.028511,0.025047,0.004663
11281,-3.268085,1.738190,-6.653486,-0.041568,0.034240,0.010259
11296,-3.301604,1.783680,-6.629544,-0.052227,0.031576,0.010925
11311,-3.208230,1.855506,-6.710947,-0.048763,0.030377,0.009459
11326,-3.172317,1.879448,-6.607996,-0.041035,0.028245,0.006795
11341,-3.153164,2.001553,-6.730101,-0.035573,0.021184,0.007594
11356,-3.363853,2.030283,-6.715735,-0.017587,0.017720,-0.003597
11371,-3.292027,1.889025,-6.658275,-0.012923,0.005862,-0.007994
11386,-3.167529,1.898602,-6.660669,-0.007861,0.007594,-0.008394
11401,-3.217807,1.831564,-6.682217,-0.001998,0.002531,-0.011191
11416,-3.335123,1.766921,-6.730101,-0.012257,0.004530,-0.009060
11431,-3.349488,1.829170,-6.703764,-0.019185,0.011858,-0.006662
11446,-3.234566,1.814805,-6.598420,-0.015188,0.013323,-0.005196
11461,-3.282450,1.781286,-6.687005,-0.017720,0.025847,0.001732
11476,-3.378219,1.738190,-6.691793,-0.028645,0.022783,0.013057
11491,-3.234566,1.795651,-6.603208,-0.030776,0.027046,0.003198
11506,-3.213019,1.731008,-6.708553,-0.050228,0.029577,0.010658
11521,-3.184288,1.690306,-6.615179,-0.071678,0.031309,0.021983
11536,-3.222595,1.836353,-6.634333,-0.071412,0.041435,0.021583
11551,-3.287239,2.051831,-6.624756,-0.046897,0.035040,0.014256
11566,-3.153164,1.996764,-6.744466,-0.011458,0.013723,-0.003198
11581,-3.186682,1.977611,-6.727706,0.008793,0.008127,-0.007994
11596,-3.229778,1.824382,-6.698976,0.005462,0.000133,-0.010392
11611,-3.330334,1.697489,-6.651092,-0.001332,0.004796,-0.009593
11626,-3.289633,1.728614,-6.619967,-0.011458,0.004796,-0.006262
11641,-3.181894,1.766921,-6.655880,-0.024648,0.002931,0.000133
11656,-3.270479,1.793257,-6.708553,-0.038770,0.013190,0.001466
11671,-3.315969,1.841141,-6.682217,-0.039436,0.009593,0.004263
11686,-3.282450,1.924938,-6.607996,-0.035306,0.019052,-0.001599
11701,-3.265691,1.963245,-6.605602,-0.021317,0.035173,-0.002665
11716,-3.244143,1.793257,-6.643909,-0.026113,0.015588,0.005329
11731,-3.268085,1.735796,-6.490681,-0.037172,0.030643,0.002265
11746,-3.236961,1.680730,-6.639121,-0.057556,0.023848,0.010525
11761,-3.193865,1.774103,-6.663063,-0.065550,0.026779,0.018386
11776,-3.227384,1.865083,-6.598420,-0.069547,0.025047,0.020251
11791,-3.330334,2.001553,-6.768408,-0.049296,0.018652,0.011991
11806,-3.256114,2.013524,-6.670246,-0.032242,0.011191,0.000133
11821,-3.110068,2.015918,-6.557718,-0.014123,0.010525,-0.001865
11836,-3.193865,1.920150,-6.670246,-0.000400,0.002931,-0.009193
11851,-3.315969,1.903390,-6.732495,0.015322,0.002132,-0.014655
11866,-3.258508,1.807622,-6.701370,0.011191,0.003730,-0.019185
11881,-3.203442,1.695095,-6.677428,-0.002398,0.000933,-0.012657
11896,-3.323152,1.798045,-6.727706,-0.022516,0.007194,-0.000266
11911,-3.277662,1.829170,-6.694188,-0.026247,0.020651,-0.001732
11926,-3.342305,1.900996,-6.598420,-0.022383,0.031576,-0.001998
11941,-3.184288,1.831564,-6.701370,-0.028645,0.020251,-0.000133
11956,-3.208230,1.661576,-6.560112,-0.039703,0.030377,0.005196
11971,-3.253720,1.647211,-6.698976,-0.056890,0.024914,0.013723
11986,-3.337517,1.781286,-6.643909,-0.077008,0.025980,0.024781
12001,-3.184288,2.030283,-6.691793,-0.061819,0.020784,0.018786
12016,-3.141193,2.008735,-6.718130,-0.037438,0.016521,0.006795
12031,-3.301604,1.982399,-6.675034,-0.010658,0.007861,-0.005462
12046,-3.296816,1.934515,-6.634333,0.007861,-0.000933,-0.012790
12061,-3.203442,1.879448,-6.718130,0.011058,0.003864,-0.015588
12076,-3.169923,1.867477,-6.727706,0.007861,0.007461,-0.015588
12091,-3.327940,1.740585,-6.677428,-0.000533,0.002265,-0.013057
12106,-3.394978,1.742979,-6.576872,-0.008127,0.011724,-0.011058
12121,-3.301604,1.786074,-6.787562,-0.025314,0.012790,-0.003597
12136,-3.215413,1.754950,-6.713341,-0.029711,0.015322,0.000400
12151,-3.282450,1.683124,-6.581660,-0.037704,0.019718,0.001599
12166,-3.359065,1.707066,-6.562507,-0.047164,0.034507,0.006262
12181,-3.229778,1.654393,-6.588843,-0.074077,0.021051,0.019851
12196,-3.162740,1.855506,-6.667851,-0.079406,0.029044,0.024914
12211,-3.244143,1.915361,-6.641515,-0.066482,0.031842,0.018919
12226,-3.296816,1.912967,-6.643909,-0.038637,0.021184,0.009726
12241,-3.234566,2.011129,-6.694188,-0.031576,0.013456,0.005995
12256,-3.181894,2.030283,-6.739678,-0.008527,0.006395,-0.005596
12271,-3.213019,1.927332,-6.651092,-0.002531,0.009859,-0.010658
12286,-3.342305,1.850718,-6.634333,0.020384,0.001599,-0.015721
12301,-3.215413,1.766921,-6.718130,0.024115,0.002265,-0.019851
12316,-3.229778,1.714248,-6.725312,0.013057,-0.000933,-0.016254
12331,-3.363853,1.436521,-6.622362,-0.033175,0.005995,-0.004130
12346,-3.327940,1.675941,-6.639121,-0.060354,0.002665,0.008660
12361,-3.289633,1.819593,-6.627150,-0.043700,0.021184,0.000933
12376,-3.220201,1.766921,-6.801927,-0.040769,0.027046,0.003331
12391,-3.198653,1.716643,-6.615179,-0.037438,0.023315,0.007594
12406,-3.289633,1.625663,-6.746861,-0.044766,0.029444,0.017054
12421,-3.241749,1.735796,-6.701370,-0.066882,0.039436,0.021317
12436,-3.229778,1.968034,-6.701370,-0.055158,0.033841,0.018652
12451,-3.148375,2.109292,-6.603208,-0.011724,0.018119,0.000666
12466,-3.234566,1.910573,-6.749255,0.011458,0.011991,-0.006395
12481,-3.363853,1.793257,-6.777985,-0.000266,0.012391,-0.012524
12496,-3.239355,1.786074,-6.572083,-0.014789,0.004263,-0.006528
12511,-3.112462,1.788469,-6.722918,-0.021317,0.001998,-0.005729
12526,-3.327940,1.821988,-6.643909,-0.017720,0.005063,-0.012657
12541,-3.323152,1.817199,-6.703764,-0.003198,0.005329,-0.007194
12556,-3.239355,1.821988,-6.780379,-0.019585,0.012524,-0.008926
12571,-3.366247,1.793257,-6.660669,-0.027312,0.018519,-0.001599
12586,-3.327940,1.711854,-6.603208,-0.041835,0.009726,0.012124
12601,-3.399766,1.953669,-6.682217,-0.026247,0.030910,0.003331
12616,-3.320758,1.793257,-6.610391,-0.017986,0.027046,-0.002798
12631,-3.179500,1.697489,-6.653486,-0.019985,0.029711,-0.004263
12646,-3.282450,1.599327,-6.581660,-0.038104,0.030776,0.005729
12661,-3.308787,1.742979,-6.579266,-0.058222,0.030910,0.016387
12676,-3.284845,1.944092,-6.610391,-0.059155,0.028778,0.012124
12691,-3.145981,1.987187,-6.698976,-0.036772,0.012790,0.002798
12706,-3.198653,1.884237,-6.770802,-0.021983,0.008527,-0.006928
12721,-3.299210,1.774103,-6.710947,-0.016521,-0.001332,-0.006795
12736,-3.284845,1.726219,-6.572083,-0.022383,0.003464,-0.002398
12751,-3.268085,1.812411,-6.701370,-0.032775,0.001332,0.002398
12766,-3.191471,1.896208,-6.715735,-0.026247,0.006528,-0.005329
12781,-3.392584,1.865083,-6.677428,-0.006395,0.005462,-0.009726
12796,-3.292027,1.750161,-6.742072,-0.005995,0.014789,-0.012923
12811,-3.217807,1.704672,-6.562507,-0.011191,0.015855,-0.002132
12826,-3.268085,1.824382,-6.713341,-0.004397,0.021983,-0.001466
12841,-3.342305,1.668759,-6.689399,-0.008260,0.021850,-0.003331
12856,-3.236961,1.702277,-6.766014,-0.013190,0.028378,-0.000266
12871,-3.193865,1.637634,-6.694188,-0.024381,0.021850,0.004130
12886,-3.265691,1.604115,-6.655880,-0.049029,0.025047,0.018919
12901,-3.268085,1.754950,-6.689399,-0.071945,0.026247,0.023315
12916,-3.239355,2.011129,-6.670246,-0.061153,0.017986,0.017187
12931,-3.299210,1.948880,-6.677428,-0.033041,0.003730,0.001599
12946,-3.141193,1.975216,-6.502652,-0.017720,0.005729,-0.006928
12961,-3.280056,1.862689,-6.708553,0.001466,0.000933,-0.013057
12976,-3.210624,1.790863,-6.835446,0.009859,-0.007328,-0.008793
12991,-3.263297,1.723825,-6.720524,-0.006795,0.012524,-0.013723
13006,-3.292027,1.786074,-6.715735,-0.004663,0.006528,-0.014256
13021,-3.289633,1.649605,-6.696582,-0.021850,0.012124,-0.006528
13036,-3.224990,1.764527,-6.651092,-0.045432,0.025047,0.005995
13051,-3.193865,1.683124,-6.727706,-0.030776,0.028778,-0.001066
13066,-3.356671,1.757344,-6.655880,-0.027446,0.036772,0.003597
13081,-3.246537,1.661576,-6.634333,-0.033574,0.020118,0.003864
13096,-3.119645,1.647211,-6.701370,-0.045832,0.024781,0.011191
13111,-3.234566,1.766921,-6.655880,-0.059554,0.025980,0.015188
13126,-3.380613,1.841141,-6.715735,-0.066083,0.019851,0.019985
13141,-3.263297,1.915361,-6.768408,-0.074343,0.010925,0.018386
13156,-3.258508,1.934515,-6.701370,-0.047963,0.010925,0.007328
13171,-3.126827,1.965640,-6.675034,-0.021583,0.002531,-0.000400
13186,-3.203442,1.869871,-6.658275,-0.003198,-0.005462,-0.000533
13201,-3.351882,1.826776,-6.670246,-0.018119,0.017187,-0.005196
13216,-3.296816,1.970428,-6.670246,0.001998,0.006795,-0.010525
13231,-3.177106,1.829170,-6.651092,-0.005596,0.003730,-0.010658
13246,-3.330334,1.711854,-6.603208,0.000933,0.014123,-0.010259
13261,-3.308787,1.695095,-6.653486,-0.006395,0.025314,-0.008527
13276,-3.306392,1.601721,-6.722918,-0.033308,0.034640,0.000266
13291,-3.215413,1.570596,-6.667851,-0.061153,0.027979,0.012524
13306,-3.265691,1.594538,-6.687005,-0.086467,0.028778,0.033308
13321,-3.368642,1.845930,-6.679822,-0.079139,0.042900,0.029444
13336,-3.275268,1.951274,-6.591237,-0.054492,0.025181,0.015055
13351,-3.122039,1.994370,-6.777985,-0.038371,0.017720,0.007461
13366,-3.239355,1.845930,-6.756437,-0.027712,0.013590,0.003730
13381,-3.366247,1.802834,-6.746861,-0.017187,0.005995,-0.001865
13396,-3.236961,1.860295,-6.670246,-0.025980,-0.003597,0.002798
13411,-3.203442,1.900996,-6.643909,-0.021051,0.001332,-0.005462
13426,-3.270479,1.869871,-6.591237,-0.012657,0.001865,-0.003997
13441,-3.335123,1.750161,-6.631938,-0.015322,0.006395,-0.008660
13456,-3.368642,1.776498,-6.615179,-0.012790,0.008660,-0.008660
13471,-3.189077,1.752556,-6.569689,-0.020651,0.015988,-0.001066
13486,-3.201048,1.728614,-6.751649,-0.022783,0.036772,-0.002931
13501,-3.385401,1.683124,-6.677428,-0.033308,0.041701,0.004397
13516,-3.270479,1.620875,-6.639121,-0.050894,0.030243,0.016920
13531,-3.126827,1.683124,-6.667851,-0.061153,0.035440,0.017320
13546,-3.162740,1.793257,-6.550536,-0.056490,0.035173,0.012657
13561,-3.351882,1.771709,-6.679822,-0.055424,0.029178,0.015188
13576,-3.239355,1.865083,-6.617573,-0.043567,0.012657,0.009193
13591,-3.160346,1.905784,-6.593631,-0.037438,0.007194,0.003464
13606,-3.241749,1.877054,-6.732495,-0.033574,0.005995,-0.002798
13621,-3.315969,1.783680,-6.660669,-0.023449,-0.001466,-0.002798
13636,-3.282450,1.819593,-6.667851,-0.022250,0.002132,-0.003597
13651,-3.220201,1.812411,-6.667851,-0.023049,0.007461,-0.002132
13666,-3.277662,1.853112,-6.617573,-0.025314,0.009459,-0.003730
13681,-3.296816,1.776498,-6.612785,-0.022383,0.012657,0.000533
13696,-3.337517,1.874660,-6.684611,-0.023715,0.026913,0.000133
13711,-3.234566,1.843535,-6.670246,-0.005729,0.027446,-0.005862
13726,-3.208230,1.673547,-6.713341,-0.013057,0.030776,0.002665
13741,-3.292027,1.640028,-6.679822,-0.029178,0.035706,0.005063
13756,-3.323152,1.680730,-6.605602,-0.032109,0.029977,0.003997
13771,-3.136404,1.805228,-6.655880,-0.032375,0.018386,0.005462
13786,-3.172317,1.829170,-6.627150,-0.020917,0.016521,0.003198
13801,-3.224990,1.771709,-6.677428,-0.017587,0.003198,-0.002931
13816,-3.342305,1.745373,-6.782773,-0.023449,-0.001332,-0.005196
13831,-3.268085,1.704672,-6.631938,-0.041701,0.002798,-0.003864
13846,-3.224990,1.762132,-6.574478,-0.055691,0.003198,0.009859
13861,-3.179500,1.769315,-6.612785,-0.060221,0.009726,0.005063
13876,-3.366247,1.817199,-6.646304,-0.055824,0.010259,0.007727
13891,-3.258508,1.956063,-6.560112,-0.046764,0.016121,0.002265
13906,-3.213019,1.968034,-6.761226,-0.019452,0.017587,-0.005196
13921,-3.289633,1.855506,-6.689399,-0.006129,0.027179,-0.003464
13936,-3.306392,1.754950,-6.619967,-0.009459,0.027712,-0.003331
13951,-3.332729,1.771709,-6.610391,-0.003997,0.040103,-0.005729
13966,-3.229778,1.726219,-6.598420,-0.004130,0.025047,-0.004663
13981,-3.189077,1.726219,-6.696582,-0.017720,0.020118,-0.001865
13996,-3.306392,1.620875,-6.639121,-0.021450,0.017320,0.000133
14011,-3.371036,1.668759,-6.603208,-0.036639,0.015188,0.007727
14026,-3.196259,1.747767,-6.739678,-0.059821,0.009593,0.010259
14041,-3.270479,1.843535,-6.634333,-0.060487,0.003730,0.008127
14056,-3.294421,1.829170,-6.698976,-0.052493,0.006129,0.009859
14071,-3.318363,1.884237,-6.670246,-0.040769,0.004930,0.000000
14086,-3.210624,1.829170,-6.634333,-0.031842,0.001865,-0.002398
14101,-3.270479,1.795651,-6.677428,-0.030110,0.008660,-0.001998
14116,-3.361459,1.819593,-6.658275,-0.020784,0.004663,-0.007594
14131,-3.337517,1.831564,-6.682217,-0.010126,0.012923,-0.008394
14146,-3.227384,1.726219,-6.780379,-0.004530,0.028911,-0.007994
14161,-3.241749,1.683124,-6.677428,-0.014922,0.032642,-0.003997
14176,-3.337517,1.635240,-6.629544,-0.027979,0.031043,0.004263
14191,-3.392584,1.628057,-6.629544,-0.045032,0.031576,0.012124
14206,-3.193865,1.762132,-6.586449,-0.059554,0.040502,0.018253
14221,-3.172317,1.934515,-6.655880,-0.045565,0.024248,0.016121
14236,-3.241749,1.877054,-6.631938,-0.029977,0.018652,0.009060
14251,-3.263297,1.865083,-6.675034,-0.017187,0.006795,0.001199
14266,-3.251326,1.805228,-6.766014,-0.018253,0.003597,-0.005196
14281,-3.256114,1.821988,-6.732495,-0.027446,-0.003597,-0.001732
14296,-3.263297,1.678335,-6.660669,-0.032775,0.000533,0.001066
14311,-3.354276,1.738190,-6.607996,-0.042101,0.003597,0.001332
14326,-3.246537,1.704672,-6.581660,-0.053026,0.009326,0.002398
14341,-3.184288,1.860295,-6.636727,-0.047697,0.008127,0.001066
14356,-3.265691,1.920150,-6.722918,-0.033841,0.019052,-0.004397
14371,-3.402161,1.845930,-6.720524,-0.009593,0.035440,-0.006395
14386,-3.263297,1.786074,-6.545747,-0.013057,0.022116,-0.004930
14401,-3.186682,1.742979,-6.631938,-0.019185,0.035040,-0.002132
14416,-3.306392,1.563414,-6.670246,-0.038770,0.040502,0.011058
14431,-3.394978,1.637634,-6.564901,-0.077674,0.043034,0.023848
14446,-3.169923,1.927332,-6.696582,-0.063551,0.022250,0.022916
14461,-3.112462,2.047042,-6.588843,-0.034640,0.018119,0.009859
14476,-3.150769,2.075773,-6.713341,-0.013057,0.008926,0.001732
14491,-3.339911,1.881842,-6.710947,0.009859,0.000266,-0.013989
14506,-3.308787,1.728614,-6.708553,0.007461,-0.013190,-0.011591
14521,-3.213019,1.637634,-6.751649,-0.015721,-0.003064,-0.011724
14536,-3.268085,1.704672,-6.648698,-0.028778,-0.000666,-0.002931
14551,-3.325546,1.651999,-6.670246,-0.045698,0.003198,-0.001466
14566,-3.296816,1.752556,-6.639121,-0.055291,0.012790,0.001732
14581,-3.232172,1.829170,-6.663063,-0.046897,0.011591,-0.000133
14596,-3.210624,1.924938,-6.703764,-0.021850,0.021850,-0.002398
14611,-3.292027,1.752556,-6.653486,-0.016654,0.029444,-0.001599
14626,-3.404555,1.640028,-6.615179,-0.020917,0.041302,0.005862
14641,-3.181894,1.678335,-6.701370,-0.044499,0.033308,0.014389
14656,-3.177106,1.728614,-6.562507,-0.046364,0.032109,0.013456
14671,-3.306392,1.733402,-6.631938,-0.047564,0.029044,0.017587
14686,-3.306392,1.891419,-6.639121,-0.046231,0.028112,0.019585
14701,-3.205836,2.085350,-6.670246,-0.023315,0.009992,0.003198
14716,-3.153164,1.953669,-6.727706,0.000000,-0.005063,-0.010925
14731,-3.347094,1.680730,-6.658275,0.002798,-0.014789,-0.017986
14746,-3.354276,1.527501,-6.629544,-0.022516,0.003198,-0.006928
14761,-3.210624,1.671153,-6.756437,-0.053159,0.008926,0.003864
14776,-3.203442,1.788469,-6.737284,-0.059421,0.009060,0.008394
14791,-3.268085,1.845930,-6.567295,-0.057156,0.011325,0.003864
14806,-3.380613,1.910573,-6.639121,-0.029444,0.020784,-0.005729
14821,-3.268085,1.889025,-6.667851,-0.008660,0.023715,-0.009726
14836,-3.141193,1.671153,-6.531382,-0.013989,0.032375,-0.001998
14851,-3.332729,1.582567,-6.689399,-0.018386,0.038904,0.004663
14866,-3.315969,1.671153,-6.749255,-0.043700,0.033308,0.013723
14881,-3.287239,1.690306,-6.624756,-0.050761,0.032109,0.011858
14896,-3.198653,1.735796,-6.691793,-0.049828,0.035173,0.014389
14911,-3.282450,1.872266,-6.603208,-0.043700,0.024248,0.014789
14926,-3.313575,1.910573,-6.612785,-0.034640,0.000400,0.010259
14941,-3.280056,1.936909,-6.758832,-0.015322,0.001599,-0.006395
14956,-3.205836,1.824382,-6.593631,-0.008660,-0.006395,-0.013590
14971,-3.272874,1.628057,-6.672640,-0.029311,-0.004130,-0.006262
14986,-3.272874,1.668759,-6.682217,-0.049296,-0.001599,0.001466
15001,-3.301604,1.716643,-6.619967,-0.058089,0.010525,0.005596
15016,-3.160346,1.960851,-6.684611,-0.048629,0.003997,0.004130
15031,-3.241749,1.941698,-6.641515,-0.019052,0.013323,0.002665
15046,-3.399766,1.958457,-6.777985,0.009859,0.039836,-0.009726
15061,-3.311181,1.699883,-6.639121,0.014389,0.017986,-0.010925
15076,-3.162740,1.529895,-6.639121,-0.004130,0.029577,-0.007727
15091,-3.306392,1.431733,-6.600814,-0.045832,0.028511,0.007461
15106,-3.265691,1.539472,-6.715735,-0.086867,0.034240,0.024115
15121,-3.337517,1.754950,-6.641515,-0.097126,0.034374,0.027712
15136,-3.177106,2.013524,-6.713341,-0.077008,0.019052,0.023982
15151,-3.177106,2.109292,-6.708553,-0.039969,0.010126,0.011858
15166,-3.280056,2.035071,-6.732495,-0.016920,0.000266,-0.009726
15181,-3.308787,1.908179,-6.718130,0.006395,-0.003730,-0.017187
15196,-3.234566,1.766921,-6.701370,-0.000133,0.002265,-0.015188
15211,-3.227384,1.711854,-6.703764,-0.011724,0.002531,-0.012923
15226,-3.294421,1.685518,-6.648698,-0.026380,0.007861,-0.002398
15241,-3.373430,1.769315,-6.742072,-0.027046,0.015188,-0.000266
15256,-3.289633,1.817199,-6.710947,-0.013057,0.013723,-0.001998
15271,-3.236961,1.855506,-6.653486,-0.018652,0.032775,-0.000133
15286,-3.311181,1.702277,-6.696582,-0.018119,0.040236,0.000799
15301,-3.335123,1.589750,-6.648698,-0.021317,0.033175,0.006928
15316,-3.251326,1.592144,-6.579266,-0.038504,0.038237,0.008926
15331,-3.222595,1.596933,-6.536170,-0.056623,0.033441,0.015855
15346,-3.229778,1.731008,-6.653486,-0.068081,0.026513,0.024248
15361,-3.289633,1.884237,-6.634333,-0.060487,0.013989,0.021583
15376,-3.275268,2.039860,-6.651092,-0.029178,0.008926,0.002398
15391,-3.157952,1.917755,-6.677428,-0.006928,-0.006662,-0.008260
15406,-3.229778,1.776498,-6.643909,-0.005196,-0.010259,-0.013723
15421,-3.351882,1.644817,-6.722918,-0.017453,-0.002665,-0.005729
15436,-3.315969,1.666364,-6.634333,-0.038504,0.001332,-0.002265
15451,-3.232172,1.738190,-6.689399,-0.059288,0.011991,0.003464
15466,-3.236961,1.752556,-6.713341,-0.067815,0.009992,0.004397
15481,-3.380613,1.680730,-6.701370,-0.067149,0.024248,0.013323
15496,-3.342305,1.848324,-6.598420,-0.052093,0.039303,0.009060
15511,-3.232172,1.896208,-6.600814,-0.028511,0.031709,-0.003064
15526,-3.153164,1.659182,-6.665457,-0.028511,0.032242,0.004663
15541,-3.296816,1.630451,-6.615179,-0.047430,0.036505,0.018519
15556,-3.342305,1.742979,-6.670246,-0.059155,0.035173,0.017986
15571,-3.169923,1.920150,-6.567295,-0.047963,0.019851,0.016254
15586,-3.155558,2.032677,-6.706159,-0.032375,0.014922,0.004930
15601,-3.296816,2.001553,-6.648698,-0.007861,0.005462,-0.005729
15616,-3.325546,1.872266,-6.581660,0.010392,-0.004130,-0.015055
15631,-3.268085,1.812411,-6.636727,0.013723,-0.008394,-0.017320
15646,-3.196259,1.651999,-6.722918,-0.008527,-0.004930,-0.012657
15661,-3.330334,1.632846,-6.706159,-0.032642,0.001865,-0.004796
15676,-3.366247,1.685518,-6.730101,-0.045432,0.011191,-0.002132
15691,-3.323152,1.762132,-6.701370,-0.055557,0.014522,0.003198
15706,-3.186682,1.848324,-6.682217,-0.049962,0.029577,0.006662
15721,-3.332729,1.831564,-6.660669,-0.041701,0.046364,0.004796
15736,-3.375824,1.831564,-6.689399,-0.033841,0.030910,0.002798
15751,-3.248932,1.723825,-6.636727,-0.025847,0.018119,0.001466
15766,-3.244143,1.659182,-6.665457,-0.040769,0.039436,0.011991
15781,-3.239355,1.630451,-6.691793,-0.058489,0.031709,0.017853
15796,-3.308787,1.690306,-6.672640,-0.064484,0.031576,0.021051
15811,-3.227384,1.867477,-6.734890,-0.069813,0.017720,0.018652
15826,-3.201048,2.015918,-6.679822,-0.045165,0.007994,0.006795
15841,-3.236961,1.934515,-6.766014,-0.024648,-0.009459,-0.003730
15856,-3.327940,1.807622,-6.706159,-0.006262,-0.004397,-0.012923
15871,-3.306392,1.750161,-6.679822,-0.017587,-0.002398,-0.007594
15886,-3.224990,1.764527,-6.732495,-0.024515,0.002265,-0.005596
15901,-3.253720,1.879448,-6.720524,-0.032109,0.009459,-0.007328
15916,-3.318363,1.781286,-6.627150,-0.033708,0.008527,-0.006928
15931,-3.311181,1.843535,-6.643909,-0.027046,0.022649,-0.009326
15946,-3.205836,1.781286,-6.615179,-0.023848,0.022783,-0.002265
15961,-3.134010,1.764527,-6.677428,-0.034240,0.037438,0.011858
15976,-3.375824,1.841141,-6.574478,-0.031842,0.041302,0.010525
15991,-3.315969,1.754950,-6.528988,-0.024914,0.032242,0.005995
16006,-3.193865,1.673547,-6.713341,-0.035706,0.031576,0.007194
16021,-3.184288,1.635240,-6.639121,-0.060487,0.032642,0.022649
16036,-3.258508,1.798045,-6.643909,-0.070346,0.012657,0.023582
16051,-3.251326,1.968034,-6.739678,-0.054758,0.013456,0.007594
16066,-3.236961,1.968034,-6.653486,-0.043567,0.004397,0.001865
16081,-3.184288,1.924938,-6.540959,-0.023182,-0.008660,-0.007994
16096,-3.227384,1.817199,-6.648698,-0.021717,-0.003064,-0.006795
16111,-3.373430,1.877054,-6.696582,-0.017453,0.003331,-0.013323
16126,-3.275268,1.824382,-6.677428,-0.031309,0.003864,-0.002265
16141,-3.222595,1.853112,-6.624756,-0.029711,0.019718,-0.002798
16156,-3.375824,1.752556,-6.687005,-0.009459,0.026513,-0.004397
16171,-3.390190,1.790863,-6.713341,-0.012524,0.039570,-0.004530
16186,-3.232172,1.762132,-6.603208,-0.014389,0.021717,-0.000533
16201,-3.155558,1.685518,-6.629544,-0.032242,0.040902,0.007194
16216,-3.311181,1.563414,-6.627150,-0.066349,0.037838,0.013323
16231,-3.272874,1.635240,-6.768408,-0.071945,0.030243,0.020917
16246,-3.157952,1.972822,-6.675034,-0.068614,0.020917,0.022383
16261,-3.098097,2.003947,-6.703764,-0.049029,0.015455,0.011591
16276,-3.265691,1.946486,-6.670246,-0.029444,-0.003064,-0.002398
16291,-3.366247,1.836353,-6.722918,-0.021317,-0.007994,-0.006395
16306,-3.323152,1.800440,-6.643909,-0.028645,-0.002798,-0.002531
16321,-3.256114,1.855506,-6.744466,-0.035573,0.000133,-0.001466
16336,-3.296816,1.750161,-6.617573,-0.057023,0.017720,0.001865
16351,-3.375824,1.826776,-6.734890,-0.046764,-0.000266,0.000133
16366,-3.246537,1.877054,-6.617573,-0.041168,0.012923,0.000266
16381,-3.244143,1.994370,-6.610391,-0.010925,0.028911,-0.004130
16396,-3.423708,1.745373,-6.651092,-0.008793,0.023848,-0.000666
16411,-3.306392,1.745373,-6.679822,-0.020917,0.037571,0.009193
16426,-3.169923,1.604115,-6.622362,-0.055424,0.027046,0.023715
16441,-3.270479,1.659182,-6.612785,-0.087933,0.047164,0.027712
16456,-3.306392,1.786074,-6.648698,-0.092596,0.023449,0.028245
16471,-3.208230,2.013524,-6.684611,-0.085801,0.030776,0.028778
16486,-3.201048,2.070984,-6.651092,-0.058355,0.014922,0.013856
16501,-3.241749,2.042254,-6.634333,-0.025580,0.003198,-0.004530
16516,-3.315969,1.850718,-6.629544,-0.013190,-0.004663,-0.007994
16531,-3.251326,1.812411,-6.663063,-0.015322,0.001865,-0.010259
16546,-3.234566,1.831564,-6.572083,-0.025847,-0.003864,-0.003864
16561,-3.277662,1.795651,-6.713341,-0.031043,0.002531,-0.008127
16576,-3.342305,1.819593,-6.624756,-0.030776,0.005462,-0.004530
16591,-3.311181,1.884237,-6.612785,-0.021450,0.012923,-0.004130
16606,-3.253720,1.831564,-6.646304,-0.015322,0.032242,-0.001066
16621,-3.251326,1.781286,-6.670246,-0.026779,0.035706,0.008926
16636,-3.282450,1.726219,-6.574478,-0.029977,0.033574,0.007328
16651,-3.260903,1.752556,-6.648698,-0.037438,0.037305,0.008127
16666,-3.153164,1.752556,-6.655880,-0.048363,0.027979,0.009193
16681,-3.236961,1.742979,-6.675034,-0.061819,0.027046,0.016787
16696,-3.284845,1.814805,-6.658275,-0.055691,0.015055,0.014522
16711,-3.258508,1.975216,-6.617573,-0.044766,0.011191,0.009726
16726,-3.119645,2.116474,-6.742072,-0.018519,-0.008260,-0.001332
16741,-3.234566,1.991976,-6.663063,-0.005729,-0.000533,-0.003464
16756,-3.289633,1.855506,-6.615179,0.002398,-0.006262,-0.010525
16771,-3.356671,1.819593,-6.655880,-0.000133,-0.008793,-0.009859
16786,-3.229778,1.812411,-6.679822,-0.017187,0.000133,-0.005995
16801,-3.263297,1.829170,-6.689399,-0.023449,0.003864,-0.007194
16816,-3.378219,1.790863,-6.646304,-0.021583,0.012391,-0.003730
16831,-3.399766,1.719037,-6.684611,-0.018652,0.031043,-0.005196
16846,-3.239355,1.771709,-6.639121,-0.042634,0.035573,0.004930
16861,-3.179500,1.735796,-6.636727,-0.055691,0.033441,0.012524
16876,-3.282450,1.723825,-6.672640,-0.063152,0.030510,0.018786
16891,-3.327940,1.781286,-6.646304,-0.065017,0.032375,0.017054
16906,-3.246537,1.968034,-6.722918,-0.061553,0.034507,0.016787
16921,-3.102885,2.027889,-6.612785,-0.039170,0.013456,0.007594
16936,-3.196259,2.018312,-6.718130,-0.027845,0.004130,-0.000933
16951,-3.292027,1.917755,-6.677428,-0.022649,-0.001732,-0.003997
16966,-3.260903,2.068590,-6.655880,-0.001466,-0.011724,-0.008394
16981,-3.258508,2.001553,-6.687005,0.005063,0.000133,-0.018386
16996,-3.265691,1.874660,-6.696582,0.016920,0.000933,-0.020118
17011,-3.306392,1.757344,-6.691793,0.007328,0.003331,-0.010525
17026,-3.277662,1.829170,-6.596025,0.007994,0.014922,-0.012124
17041,-3.189077,1.754950,-6.612785,0.007461,0.012657,-0.012923
17056,-3.313575,1.757344,-6.655880,0.001199,0.029977,-0.015588
17071,-3.378219,1.618480,-6.670246,-0.005462,0.031309,-0.006795
17086,-3.301604,1.546654,-6.603208,-0.041835,0.035972,0.004930
17101,-3.224990,1.625663,-6.588843,-0.070613,0.034107,0.019452
17116,-3.222595,1.690306,-6.689399,-0.088332,0.038237,0.027312
17131,-3.294421,1.766921,-6.586449,-0.100723,0.039037,0.032908
17146,-3.241749,1.934515,-6.576872,-0.090864,0.028112,0.034640
17161,-3.148375,2.176329,-6.677428,-0.064084,0.013057,0.022250
17176,-3.205836,2.121263,-6.710947,-0.032775,0.002798,0.001599
17191,-3.299210,1.920150,-6.749255,-0.010925,-0.021717,-0.012124
17206,-3.323152,1.766921,-6.675034,-0.015721,-0.008127,-0.009193
17221,-3.236961,1.826776,-6.720524,-0.034240,-0.003464,-0.005329
17236,-3.239355,1.833959,-6.694188,-0.042368,0.008527,0.005596
17251,-3.347094,1.944092,-6.701370,-0.040369,0.006928,0.004263
17266,-3.313575,1.860295,-6.677428,-0.027579,0.015055,0.001332
17281,-3.301604,1.896208,-6.576872,-0.021717,0.015588,-0.000400
17296,-3.162740,1.889025,-6.768408,-0.017720,0.025580,-0.000133
17311,-3.342305,1.781286,-6.730101,-0.027579,0.041435,0.002665
17326,-3.342305,1.695095,-6.624756,-0.040502,0.034107,0.002798
17341,-3.260903,1.680730,-6.646304,-0.066216,0.039170,0.011325
17356,-3.177106,1.661576,-6.593631,-0.089798,0.042368,0.025314
17371,-3.268085,1.874660,-6.682217,-0.102055,0.027179,0.038504
17386,-3.344700,2.219425,-6.698976,-0.068614,0.012391,0.024115
17401,-3.186682,2.193089,-6.651092,-0.022783,-0.001998,-0.002531
17416,-3.251326,2.061408,-6.663063,0.003331,-0.011191,-0.016920
17431,-3.229778,1.709460,-6.624756,-0.011991,-0.006662,-0.014655
17446,-3.371036,1.707066,-6.698976,-0.032508,0.000666,-0.007594
17461,-3.272874,1.781286,-6.660669,-0.038237,0.003864,-0.000266
17476,-3.114856,1.874660,-6.696582,-0.040502,0.009859,0.003464
17491,-3.277662,1.805228,-6.555324,-0.043966,0.008926,0.009459
17506,-3.213019,2.185906,-6.619967,-0.010792,0.012391,-0.003064
17521,-3.251326,2.049437,-6.754043,0.039969,0.038104,-0.026646
17536,-3.208230,1.771709,-6.624756,0.047830,0.024515,-0.025314
17551,-3.236961,1.424550,-6.562507,-0.010658,0.056357,0.001732
17566,-3.399766,1.687912,-6.751649,-0.049162,0.037172,0.019585
17581,-3.222595,1.908179,-6.631938,-0.044100,0.034773,0.018119
17596,-3.141193,1.939303,-6.622362,-0.035173,0.013590,0.014389
17611,-3.284845,2.142811,-6.708553,-0.000533,0.017453,-0.009060
17626,-3.289633,1.889025,-6.663063,0.012124,-0.023715,-0.014522
17641,-3.275268,1.750161,-6.610391,-0.009193,-0.007861,-0.011591
17656,-3.272874,1.857901,-6.658275,-0.027446,-0.003997,-0.010658
17671,-3.224990,1.800440,-6.739678,-0.023582,-0.009326,-0.015055
17686,-3.217807,1.790863,-6.710947,-0.029844,0.003997,-0.008260
17701,-3.361459,1.754950,-6.581660,-0.041035,0.008394,-0.004263
17716,-3.351882,1.750161,-6.600814,-0.063551,0.036772,0.009193
17731,-3.217807,1.874660,-6.789956,-0.069680,0.032242,0.019452
17746,-3.299210,2.111686,-6.715735,-0.050761,0.038104,0.014655
17761,-3.339911,2.056619,-6.607996,-0.015588,0.027979,0.000666
17776,-3.280056,1.764527,-6.519411,-0.009060,0.041835,-0.000266
17791,-3.227384,1.508347,-6.651092,-0.041168,0.030243,0.016920
17806,-3.119645,1.740585,-6.591237,-0.087799,0.026247,0.041835
17821,-3.375824,1.958457,-6.660669,-0.091397,0.041302,0.028511
17836,-3.157952,2.238579,-6.746861,-0.038770,0.011058,0.004663
17851,-3.076549,2.085350,-6.710947,-0.007194,-0.006795,-0.010392
17866,-3.205836,1.944092,-6.631938,0.020384,-0.012391,-0.022783
17881,-3.404555,1.675941,-6.658275,0.007194,-0.010525,-0.015188
17896,-3.263297,1.695095,-6.780379,-0.026913,-0.000933,-0.002665
17911,-3.222595,1.903390,-6.672640,-0.054358,0.013723,0.007328
17926,-3.256114,1.903390,-6.634333,-0.049429,0.007727,0.003597
17941,-3.296816,1.855506,-6.591237,-0.033308,0.015322,0.000666
17956,-3.311181,1.831564,-6.698976,-0.007861,0.029977,-0.002798
17971,-3.215413,1.697489,-6.631938,-0.033574,0.036905,0.012257
17986,-3.253720,1.735796,-6.679822,-0.038637,0.038104,0.014789
18001,-3.296816,1.786074,-6.572083,-0.036239,0.035440,0.013590
18016,-3.323152,1.766921,-6.579266,-0.029311,0.042368,0.008127
18031,-3.059790,1.910573,-6.607996,-0.037305,0.023049,0.012391
18046,-3.224990,1.941698,-6.615179,-0.033441,0.012524,0.008260
18061,-3.272874,1.910573,-6.682217,-0.016654,0.008926,-0.004663
18076,-3.299210,1.903390,-6.739678,-0.024381,-0.000933,-0.006395
18091,-3.282450,1.836353,-6.677428,-0.021983,-0.007861,-0.008394
18106,-3.220201,1.826776,-6.732495,-0.023049,0.000400,-0.008394
18121,-3.318363,1.826776,-6.821081,-0.028778,0.002665,-0.001599
18136,-3.265691,1.786074,-6.615179,-0.045565,0.003198,0.000933
18151,-3.220201,1.893813,-6.643909,-0.054758,0.003464,0.003864
18166,-3.189077,1.960851,-6.572083,-0.030643,0.016387,-0.000133
18181,-3.402161,1.886631,-6.703764,-0.021450,0.033708,-0.003198
18196,-3.347094,1.632846,-6.677428,-0.028911,0.039436,0.005596
18211,-3.263297,1.711854,-6.550536,-0.042368,0.048763,0.014789
18226,-3.179500,1.742979,-6.519411,-0.047564,0.040369,0.013989
18241,-3.294421,1.920150,-6.679822,-0.042900,0.040502,0.013590
18256,-3.335123,1.960851,-6.596025,-0.032642,0.026646,0.008793
18271,-3.236961,2.042254,-6.727706,-0.017320,0.010259,-0.000533
18286,-3.227384,1.881842,-6.701370,-0.002398,-0.001599,-0.011724
18301,-3.260903,1.814805,-6.720524,-0.011191,-0.005596,-0.011591
18316,-3.416526,1.697489,-6.761226,-0.035306,-0.005995,-0.002132
18331,-3.248932,1.778892,-6.708553,-0.050761,-0.005995,0.007194
18346,-3.179500,1.853112,-6.742072,-0.070746,0.009992,0.012790
18361,-3.280056,1.987187,-6.612785,-0.069680,0.011325,0.013723
18376,-3.392584,2.080561,-6.670246,-0.039303,0.016121,0.008127
18391,-3.287239,2.130840,-6.643909,0.004130,0.014922,-0.007194
18406,-3.181894,1.900996,-6.560112,0.027712,0.027712,-0.015188
18421,-3.289633,1.616086,-6.624756,0.011724,0.033708,-0.009193
18436,-3.323152,1.501164,-6.653486,-0.019052,0.038904,0.002265
18451,-3.272874,1.613692,-6.653486,-0.058888,0.037971,0.019985
18466,-3.081337,1.838747,-6.607996,-0.068614,0.036505,0.027579
18481,-3.246537,1.984793,-6.710947,-0.061020,0.030643,0.024381
18496,-3.213019,2.085350,-6.710947,-0.036505,-0.000133,0.004263
18511,-3.229778,1.912967,-6.787562,-0.019718,-0.002665,-0.006262
18526,-3.222595,1.766921,-6.610391,-0.038104,-0.003064,-0.005462
18541,-3.246537,1.726219,-6.665457,-0.055957,-0.001066,0.009060
18556,-3.303998,1.898602,-6.660669,-0.056090,-0.003597,0.008127
18571,-3.308787,1.958457,-6.718130,-0.044766,0.009193,0.004930
18586,-3.227384,2.037466,-6.505046,-0.030510,0.009859,-0.001865
18601,-3.210624,2.006341,-6.634333,-0.009726,0.008394,-0.010792
18616,-3.375824,1.845930,-6.754043,-0.003464,0.021184,-0.009459
18631,-3.335123,1.762132,-6.682217,0.002531,0.030910,-0.009992
18646,-3.244143,1.680730,-6.670246,-0.021450,0.034240,0.004796
18661,-3.179500,1.685518,-6.588843,-0.039436,0.029711,0.016521
18676,-3.342305,1.795651,-6.591237,-0.052893,0.033974,0.013989
18691,-3.296816,1.905784,-6.634333,-0.051960,0.032775,0.010525
18706,-3.224990,1.900996,-6.672640,-0.050495,0.024115,0.015188
18721,-3.055001,2.023100,-6.636727,-0.040236,0.012524,0.008660
18736,-3.258508,1.896208,-6.713341,-0.025980,0.001865,-0.002798
18751,-3.275268,1.953669,-6.634333,-0.025047,-0.009992,-0.006129
18766,-3.239355,1.905784,-6.715735,-0.023049,0.000400,-0.010658
18781,-3.244143,1.783680,-6.641515,-0.024648,-0.002798,-0.008926
18796,-3.289633,1.802834,-6.639121,-0.033974,0.002665,-0.007861
18811,-3.385401,1.896208,-6.670246,-0.040103,0.014123,-0.004130
18826,-3.308787,1.917755,-6.634333,-0.029977,0.010126,-0.000533
18841,-3.157952,1.924938,-6.545747,-0.012391,0.015855,0.001865
18856,-3.217807,1.879448,-6.598420,-0.007994,0.041035,-0.000266
18871,-3.361459,1.833959,-6.679822,0.003198,0.030243,-0.005063
18886,-3.351882,1.692701,-6.710947,-0.006262,0.031709,-0.005862
18901,-3.193865,1.654393,-6.751649,-0.031842,0.024648,0.004796
18916,-3.253720,1.549048,-6.624756,-0.064484,0.042634,0.017453
18931,-3.337517,1.841141,-6.655880,-0.079806,0.027446,0.027046
18946,-3.277662,2.059013,-6.627150,-0.065550,0.022649,0.017320
18961,-3.153164,2.142811,-6.627150,-0.025714,0.004796,-0.001865
18976,-3.189077,2.092532,-6.696582,-0.001732,-0.013057,-0.012790
18991,-3.330334,1.778892,-6.665457,0.005995,-0.006795,-0.019718
19006,-3.320758,1.752556,-6.749255,-0.000533,-0.004796,-0.013190
19021,-3.282450,1.853112,-6.672640,-0.018386,-0.000533,-0.006129
19036,-3.270479,1.793257,-6.622362,-0.026646,0.005862,-0.007194
19051,-3.404555,1.819593,-6.770802,-0.032775,0.013057,-0.007994
19066,-3.351882,1.786074,-6.653486,-0.038637,0.023315,0.004130
19081,-3.203442,1.865083,-6.588843,-0.041435,0.043567,0.005729
19096,-3.232172,1.826776,-6.691793,-0.040769,0.035440,0.007727
19111,-3.272874,1.783680,-6.555324,-0.034107,0.025980,0.006129
19126,-3.318363,1.692701,-6.641515,-0.044632,0.031576,0.009459
19141,-3.232172,1.661576,-6.643909,-0.067015,0.031709,0.021450
19156,-3.141193,1.857901,-6.684611,-0.076874,0.034640,0.027446
19171,-3.306392,2.003947,-6.636727,-0.064484,0.020917,0.020917
19186,-3.330334,2.087744,-6.617573,-0.023982,0.000933,-0.001865
19201,-3.153164,2.032677,-6.596025,-0.006395,0.002398,-0.015188
19216,-3.210624,1.812411,-6.651092,-0.003331,-0.000933,-0.014522
19231,-3.335123,1.752556,-6.615179,-0.015055,0.002798,-0.006795
19246,-3.344700,1.855506,-6.758832,-0.027179,0.001998,-0.006129
19261,-3.217807,1.884237,-6.639121,-0.019718,0.007861,-0.006395
19276,-3.227384,1.889025,-6.715735,-0.021184,0.010792,-0.005462
19291,-3.308787,1.764527,-6.624756,-0.017720,0.033841,-0.002531
19306,-3.409343,1.776498,-6.581660,-0.022649,0.028911,0.002265
19321,-3.169923,1.810017,-6.572083,-0.033308,0.021850,0.005063
19336,-3.220201,1.810017,-6.694188,-0.044499,0.028112,0.009193
19351,-3.294421,1.845930,-6.655880,-0.053692,0.027712,0.014922
19366,-3.292027,1.829170,-6.636727,-0.055025,0.025847,0.010925
19381,-3.215413,1.927332,-6.569689,-0.055957,0.019452,0.013989
19396,-3.186682,2.059013,-6.682217,-0.034907,0.008260,0.006262
19411,-3.265691,1.987187,-6.718130,-0.020784,0.001998,-0.005196
19426,-3.320758,1.826776,-6.675034,-0.012524,-0.001066,-0.009859
19441,-3.253720,1.884237,-6.591237,-0.017720,0.004263,-0.004263
19456,-3.213019,1.855506,-6.643909,-0.021450,0.002665,-0.003064
19471,-3.234566,1.881842,-6.651092,-0.026913,0.011058,-0.000266
19486,-3.371036,1.917755,-6.667851,-0.017320,0.011191,-0.005596
19501,-3.332729,1.968034,-6.739678,-0.002398,0.021051,-0.008793
19516,-3.217807,1.841141,-6.691793,0.008527,0.027845,-0.010658
19531,-3.256114,1.711854,-6.643909,-0.006662,0.014922,-0.006262
19546,-3.354276,1.563414,-6.653486,-0.025580,0.027712,0.004663
19561,-3.315969,1.752556,-6.629544,-0.045565,0.028245,0.016387
19576,-3.191471,1.965640,-6.591237,-0.038637,0.022649,0.008527
19591,-3.155558,1.889025,-6.607996,-0.026113,0.015721,0.001332
19606,-3.337517,1.893813,-6.670246,-0.020518,0.013989,-0.003331
19621,-3.311181,1.903390,-6.744466,-0.022116,0.004530,-0.000533
19636,-3.205836,1.752556,-6.593631,-0.024648,0.005596,-0.000933
19651,-3.181894,1.781286,-6.651092,-0.029844,0.007594,-0.001865
19666,-3.347094,1.735796,-6.639121,-0.037305,0.011191,0.001599
19681,-3.313575,1.841141,-6.639121,-0.045565,0.011458,0.005063
19696,-3.203442,1.874660,-6.581660,-0.040636,0.020118,0.002931
19711,-3.236961,1.853112,-6.687005,-0.027579,0.015988,-0.000266
19726,-3.296816,1.833959,-6.598420,-0.023449,0.019851,0.007061
19741,-3.375824,1.831564,-6.581660,-0.017986,0.021450,0.004397
19756,-3.167529,1.829170,-6.612785,-0.014256,0.021983,0.003198
19771,-3.335123,1.752556,-6.619967,-0.011724,0.021051,-0.000666
19786,-3.342305,1.769315,-6.629544,-0.016387,0.022383,-0.000799
19801,-3.131616,1.908179,-6.634333,-0.017187,0.016654,0.000933
19816,-3.129222,1.939303,-6.651092,-0.007194,0.016654,-0.009060
19831,-3.335123,1.805228,-6.634333,0.006395,0.006395,-0.017986
19846,-3.363853,1.704672,-6.742072,-0.005862,0.005196,-0.015588
19861,-3.244143,1.640028,-6.710947,-0.031443,0.000933,-0.000400
19876,-3.268085,1.675941,-6.670246,-0.056490,0.012257,0.007994
19891,-3.299210,1.786074,-6.648698,-0.061153,0.010792,0.014655
19906,-3.363853,1.869871,-6.591237,-0.056224,0.019851,0.012790
19921,-3.177106,1.951274,-6.607996,-0.051028,0.023182,0.011858
19936,-3.210624,1.922544,-6.526594,-0.027845,0.024115,0.005729
19951,-3.277662,1.968034,-6.684611,-0.011724,0.017720,0.001466
19966,-3.320758,1.774103,-6.658275,-0.006928,0.020518,-0.003064
19981,-3.318363,1.774103,-6.576872,-0.011991,0.023848,-0.004397
19996,-3.117250,1.807622,-6.749255,-0.017720,0.015188,-0.000266
20011,-3.260903,1.855506,-6.715735,-0.009726,0.011991,-0.004663
20026,-3.263297,1.826776,-6.696582,-0.013723,0.003064,-0.005995
20041,-3.306392,1.723825,-6.603208,-0.016920,0.002931,-0.006395
20056,-3.236961,1.671153,-6.758832,-0.039836,0.010259,0.003331
20071,-3.292027,1.716643,-6.696582,-0.061420,0.013590,0.008793
20086,-3.363853,1.774103,-6.655880,-0.060887,0.013856,0.009060
20101,-3.272874,1.908179,-6.749255,-0.051028,0.013989,0.008660
20116,-3.186682,1.898602,-6.593631,-0.042634,0.016387,0.010259
20131,-3.236961,1.970428,-6.624756,-0.022916,0.021583,0.003331
20146,-3.296816,1.862689,-6.672640,-0.002265,0.025847,-0.006129
20161,-3.375824,1.788469,-6.641515,-0.004930,0.021051,-0.006795
20176,-3.208230,1.731008,-6.672640,-0.013989,0.019851,-0.002798
20191,-3.181894,1.671153,-6.584054,-0.023449,0.022916,-0.000933
20206,-3.306392,1.781286,-6.703764,-0.025980,0.025047,0.001332
20221,-3.344700,1.838747,-6.758832,-0.035306,0.011991,0.004130
20236,-3.270479,1.790863,-6.691793,-0.035573,0.012923,0.003597
20251,-3.241749,1.759738,-6.610391,-0.041435,0.015322,0.000400
20266,-3.332729,1.769315,-6.665457,-0.045432,0.008793,0.001998
20281,-3.296816,1.769315,-6.722918,-0.040636,0.008926,0.001332
20296,-3.244143,1.838747,-6.679822,-0.043700,0.012124,-0.000266
20311,-3.282450,1.831564,-6.600814,-0.046631,0.013590,0.000000
20326,-3.330334,1.826776,-6.610391,-0.043700,0.013856,0.007994
20341,-3.361459,1.879448,-6.560112,-0.035573,0.017320,0.005729
20356,-3.260903,1.881842,-6.687005,-0.022916,0.023582,0.004263
20371,-3.205836,1.766921,-6.538565,-0.029044,0.032908,0.002398
20386,-3.303998,1.704672,-6.612785,-0.031576,0.027046,-0.000799
20401,-3.292027,1.690306,-6.682217,-0.045565,0.024381,0.007328
20416,-3.260903,1.862689,-6.708553,-0.048763,0.036639,0.014922
20431,-3.155558,1.972822,-6.701370,-0.034374,0.024781,0.008660
20446,-3.234566,2.006341,-6.713341,-0.009193,0.016254,-0.002398
20461,-3.339911,1.865083,-6.643909,0.002265,0.007727,-0.013323
20476,-3.258508,1.795651,-6.617573,0.006528,0.002665,-0.012257
20491,-3.229778,1.683124,-6.658275,-0.010126,0.005462,-0.006662
20506,-3.258508,1.618480,-6.806715,-0.017453,-0.008660,-0.002265
20521,-3.392584,1.632846,-6.744466,-0.055158,0.015055,0.003464
20536,-3.330334,1.826776,-6.710947,-0.062619,0.015188,0.004663
20551,-3.150769,1.889025,-6.605602,-0.061153,0.015188,0.006262
20566,-3.236961,1.891419,-6.663063,-0.054758,0.014256,0.006528
20581,-3.354276,1.896208,-6.665457,-0.030377,0.037571,-0.001732
20596,-3.280056,1.723825,-6.651092,-0.030776,0.028911,-0.000533
20611,-3.191471,1.750161,-6.684611,-0.036372,0.031176,0.007328
20626,-3.260903,1.661576,-6.631938,-0.050761,0.030643,0.014389
20641,-3.330334,1.932121,-6.718130,-0.046897,0.036905,0.015855
20656,-3.251326,2.030283,-6.689399,-0.017720,0.020118,0.005063
20671,-3.229778,2.008735,-6.655880,0.007727,0.014522,-0.007727
20686,-3.234566,1.838747,-6.703764,0.013057,0.001599,-0.017054
20701,-3.323152,1.647211,-6.696582,0.002398,0.003198,-0.012391
20716,-3.313575,1.561020,-6.658275,-0.016654,-0.001998,-0.002798
20731,-3.251326,1.668759,-6.684611,-0.051161,0.001199,0.004663
20746,-3.260903,1.795651,-6.763620,-0.061686,0.011991,0.004530
20761,-3.414132,1.896208,-6.576872,-0.057423,0.012257,0.004663
20776,-3.337517,1.970428,-6.631938,-0.039436,0.017054,-0.004530
20791,-3.258508,1.989582,-6.648698,-0.022783,0.024781,-0.004663
20806,-3.189077,1.790863,-6.687005,-0.019985,0.026513,-0.001199
20821,-3.284845,1.668759,-6.607996,-0.031443,0.033708,0.005862
20836,-3.347094,1.695095,-6.562507,-0.047830,0.029178,0.013190
20851,-3.174711,1.843535,-6.665457,-0.048763,0.033574,0.013323
20866,-3.150769,1.951274,-6.667851,-0.027712,0.028511,0.010525
20881,-3.325546,2.042254,-6.708553,-0.005462,0.012923,0.000933
20896,-3.306392,1.900996,-6.677428,0.015588,0.006129,-0.012923
20911,-3.270479,1.771709,-6.770802,0.015721,0.001998,-0.015988
20926,-3.181894,1.661576,-6.636727,-0.004796,-0.002132,-0.009992
20941,-3.363853,1.604115,-6.725312,-0.028245,-0.000266,-0.003997
20956,-3.440468,1.654393,-6.672640,-0.050894,0.005196,0.001599
20971,-3.335123,1.807622,-6.675034,-0.062485,0.007061,0.005196
20986,-3.241749,1.824382,-6.605602,-0.072078,0.014522,0.002531
21001,-3.251326,1.802834,-6.634333,-0.061553,0.016654,0.003464
21016,-3.411737,1.810017,-6.713341,-0.044366,0.035173,0.012790
21031,-3.215413,1.802834,-6.624756,-0.042368,0.026380,0.014389
21046,-3.172317,1.941698,-6.655880,-0.027312,0.037172,0.007727
21061,-3.232172,1.812411,-6.660669,-0.021184,0.037038,0.005596
21076,-3.380613,1.692701,-6.687005,-0.029044,0.026113,0.009726
21091,-3.311181,1.848324,-6.639121,-0.039436,0.025714,0.014256
21106,-3.169923,1.817199,-6.634333,-0.035972,0.022916,0.011191
21121,-3.260903,1.924938,-6.722918,-0.021450,0.007861,0.004663
21136,-3.378219,1.774103,-6.634333,-0.021051,0.001066,-0.003198
21151,-3.299210,1.740585,-6.684611,-0.034507,-0.000533,0.001466
21166,-3.196259,1.769315,-6.560112,-0.041835,0.000799,0.002931
21181,-3.275268,1.776498,-6.634333,-0.044100,0.003730,0.001732
21196,-3.296816,1.805228,-6.722918,-0.043833,0.007994,-0.001066
21211,-3.337517,1.941698,-6.600814,-0.042900,0.012391,-0.001599
21226,-3.241749,1.991976,-6.624756,-0.023582,0.015188,-0.001732
21241,-3.196259,1.891419,-6.653486,-0.018119,0.037571,-0.000266
21256,-3.380613,1.742979,-6.646304,-0.011991,0.044366,0.001066
21271,-3.296816,1.685518,-6.634333,-0.015588,0.021983,0.003064
21286,-3.169923,1.714248,-6.682217,-0.032109,0.032109,0.012391
21301,-3.208230,1.723825,-6.641515,-0.042101,0.039037,0.013456
21316,-3.289633,1.862689,-6.643909,-0.039969,0.023449,0.014123
21331,-3.296816,1.939303,-6.646304,-0.021583,0.012657,0.002665
21346,-3.244143,1.889025,-6.713341,-0.009326,0.008527,-0.003198
21361,-3.270479,1.807622,-6.682217,-0.014389,-0.004263,-0.006262
21376,-3.342305,1.723825,-6.667851,-0.027179,-0.007861,-0.007994
21391,-3.371036,1.680730,-6.698976,-0.046364,0.002132,0.001599
21406,-3.275268,1.843535,-6.732495,-0.058355,0.003464,0.004397
21421,-3.117250,1.917755,-6.663063,-0.059688,0.008660,0.001599
21436,-3.296816,1.920150,-6.655880,-0.034507,0.020251,-0.000933
21451,-3.361459,1.886631,-6.744466,-0.016121,0.033308,-0.003864
21466,-3.150769,1.764527,-6.552930,-0.015855,0.018519,0.000533
21481,-3.198653,1.757344,-6.648698,-0.019452,0.040103,0.004663
21496,-3.280056,1.738190,-6.660669,-0.034640,0.034773,0.010658
21511,-3.330334,1.675941,-6.655880,-0.039570,0.027979,0.012657
21526,-3.217807,1.783680,-6.672640,-0.047430,0.024515,0.015322
21541,-3.138798,1.996764,-6.713341,-0.043300,0.017720,0.012391
21556,-3.234566,1.960851,-6.734890,-0.015055,0.009992,-0.000133
21571,-3.313575,1.867477,-6.610391,-0.000799,-0.003597,-0.005329
21586,-3.332729,1.771709,-6.720524,-0.009992,-0.003331,-0.008527
21601,-3.258508,1.735796,-6.631938,-0.017320,0.000000,-0.003864
21616,-3.280056,1.752556,-6.708553,-0.030377,0.001332,-0.005196
21631,-3.356671,1.731008,-6.600814,-0.040103,0.008260,-0.005862
21646,-3.268085,1.733402,-6.710947,-0.055957,0.009992,0.002531
21661,-3.220201,1.848324,-6.612785,-0.051161,0.015588,0.003064
21676,-3.258508,1.924938,-6.636727,-0.036106,0.030510,0.006795
21691,-3.287239,1.831564,-6.567295,-0.038637,0.019585,0.013856
21706,-3.260903,1.800440,-6.624756,-0.031309,0.042767,0.009459
21721,-3.229778,1.853112,-6.619967,-0.028778,0.033574,0.003597
21736,-3.244143,1.759738,-6.603208,-0.031309,0.028911,0.004263
21751,-3.359065,1.721431,-6.658275,-0.044766,0.026646,0.010658
21766,-3.165135,1.886631,-6.722918,-0.041035,0.017720,0.010658
21781,-3.186682,1.984793,-6.677428,-0.023315,0.006662,-0.000533
21796,-3.184288,1.850718,-6.698976,-0.008394,0.001599,-0.012790
21811,-3.375824,1.745373,-6.624756,-0.022649,-0.001865,-0.006262
21826,-3.277662,1.723825,-6.739678,-0.025447,-0.003198,-0.002132
21841,-3.184288,1.800440,-6.607996,-0.044499,0.006395,0.003997
21856,-3.248932,1.821988,-6.675034,-0.042634,0.005596,-0.001466
21871,-3.351882,1.826776,-6.691793,-0.040902,0.003064,-0.000933
21886,-3.378219,1.853112,-6.612785,-0.041968,0.015988,-0.000933
21901,-3.277662,1.850718,-6.643909,-0.027845,0.024781,-0.002132
21916,-3.210624,1.826776,-6.725312,-0.022516,0.029577,0.001199
21931,-3.342305,1.766921,-6.643909,-0.042900,0.041168,0.008527
21946,-3.294421,1.675941,-6.665457,-0.048230,0.029044,0.012657
21961,-3.169923,1.826776,-6.670246,-0.049562,0.032508,0.020784
21976,-3.174711,1.936909,-6.687005,-0.039969,0.028112,0.013856
21991,-3.236961,2.003947,-6.639121,-0.011858,0.013723,0.001865
22006,-3.299210,1.920150,-6.715735,0.007194,0.005063,-0.007594
22021,-3.275268,1.850718,-6.651092,0.011724,0.000133,-0.015055
22036,-3.191471,1.699883,-6.627150,0.001066,-0.009859,-0.008260
22051,-3.232172,1.673547,-6.615179,-0.015188,-0.000799,-0.009193
22066,-3.385401,1.635240,-6.739678,-0.031975,-0.000266,-0.004796
22081,-3.313575,1.774103,-6.588843,-0.046764,0.003730,0.002531
22096,-3.169923,1.817199,-6.552930,-0.052893,0.008394,0.001865
22111,-3.258508,1.850718,-6.703764,-0.040369,0.018119,0.000533
22126,-3.344700,1.903390,-6.679822,-0.036106,0.026913,-0.003864
22141,-3.344700,1.788469,-6.655880,-0.020251,0.037438,-0.006528
22156,-3.177106,1.771709,-6.636727,-0.030243,0.031443,-0.000400
22171,-3.210624,1.723825,-6.500257,-0.046231,0.033041,0.011724
22186,-3.344700,1.745373,-6.648698,-0.052093,0.036505,0.014655
22201,-3.287239,1.843535,-6.572083,-0.049828,0.034240,0.020384
22216,-3.213019,2.059013,-6.751649,-0.026913,0.015188,0.008260
22231,-3.138798,2.042254,-6.631938,-0.001466,0.006662,-0.006928
22246,-3.342305,1.824382,-6.763620,0.012524,-0.003597,-0.016254
22261,-3.311181,1.795651,-6.641515,0.008394,-0.004530,-0.014522
22276,-3.275268,1.539472,-6.734890,-0.013989,-0.000533,-0.010259
22291,-3.263297,1.632846,-6.703764,-0.042234,0.002798,0.002665
22306,-3.371036,1.661576,-6.739678,-0.057822,0.012257,0.005729
22321,-3.349488,1.853112,-6.670246,-0.055957,0.005729,0.000666
22336,-3.224990,1.812411,-6.655880,-0.050095,0.018919,0.000533
22351,-3.313575,1.900996,-6.682217,-0.037838,0.034240,-0.000266
22366,-3.186682,1.745373,-6.687005,-0.036372,0.021983,0.001599
22381,-3.313575,1.592144,-6.588843,-0.056090,0.040236,0.016121
22396,-3.177106,1.819593,-6.596025,-0.065550,0.035573,0.027579
22411,-3.155558,1.975216,-6.648698,-0.041168,0.035306,0.016387
22426,-3.258508,1.980005,-6.646304,-0.018652,0.024381,0.010126
22441,-3.282450,1.994370,-6.749255,0.002265,0.015588,0.001732
22456,-3.270479,1.917755,-6.722918,0.009193,0.004796,-0.011724
22471,-3.145981,1.733402,-6.588843,0.007194,-0.007727,-0.013057
22486,-3.268085,1.714248,-6.648698,-0.003331,-0.007727,-0.011858
22501,-3.354276,1.592144,-6.715735,-0.026513,-0.002798,-0.003997
22516,-3.308787,1.644817,-6.653486,-0.046098,0.002132,-0.000533
22531,-3.260903,1.723825,-6.610391,-0.065150,0.008793,0.005329
22546,-3.256114,1.896208,-6.607996,-0.066482,0.014522,0.007328
22561,-3.390190,1.958457,-6.682217,-0.036639,0.029977,-0.003597
22576,-3.342305,1.920150,-6.677428,-0.021317,0.030910,-0.001599
22591,-3.196259,1.716643,-6.605602,-0.013723,0.030776,0.000533
22606,-3.236961,1.745373,-6.615179,-0.029311,0.039037,0.004130
22621,-3.323152,1.692701,-6.655880,-0.032908,0.030643,0.008394
22636,-3.272874,1.649605,-6.615179,-0.042501,0.027312,0.008793
22651,-3.191471,1.881842,-6.708553,-0.047564,0.026380,0.019985
22666,-3.220201,1.968034,-6.665457,-0.032908,0.010925,0.007194
22681,-3.327940,1.886631,-6.588843,-0.021317,0.003730,-0.005196
22696,-3.320758,1.733402,-6.639121,-0.027446,-0.001466,-0.000933
22711,-3.181894,1.781286,-6.675034,-0.031709,-0.001865,0.003064
22726,-3.210624,1.838747,-6.684611,-0.033041,0.005596,-0.002798
22741,-3.354276,1.752556,-6.651092,-0.027312,-0.000799,-0.005196
22756,-3.327940,1.845930,-6.651092,-0.039836,0.015721,0.000133
22771,-3.272874,1.853112,-6.722918,-0.034374,0.014922,-0.004930
22786,-3.246537,1.817199,-6.598420,-0.022116,0.011591,-0.004397
22801,-3.296816,1.836353,-6.598420,-0.004130,0.021450,-0.006262
22816,-3.392584,1.623269,-6.679822,-0.013723,0.034240,0.004130
22831,-3.282450,1.742979,-6.672640,-0.027979,0.039037,0.005862
22846,-3.157952,1.659182,-6.619967,-0.041302,0.032908,0.009726
22861,-3.337517,1.683124,-6.603208,-0.052760,0.031443,0.012124
22876,-3.303998,1.786074,-6.655880,-0.061420,0.034374,0.019585
22891,-3.191471,1.879448,-6.687005,-0.053292,0.013456,0.013057
22906,-3.196259,2.020706,-6.684611,-0.036106,0.003730,0.001732
22921,-3.213019,1.764527,-6.718130,-0.039703,0.004397,0.003730
22936,-3.315969,1.798045,-6.701370,-0.045698,0.004397,0.006129
22951,-3.268085,1.951274,-6.718130,-0.048896,0.004530,0.007061
22966,-3.236961,1.927332,-6.581660,-0.038371,0.003198,0.001066
22981,-3.289633,1.896208,-6.658275,-0.020518,0.007594,-0.006662
22996,-3.433285,1.793257,-6.691793,-0.021983,0.015188,-0.008394
23011,-3.315969,1.771709,-6.605602,-0.025314,0.020518,0.000400
23026,-3.191471,1.750161,-6.651092,-0.026247,0.028378,-0.001732
23041,-3.258508,1.750161,-6.631938,-0.025847,0.027845,0.005329
23056,-3.323152,1.659182,-6.562507,-0.031443,0.030377,0.009593
23071,-3.296816,1.762132,-6.593631,-0.033574,0.036106,0.005995
23086,-3.189077,1.757344,-6.651092,-0.038637,0.025447,0.007727
23101,-3.201048,1.699883,-6.552930,-0.055025,0.024515,0.011325
23116,-3.268085,1.865083,-6.670246,-0.059288,0.020651,0.017054
23131,-3.217807,1.917755,-6.703764,-0.056224,0.005196,0.008260
23146,-3.256114,1.953669,-6.682217,-0.042368,0.001865,0.002398
23161,-3.325546,1.877054,-6.588843,-0.028112,-0.003198,-0.004263
23176,-3.236961,1.905784,-6.694188,-0.016121,-0.001066,-0.003730
23191,-3.167529,1.903390,-6.744466,-0.012391,0.001865,-0.004397
23206,-3.292027,1.934515,-6.677428,-0.007061,0.017187,-0.010792
23221,-3.356671,1.774103,-6.631938,-0.008926,0.013723,-0.012257
23236,-3.256114,1.821988,-6.610391,0.001732,0.027446,-0.004397
23251,-3.196259,1.853112,-6.576872,0.009593,0.035972,-0.007727
23266,-3.222595,1.699883,-6.660669,0.006928,0.024648,-0.008127
23281,-3.371036,1.534683,-6.643909,-0.023049,0.039170,0.001199
23296,-3.354276,1.544260,-6.667851,-0.049296,0.029044,0.014655
23311,-3.227384,1.714248,-6.641515,-0.070746,0.035440,0.018119
23326,-3.299210,1.762132,-6.643909,-0.081138,0.030510,0.021983
23341,-3.280056,1.910573,-6.670246,-0.081271,0.007861,0.019585
23356,-3.241749,1.975216,-6.655880,-0.072211,0.018119,0.014123
23371,-3.169923,2.020706,-6.598420,-0.049562,-0.002531,0.007727
23386,-3.205836,2.054225,-6.687005,-0.023982,-0.006528,-0.004663
23401,-3.385401,1.960851,-6.648698,-0.004796,0.003597,-0.012923
23416,-3.323152,1.900996,-6.655880,0.010925,0.000000,-0.017054
23431,-3.203442,1.754950,-6.572083,-0.002931,0.007727,-0.013057
23446,-3.268085,1.721431,-6.655880,-0.007594,0.013590,-0.011058
23461,-3.440468,1.601721,-6.737284,-0.010925,0.040769,-0.000933
23476,-3.363853,1.740585,-6.732495,-0.028112,0.029711,0.001732
23491,-3.229778,1.754950,-6.639121,-0.036905,0.037172,0.000799
23506,-3.234566,1.572991,-6.715735,-0.052493,0.028645,0.011858
23521,-3.335123,1.707066,-6.500257,-0.071678,0.033708,0.023449
23536,-3.311181,1.934515,-6.722918,-0.071545,0.025047,0.017986
23551,-3.172317,2.018312,-6.548141,-0.056890,0.014922,0.010658
23566,-3.229778,2.001553,-6.732495,-0.045965,0.007994,0.004263
23581,-3.308787,1.953669,-6.698976,-0.040902,-0.001732,0.004263
23596,-3.234566,1.975216,-6.651092,-0.017986,-0.005329,-0.003331
23611,-3.287239,1.920150,-6.641515,0.000533,0.002132,-0.007861
23626,-3.189077,1.879448,-6.801927,0.008394,-0.006129,-0.011591
23641,-3.325546,1.798045,-6.629544,0.005196,0.004263,-0.010658
23656,-3.414132,1.716643,-6.576872,-0.002931,0.010259,-0.006129
23671,-3.315969,1.692701,-6.739678,-0.024648,0.027179,0.001332
23686,-3.169923,1.853112,-6.684611,-0.019985,0.026779,0.001599
23701,-3.315969,1.860295,-6.543353,-0.021184,0.036639,-0.001865
23716,-3.356671,1.781286,-6.684611,-0.014256,0.025714,-0.004397
23731,-3.251326,1.651999,-6.600814,-0.025847,0.022649,0.004663
23746,-3.198653,1.692701,-6.691793,-0.043966,0.029311,0.009060
23761,-3.253720,1.752556,-6.684611,-0.055557,0.025314,0.015855
23776,-3.289633,1.836353,-6.641515,-0.070613,0.012391,0.023715
23791,-3.327940,1.924938,-6.758832,-0.061553,0.012790,0.011591
23806,-3.181894,2.006341,-6.639121,-0.045832,-0.005329,0.006395
23821,-3.244143,1.917755,-6.706159,-0.022916,-0.003597,-0.004930
23836,-3.361459,1.886631,-6.593631,-0.008127,0.001865,-0.007594
23851,-3.344700,1.795651,-6.629544,-0.001998,0.000799,-0.010792
23866,-3.244143,1.726219,-6.605602,-0.013856,0.007328,-0.006528
23881,-3.311181,1.824382,-6.607996,-0.022516,0.020384,-0.001865
23896,-3.366247,1.800440,-6.610391,-0.029577,0.023182,0.001332
23911,-3.289633,1.953669,-6.718130,-0.009726,0.033441,-0.005462
23926,-3.232172,1.857901,-6.593631,-0.010792,0.026913,-0.003730
23941,-3.167529,1.707066,-6.619967,-0.015588,0.036905,-0.002531
23956,-3.339911,1.522712,-6.588843,-0.036639,0.034374,0.010392
23971,-3.320758,1.663970,-6.698976,-0.058089,0.028645,0.017187
23986,-3.122039,1.838747,-6.607996,-0.058755,0.022116,0.019585
24001,-3.217807,1.953669,-6.749255,-0.046631,0.009193,0.006662
24016,-3.347094,1.845930,-6.679822,-0.042767,0.005596,0.003198
24031,-3.296816,1.891419,-6.615179,-0.041835,-0.004663,0.000266
24046,-3.277662,1.869871,-6.591237,-0.035306,-0.001732,0.000266
24061,-3.213019,1.972822,-6.687005,-0.013723,-0.008660,-0.002132
24076,-3.356671,1.877054,-6.655880,-0.001998,0.002931,-0.010925
24091,-3.337517,1.903390,-6.624756,0.007194,0.010792,-0.014389
24106,-3.311181,1.752556,-6.607996,0.009193,0.010925,-0.015988
24121,-3.236961,1.707066,-6.651092,-0.014256,0.025847,-0.005063
24136,-3.330334,1.774103,-6.727706,-0.006928,0.039436,-0.005729
24151,-3.359065,1.666364,-6.545747,-0.011191,0.029711,-0.004930
24166,-3.203442,1.628057,-6.603208,-0.023582,0.030110,0.002665
24181,-3.263297,1.611298,-6.622362,-0.046364,0.025047,0.014655
24196,-3.335123,1.719037,-6.687005,-0.060620,0.032908,0.016787
24211,-3.313575,1.824382,-6.636727,-0.066216,0.020251,0.017853
24226,-3.229778,1.903390,-6.715735,-0.061553,0.011858,0.013989
24241,-3.208230,1.939303,-6.775591,-0.058355,0.011724,0.009060
24256,-3.258508,1.932121,-6.715735,-0.044632,0.001732,0.001466
24271,-3.375824,1.948880,-6.615179,-0.018919,-0.004663,-0.003864
24286,-3.246537,1.917755,-6.715735,0.001332,-0.006395,-0.009726
24301,-3.234566,1.860295,-6.677428,0.007594,-0.000799,-0.015855
24316,-3.327940,1.766921,-6.634333,0.003597,0.002931,-0.014789
24331,-3.409343,1.599327,-6.722918,-0.005995,0.008793,-0.013590
24346,-3.373430,1.661576,-6.742072,-0.034507,0.021184,0.002798
24361,-3.284845,1.757344,-6.567295,-0.027579,0.037438,0.007727
24376,-3.244143,1.695095,-6.758832,-0.052227,0.041035,0.007194
24391,-3.339911,1.618480,-6.629544,-0.056090,0.036505,0.013456
24406,-3.263297,1.716643,-6.629544,-0.067948,0.033175,0.016254
24421,-3.131616,1.800440,-6.562507,-0.074077,0.033041,0.020917
24436,-3.215413,1.843535,-6.696582,-0.073011,0.031709,0.020651
24451,-3.280056,2.001553,-6.696582,-0.052227,0.018786,0.016787
24466,-3.268085,2.011129,-6.775591,-0.015588,0.014389,0.002132
24481,-3.205836,2.047042,-6.751649,0.013456,0.002265,-0.009193
24496,-3.234566,1.884237,-6.667851,0.023715,-0.007994,-0.018386
24511,-3.411737,1.702277,-6.576872,0.018519,0.002398,-0.016121
24526,-3.397372,1.649605,-6.756437,0.009060,-0.002665,-0.010658
24541,-3.229778,1.735796,-6.677428,-0.011058,0.004663,-0.006262
24556,-3.284845,1.735796,-6.698976,-0.019052,0.007594,-0.004796
24571,-3.423708,1.685518,-6.598420,-0.032908,0.018519,-0.000266
24586,-3.435679,1.738190,-6.574478,-0.036372,0.030110,0.003730
24601,-3.172317,1.671153,-6.691793,-0.050361,0.020784,0.011058
24616,-3.332729,1.668759,-6.619967,-0.067282,0.050361,0.012657
24631,-3.337517,1.620875,-6.572083,-0.074743,0.031309,0.018919
24646,-3.308787,1.663970,-6.641515,-0.090064,0.035706,0.021184
24661,-3.220201,1.862689,-6.646304,-0.085801,0.040103,0.025447
24676,-3.138798,2.047042,-6.665457,-0.070479,0.024115,0.023582
24691,-3.292027,2.135628,-6.713341,-0.028645,0.009859,0.007994
24706,-3.258508,2.073379,-6.655880,0.013590,-0.008660,-0.010792
24721,-3.251326,1.975216,-6.607996,0.044499,-0.008660,-0.024914
24736,-3.284845,1.680730,-6.670246,0.034374,-0.008260,-0.022783
24751,-3.289633,1.565808,-6.809110,0.010925,-0.003064,-0.017453
24766,-3.332729,1.546654,-6.694188,-0.017187,-0.001466,-0.006262
24781,-3.303998,1.675941,-6.653486,-0.032642,0.009859,-0.001066
24796,-3.234566,1.838747,-6.775591,-0.035972,0.022383,-0.001199
24811,-3.313575,1.752556,-6.648698,-0.038637,0.030643,0.003464
24826,-3.378219,1.663970,-6.670246,-0.035173,0.031043,0.002665
24841,-3.361459,1.635240,-6.495469,-0.059421,0.039836,0.008127
24856,-3.191471,1.668759,-6.624756,-0.073544,0.030643,0.020384
24871,-3.263297,1.690306,-6.703764,-0.082204,0.039570,0.023715
24886,-3.294421,1.980005,-6.648698,-0.071812,0.034240,0.018386
24901,-3.198653,2.049437,-6.651092,-0.047031,0.021583,0.013323
24916,-3.145981,2.116474,-6.715735,-0.011325,0.001199,-0.001199
24931,-3.325546,1.989582,-6.703764,0.018519,-0.005862,-0.011458
24946,-3.344700,1.833959,-6.663063,0.029844,-0.009859,-0.019052
24961,-3.342305,1.659182,-6.672640,0.019718,0.003864,-0.018919
24976,-3.227384,1.709460,-6.677428,-0.001732,0.003597,-0.009326
24991,-3.241749,1.659182,-6.679822,-0.019718,0.004663,-0.003597
25006,-3.402161,1.656788,-6.581660,-0.035573,0.009726,-0.001066
25021,-3.354276,1.687912,-6.612785,-0.036772,0.017720,0.001998
25036,-3.306392,1.766921,-6.639121,-0.042368,0.024781,0.008660
25051,-3.232172,1.620875,-6.675034,-0.053825,0.030776,0.015322
25066,-3.447650,1.704672,-6.648698,-0.066882,0.047830,0.014256
25081,-3.311181,1.719037,-6.675034,-0.073277,0.027712,0.016121
25096,-3.155558,1.726219,-6.670246,-0.081804,0.037704,0.020251
25111,-3.227384,1.893813,-6.670246,-0.074609,0.031975,0.022649
25126,-3.222595,2.011129,-6.670246,-0.052227,0.017054,0.011458
25141,-3.277662,2.082955,-6.809110,-0.017587,0.010126,-0.000266
25156,-3.268085,1.965640,-6.727706,0.002265,0.005462,-0.012124
25171,-3.186682,1.776498,-6.694188,0.005729,-0.003064,-0.008527
25186,-3.275268,1.726219,-6.634333,-0.010126,0.002931,-0.005995
25201,-3.397372,1.666364,-6.675034,-0.021051,0.007594,-0.001998
25216,-3.248932,1.821988,-6.667851,-0.027446,0.000133,-0.001599
25231,-3.241749,1.738190,-6.691793,-0.029711,0.015855,0.001865
25246,-3.373430,1.752556,-6.734890,-0.031176,0.029844,0.004796
25261,-3.397372,1.711854,-6.643909,-0.038237,0.029577,0.008926
25276,-3.253720,1.649605,-6.579266,-0.044766,0.033441,0.011191
25291,-3.162740,1.709460,-6.598420,-0.056890,0.035440,0.013989
25306,-3.232172,1.752556,-6.694188,-0.062885,0.028112,0.018253
25321,-3.318363,1.850718,-6.663063,-0.054092,0.020518,0.013190
25336,-3.232172,1.970428,-6.698976,-0.035839,0.018253,0.007861
25351,-3.222595,1.960851,-6.670246,-0.014789,0.007861,-0.002531
25366,-3.265691,1.944092,-6.682217,-0.001599,0.001599,-0.009193
25381,-3.349488,1.759738,-6.677428,-0.005196,0.002665,-0.007328
25396,-3.280056,1.704672,-6.579266,-0.014256,0.007861,-0.006395
25411,-3.220201,1.762132,-6.703764,-0.020118,0.006928,-0.003997
25426,-3.244143,1.829170,-6.670246,-0.025181,0.014123,-0.002398
25441,-3.371036,1.783680,-6.651092,-0.026779,0.013456,0.000000
25456,-3.390190,1.821988,-6.643909,-0.024914,0.025447,0.003864
25471,-3.131616,1.757344,-6.636727,-0.027979,0.019851,0.002931
25486,-3.284845,1.728614,-6.538565,-0.036372,0.035173,-0.000666
25501,-3.332729,1.592144,-6.660669,-0.051560,0.025580,0.007727
25516,-3.301604,1.592144,-6.655880,-0.069413,0.025980,0.014655
25531,-3.157952,1.807622,-6.677428,-0.078873,0.030243,0.021983
25546,-3.186682,1.948880,-6.751649,-0.064750,0.024515,0.015721
25561,-3.260903,1.980005,-6.660669,-0.047430,0.013190,0.013723
25576,-3.347094,2.015918,-6.610391,-0.027179,0.011591,0.004263
25591,-3.210624,1.939303,-6.730101,-0.012257,0.008127,-0.007461
25606,-3.198653,1.807622,-6.785168,-0.003064,0.006129,-0.011058
25621,-3.213019,1.731008,-6.619967,-0.013057,0.008260,-0.006528
25636,-3.387795,1.759738,-6.737284,-0.019985,0.009992,-0.003198
25651,-3.284845,1.800440,-6.643909,-0.021583,0.012923,-0.000666
25666,-3.229778,1.831564,-6.617573,-0.015188,0.019585,-0.005596
25681,-3.303998,1.766921,-6.598420,-0.010392,0.019185,-0.009060
25696,-3.366247,1.584962,-6.619967,-0.023315,0.013590,-0.000400
25711,-3.275268,1.563414,-6.682217,-0.045832,0.021317,0.003064
25726,-3.217807,1.577779,-6.514623,-0.080472,0.026380,0.020784
25741,-3.198653,1.900996,-6.593631,-0.085801,0.025980,0.026247
25756,-3.232172,2.075773,-6.672640,-0.058089,0.016787,0.013057
25771,-3.224990,2.051831,-6.653486,-0.025580,0.017320,0.000666
25786,-3.167529,2.049437,-6.615179,0.006395,0.013856,-0.011058
25801,-3.306392,1.798045,-6.732495,0.015455,0.008793,-0.015588
25816,-3.320758,1.680730,-6.763620,0.011458,0.007594,-0.011458
25831,-3.284845,1.766921,-6.708553,-0.000266,0.009326,-0.009459
25846,-3.251326,1.716643,-6.773197,-0.015055,0.015455,-0.009326
25861,-3.284845,1.649605,-6.540959,-0.028911,0.005862,-0.005329
25876,-3.373430,1.728614,-6.670246,-0.035972,0.014389,-0.003730
25891,-3.296816,1.678335,-6.631938,-0.033841,0.031043,0.000266
25906,-3.253720,1.695095,-6.663063,-0.053825,0.026779,0.012124
25921,-3.272874,1.592144,-6.624756,-0.073810,0.021450,0.020518
25936,-3.311181,1.721431,-6.749255,-0.078606,0.031576,0.023982
25951,-3.239355,1.877054,-6.629544,-0.069147,0.025980,0.021317
25966,-3.112462,1.960851,-6.698976,-0.054891,0.020651,0.014389
25981,-3.229778,2.035071,-6.744466,-0.027712,0.013590,0.001466
25996,-3.327940,1.963245,-6.655880,-0.009326,0.008793,-0.007727
26011,-3.244143,1.905784,-6.751649,0.007061,0.000266,-0.012124
26026,-3.222595,1.690306,-6.687005,0.024914,-0.005196,-0.016121
26041,-3.222595,1.663970,-6.715735,-0.008660,0.004796,-0.013723
26056,-3.409343,1.692701,-6.715735,-0.016254,0.014922,-0.009459
26071,-3.385401,1.742979,-6.619967,-0.029178,0.010658,-0.001332
26086,-3.265691,1.812411,-6.720524,-0.021184,0.022916,-0.005329
26101,-3.270479,1.697489,-6.655880,-0.029444,0.027845,0.002398
26116,-3.306392,1.630451,-6.655880,-0.042501,0.027179,0.010126
26131,-3.416526,1.599327,-6.540959,-0.068348,0.033041,0.016121
26146,-3.198653,1.735796,-6.639121,-0.075276,0.028378,0.018919
26161,-3.177106,1.788469,-6.677428,-0.078873,0.031043,0.022516
26176,-3.280056,1.956063,-6.725312,-0.068348,0.022250,0.021450
26191,-3.282450,2.032677,-6.754043,-0.032642,0.014123,0.008260
26206,-3.184288,2.051831,-6.581660,-0.003198,0.008660,-0.006662
26221,-3.179500,1.948880,-6.706159,0.013190,-0.001332,-0.015855
26236,-3.299210,1.742979,-6.663063,0.020917,-0.001199,-0.014655
26251,-3.411737,1.690306,-6.682217,0.004530,0.013057,-0.013323
26266,-3.282450,1.690306,-6.749255,-0.005729,0.001066,-0.009593
26281,-3.282450,1.685518,-6.636727,-0.022250,0.001466,-0.004263
26296,-3.263297,1.604115,-6.605602,-0.034507,0.008394,-0.001332
26311,-3.541024,1.750161,-6.813898,-0.036772,0.025181,-0.002531
26326,-3.265691,1.704672,-6.569689,-0.052493,0.014256,0.013723
26341,-3.222595,1.719037,-6.605602,-0.064351,0.035573,0.019452
26356,-3.224990,1.759738,-6.495469,-0.073544,0.034507,0.021850
26371,-3.327940,1.841141,-6.698976,-0.066749,0.032508,0.021317
26386,-3.227384,1.951274,-6.581660,-0.060087,0.027712,0.020518
26401,-3.167529,1.958457,-6.569689,-0.040636,0.027979,0.015988
26416,-3.227384,2.001553,-6.679822,-0.022250,0.016254,-0.001066
26431,-3.385401,1.987187,-6.766014,-0.005063,0.008926,-0.006662
26446,-3.323152,1.929726,-6.600814,0.012790,0.002665,-0.015188
26461,-3.253720,1.771709,-6.526594,0.030510,-0.008527,-0.019985
26476,-3.294421,1.572991,-6.701370,-0.005329,-0.001998,-0.010658
26491,-3.260903,1.618480,-6.722918,-0.023315,0.013723,-0.010392
26506,-3.294421,1.704672,-6.727706,-0.038104,0.004530,-0.002265
26521,-3.330334,1.771709,-6.619967,-0.049429,0.003597,0.002665
26536,-3.351882,1.812411,-6.667851,-0.043167,0.024115,0.001865
26551,-3.318363,1.879448,-6.691793,-0.025980,0.029044,0.001466
26566,-3.227384,1.642422,-6.588843,-0.036372,0.027179,0.013590
26581,-3.229778,1.685518,-6.622362,-0.054758,0.040369,0.015188
26596,-3.287239,1.709460,-6.653486,-0.065949,0.031309,0.018652
26611,-3.241749,1.781286,-6.586449,-0.068481,0.027845,0.020917
26626,-3.138798,1.934515,-6.607996,-0.064750,0.026913,0.020651
26641,-3.222595,2.075773,-6.694188,-0.030377,0.017853,0.006928
26656,-3.330334,2.032677,-6.754043,0.001332,0.001998,-0.008127
26671,-3.301604,1.948880,-6.739678,0.013456,0.010658,-0.015188
26686,-3.289633,1.802834,-6.651092,0.015055,0.008926,-0.008793
26701,-3.275268,1.735796,-6.706159,0.004397,-0.001599,-0.011991
26716,-3.356671,1.685518,-6.744466,-0.008127,0.002132,-0.008926
26731,-3.349488,1.683124,-6.619967,-0.025714,0.008127,-0.006795
26746,-3.270479,1.685518,-6.730101,-0.032109,0.004930,-0.001199
26761,-3.287239,1.764527,-6.646304,-0.047963,0.014655,0.006795
26776,-3.356671,1.661576,-6.701370,-0.053026,0.037971,0.004663
26791,-3.368642,1.678335,-6.593631,-0.058888,0.031576,0.013723
26806,-3.198653,1.685518,-6.643909,-0.069280,0.032109,0.018119
26821,-3.198653,1.788469,-6.653486,-0.075276,0.038104,0.025181
26836,-3.193865,1.934515,-6.672640,-0.065150,0.026513,0.019319
26851,-3.318363,1.896208,-6.696582,-0.053026,0.027845,0.014123
26866,-3.165135,2.037466,-6.660669,-0.028245,0.011058,0.007194
26881,-3.145981,2.063802,-6.603208,0.010392,0.002398,-0.009593
26896,-3.390190,1.845930,-6.706159,0.016521,0.006129,-0.016787
26911,-3.351882,1.738190,-6.734890,0.006528,-0.003464,-0.014389
26926,-3.260903,1.695095,-6.619967,-0.008527,-0.002798,-0.009726
26941,-3.193865,1.745373,-6.651092,-0.017320,0.005995,-0.004130
26956,-3.335123,1.690306,-6.667851,-0.029311,0.004796,-0.005196
26971,-3.361459,1.697489,-6.596025,-0.040636,0.006395,-0.001865
26986,-3.270479,1.793257,-6.591237,-0.041035,0.014922,-0.002265
27001,-3.241749,1.709460,-6.734890,-0.040769,0.037971,0.001199
27016,-3.256114,1.611298,-6.505046,-0.056890,0.020251,0.015721
27031,-3.325546,1.714248,-6.612785,-0.070746,0.039436,0.023982
27046,-3.248932,1.896208,-6.634333,-0.054625,0.028778,0.015988
27061,-3.150769,1.879448,-6.675034,-0.039170,0.028378,0.012524
27076,-3.239355,1.893813,-6.603208,-0.028911,0.023715,0.010126
27091,-3.308787,1.924938,-6.775591,-0.015721,0.024381,0.005196
27106,-3.287239,1.896208,-6.696582,-0.001332,0.007861,-0.006662
27121,-3.222595,1.853112,-6.770802,0.011458,0.004930,-0.009992
27136,-3.270479,1.776498,-6.545747,0.000400,0.001998,-0.009459
27151,-3.385401,1.690306,-6.689399,0.000799,0.002798,-0.010658
27166,-3.313575,1.656788,-6.667851,-0.018119,-0.002132,-0.004663
27181,-3.275268,1.673547,-6.739678,-0.039969,0.003997,-0.003064
27196,-3.241749,1.745373,-6.667851,-0.056623,0.008527,0.002398
27211,-3.392584,1.719037,-6.703764,-0.061286,0.016920,0.005862
27226,-3.303998,1.812411,-6.653486,-0.053159,0.026247,0.005995
27241,-3.236961,1.833959,-6.677428,-0.046364,0.035173,0.015188
27256,-3.248932,1.786074,-6.543353,-0.050894,0.045432,0.016121
27271,-3.280056,1.819593,-6.600814,-0.037305,0.027712,0.008793
27286,-3.299210,1.829170,-6.682217,-0.033308,0.032508,0.005862
27301,-3.222595,1.814805,-6.646304,-0.031975,0.035706,0.007727
27316,-3.165135,1.898602,-6.634333,-0.023982,0.014922,0.008527
27331,-3.289633,1.927332,-6.744466,-0.009459,0.011058,-0.003464
27346,-3.392584,1.812411,-6.770802,0.004530,0.003198,-0.005596
27361,-3.215413,1.771709,-6.610391,0.000799,-0.003597,-0.008926
27376,-3.246537,1.754950,-6.617573,-0.000266,-0.001199,-0.010925
27391,-3.349488,1.604115,-6.766014,-0.028378,-0.003464,-0.005063
27406,-3.332729,1.656788,-6.660669,-0.048763,0.008660,0.000400
27421,-3.294421,1.783680,-6.576872,-0.069413,0.012257,0.002798
27436,-3.201048,1.829170,-6.572083,-0.066349,0.018652,0.005063
27451,-3.308787,1.915361,-6.648698,-0.055158,0.019052,0.005862
27466,-3.371036,1.728614,-6.605602,-0.041568,0.033308,0.009326
27481,-3.244143,1.790863,-6.734890,-0.051427,0.032375,0.013323
27496,-3.105279,1.800440,-6.576872,-0.050361,0.030910,0.009060
27511,-3.277662,1.764527,-6.636727,-0.047963,0.031043,0.009593
27526,-3.330334,1.807622,-6.701370,-0.054092,0.028911,0.018253
27541,-3.186682,2.027889,-6.658275,-0.031576,0.019052,0.013590
27556,-3.258508,2.128445,-6.756437,-0.012524,0.014123,0.001732
27571,-3.256114,1.939303,-6.612785,0.011991,-0.001332,-0.012524
27586,-3.342305,1.747767,-6.682217,0.016121,-0.005729,-0.017720
27601,-3.332729,1.592144,-6.598420,-0.001599,-0.000400,-0.012923
27616,-3.244143,1.649605,-6.706159,-0.037038,0.004930,-0.001066
27631,-3.272874,1.709460,-6.617573,-0.054092,0.012524,0.005862
27646,-3.335123,1.740585,-6.588843,-0.054092,0.009726,0.003997
27661,-3.361459,1.884237,-6.610391,-0.052626,0.012923,0.004130
27676,-3.272874,1.790863,-6.593631,-0.047297,0.033308,0.008127
27691,-3.308787,1.721431,-6.732495,-0.044766,0.032908,0.007861
27706,-3.306392,1.716643,-6.646304,-0.050361,0.029444,0.019851
27721,-3.299210,1.793257,-6.639121,-0.055691,0.040902,0.016920
27736,-3.177106,1.898602,-6.643909,-0.043433,0.034240,0.011058
27751,-3.208230,1.915361,-6.675034,-0.033175,0.034907,0.009859
27766,-3.289633,1.893813,-6.751649,-0.024381,0.016121,0.006395
27781,-3.303998,1.941698,-6.694188,-0.012124,0.010126,-0.004130
27796,-3.201048,1.867477,-6.648698,-0.010658,-0.002665,-0.009593
27811,-3.179500,1.819593,-6.643909,-0.007061,-0.006395,-0.008660
27826,-3.366247,1.687912,-6.667851,-0.016121,-0.004796,-0.007461
27841,-3.397372,1.771709,-6.663063,-0.034773,0.002931,0.000533
27856,-3.227384,1.790863,-6.675034,-0.049828,0.008793,-0.000666
27871,-3.263297,1.692701,-6.629544,-0.067149,0.016121,0.005329
27886,-3.371036,1.812411,-6.598420,-0.065550,0.019185,0.009859
27901,-3.390190,1.975216,-6.615179,-0.048230,0.038770,0.007461
27916,-3.239355,1.774103,-6.569689,-0.045299,0.025447,0.013057
27931,-3.150769,1.910573,-6.720524,-0.040103,0.034240,0.011591
27946,-3.236961,1.848324,-6.607996,-0.026380,0.032375,0.001466
27961,-3.368642,1.781286,-6.639121,-0.029844,0.027979,0.008260
27976,-3.289633,1.841141,-6.792350,-0.035173,0.031975,0.011058
27991,-3.174711,1.915361,-6.658275,-0.026779,0.015588,0.009726
28006,-3.287239,1.960851,-6.722918,-0.008660,0.006662,-0.007861
28021,-3.344700,1.905784,-6.720524,-0.004663,0.001599,-0.009726
28036,-3.270479,1.810017,-6.687005,-0.002798,-0.006262,-0.014123
28051,-3.196259,1.754950,-6.682217,-0.005995,-0.004263,-0.013723
28066,-3.323152,1.620875,-6.677428,-0.027179,0.003997,-0.008260
28081,-3.318363,1.714248,-6.758832,-0.044632,0.001199,-0.000666
28096,-3.272874,1.687912,-6.675034,-0.059688,0.013989,0.001332
28111,-3.213019,1.838747,-6.557718,-0.059821,0.019718,0.009593
28126,-3.224990,1.838747,-6.648698,-0.053426,0.033441,0.015455
28141,-3.344700,1.800440,-6.687005,-0.040636,0.035706,0.009992
28156,-3.292027,1.795651,-6.651092,-0.038371,0.029711,0.008260
28171,-3.150769,1.783680,-6.713341,-0.037838,0.036239,0.009326
28186,-3.215413,1.752556,-6.675034,-0.046498,0.032775,0.012923
28201,-3.303998,1.814805,-6.689399,-0.048896,0.032109,0.018652
28216,-3.258508,2.008735,-6.646304,-0.034640,0.019585,0.009593
28231,-3.184288,2.066196,-6.806715,-0.011991,0.004796,-0.002931
28246,-3.224990,1.951274,-6.684611,-0.003198,-0.002665,-0.007994
28261,-3.339911,1.781286,-6.560112,0.000933,0.000400,-0.009726
28276,-3.337517,1.697489,-6.698976,-0.012657,0.003464,-0.006662
28291,-3.258508,1.745373,-6.641515,-0.031043,0.001466,-0.003997
28306,-3.236961,1.726219,-6.696582,-0.048496,0.003730,0.000933
28321,-3.371036,1.726219,-6.663063,-0.065283,0.014522,0.004930
28336,-3.359065,1.829170,-6.617573,-0.058089,0.016121,0.006262
28351,-3.241749,1.960851,-6.694188,-0.043700,0.026513,0.004796
28366,-3.215413,1.800440,-6.569689,-0.035972,0.030643,0.009326
28381,-3.284845,1.714248,-6.720524,-0.043167,0.039570,0.013590
28396,-3.301604,1.829170,-6.531382,-0.039037,0.043034,0.014256
28411,-3.213019,1.965640,-6.718130,-0.015721,0.037838,0.000533
28426,-3.174711,1.867477,-6.622362,-0.006129,0.027312,-0.000533
28441,-3.318363,1.738190,-6.713341,-0.015721,0.012124,0.001066
28456,-3.313575,1.764527,-6.722918,-0.026779,0.007328,-0.002931
28471,-3.244143,1.831564,-6.677428,-0.041568,0.001332,0.002265
28486,-3.270479,1.877054,-6.581660,-0.041168,-0.005596,-0.000933
28501,-3.224990,1.831564,-6.751649,-0.038904,-0.003597,-0.004397
28516,-3.349488,1.702277,-6.715735,-0.043567,0.007994,0.000266
28531,-3.287239,1.805228,-6.713341,-0.068881,0.012524,0.015855
28546,-3.227384,2.044648,-6.643909,-0.053825,0.017587,0.005596
28561,-3.308787,2.063802,-6.715735,-0.012391,0.023315,-0.005729
