T,AX,AY,AZ,GX,GY,GZ
46,-3.136404,1.946486,-6.763620,-0.039703,-0.031576,0.007994
61,-3.052607,2.082955,-6.722918,-0.018119,0.026513,-0.004530
76,-3.236961,1.984793,-6.730101,-0.027845,0.014256,0.000133
91,-3.220201,1.884237,-6.691793,-0.035706,0.001332,0.003198
106,-3.220201,2.030283,-6.725312,-0.043567,0.019185,0.011058
121,-3.126827,2.188300,-6.677428,-0.041968,0.022250,0.008660
136,-3.150769,2.197877,-6.742072,-0.029711,0.018519,0.002132
151,-3.201048,2.063802,-6.658275,-0.037704,-0.041168,0.009193
166,-3.100491,1.987187,-6.617573,-0.037971,0.030110,0.008127
181,-3.270479,1.932121,-6.687005,-0.042900,0.037971,0.009060
196,-3.071761,2.135628,-6.581660,-0.044499,0.001332,0.009060
211,-3.074155,2.042254,-6.756437,-0.030243,0.008660,0.001066
226,-3.227384,2.080561,-6.653486,-0.025314,0.020251,-0.000933
241,-3.160346,2.087744,-6.725312,-0.023582,0.009992,0.001199
256,-3.134010,2.082955,-6.670246,-0.020784,0.009726,-0.000533
271,-3.222595,1.956063,-6.670246,-0.025847,0.019585,0.003198
286,-3.356671,1.915361,-6.605602,-0.026646,0.013057,0.002931
301,-3.179500,2.027889,-6.691793,-0.027845,0.010259,0.006662
316,-3.047819,2.066196,-6.655880,-0.023449,0.018919,0.003597
331,-3.136404,1.965640,-6.701370,-0.028645,0.017320,0.005063
346,-3.241749,2.023100,-6.744466,-0.026380,0.020784,0.005596
361,-3.224990,2.001553,-6.682217,-0.031443,0.011991,0.006928
376,-3.124433,2.118868,-6.698976,-0.037038,0.020118,0.011724
391,-3.141193,2.178724,-6.770802,-0.032775,0.022250,0.007194
406,-3.136404,2.231396,-6.548141,-0.053426,-0.013456,0.026380
421,-3.248932,1.946486,-6.445191,-0.031975,-0.007461,0.020384
436,-2.801216,2.130840,-6.842628,-0.017320,0.001998,0.014256
451,-3.172317,1.826776,-6.770802,-0.021317,0.002931,-0.006928
466,-3.177106,1.805228,-6.842628,-0.081937,-0.074343,0.024515
481,-3.246537,1.747767,-6.548141,-0.085268,-0.013723,0.024914
496,-3.268085,2.035071,-6.651092,-0.097792,0.012391,0.032508
511,-3.406949,1.977611,-6.749255,-0.102455,0.008127,0.033041
526,-3.184288,2.130840,-6.531382,-0.107118,0.047297,0.039170
541,-3.193865,2.375048,-6.593631,-0.080338,0.031043,0.023049
556,-2.980781,2.497152,-6.600814,-0.035440,0.033574,0.001466
571,-2.985569,2.212242,-6.627150,-0.019052,0.033441,0.000000
586,-3.394978,2.032677,-6.627150,-0.004530,-0.003064,-0.000933
601,-3.186682,1.953669,-6.763620,-0.028645,0.009459,0.005329
616,-3.184288,1.915361,-6.634333,-0.046364,0.022516,0.008527
631,-3.112462,2.003947,-6.653486,-0.066349,0.008127,0.015055
646,-3.114856,2.082955,-6.706159,-0.067948,0.022116,0.014922
661,-3.153164,2.257732,-6.588843,-0.060354,0.015322,0.006528
676,-3.117250,2.284068,-6.524199,-0.043567,0.005196,0.000266
691,-3.205836,2.219425,-6.663063,-0.011058,0.004530,-0.006662
706,-3.213019,2.066196,-6.689399,-0.019851,0.004796,0.000799
721,-3.275268,1.991976,-6.648698,-0.025847,0.026779,0.001998
736,-3.169923,2.087744,-6.576872,-0.035040,0.021583,0.007861
751,-3.019088,2.161964,-6.660669,-0.028911,0.015988,-0.000266
766,-3.134010,2.063802,-6.631938,-0.035306,0.021051,0.007328
781,-3.258508,2.056619,-6.627150,-0.043567,0.015721,0.006262
796,-3.186682,2.140416,-6.619967,-0.040636,0.011991,0.009060
811,-3.066972,2.243367,-6.660669,-0.028645,0.013323,0.005995
826,-3.131616,2.236184,-6.624756,-0.021717,0.012524,-0.000133
841,-3.258508,2.090138,-6.701370,0.000000,0.013057,-0.007994
856,-3.186682,2.092532,-6.627150,-0.001865,0.008926,-0.010126
871,-3.162740,2.020706,-6.689399,-0.015322,0.013190,-0.006528
886,-3.131616,1.936909,-6.545747,-0.036639,0.012391,0.005862
901,-3.210624,2.035071,-6.603208,-0.047830,0.013190,0.004530
916,-3.234566,2.011129,-6.610391,-0.049828,0.011325,0.007994
931,-3.131616,2.176329,-6.706159,-0.043433,0.009193,0.006795
946,-3.136404,2.250550,-6.720524,-0.032908,0.016654,-0.000666
961,-3.277662,2.161964,-6.687005,-0.012790,0.012524,-0.003864
976,-3.189077,2.135628,-6.696582,-0.005462,0.019052,-0.006928
991,-3.114856,2.128445,-6.646304,-0.007061,0.019452,-0.008527
1006,-3.038242,2.240973,-6.792350,0.031309,-0.024515,-0.016654
1021,-3.126827,1.948880,-6.641515,-0.026380,0.045698,-0.001599
1036,-3.198653,1.855506,-6.519411,-0.074743,0.045032,0.022383
1051,-3.129222,2.013524,-6.660669,-0.053959,-0.013856,0.016121
1066,-3.093308,2.051831,-6.715735,-0.047430,0.025181,-0.000799
1081,-3.282450,1.960851,-6.691793,-0.040902,0.020384,0.001066
1096,-3.292027,2.111686,-6.610391,-0.045565,0.007594,0.005729
1111,-3.165135,2.056619,-6.598420,-0.051294,0.016654,0.012524
1126,-3.126827,2.140416,-6.576872,-0.047963,0.012790,0.008660
1141,-3.244143,2.161964,-6.514623,-0.032642,0.001998,0.006528
1156,-3.177106,2.102109,-6.670246,-0.033041,0.008527,0.002398
1171,-3.208230,2.138022,-6.682217,-0.021717,0.021583,0.001066
1186,-3.119645,2.047042,-6.663063,-0.021717,0.015055,0.000666
1201,-3.131616,2.008735,-6.646304,-0.025580,0.018386,0.000266
1216,-3.289633,2.027889,-6.665457,-0.037571,0.019851,0.003597
1231,-3.167529,2.190695,-6.581660,-0.037305,0.016121,0.005462
1246,-3.110068,2.197877,-6.600814,-0.031576,0.016521,0.002531
1261,-3.155558,2.173935,-6.574478,-0.029977,0.010925,0.003064
1276,-3.215413,2.075773,-6.598420,-0.023848,0.016521,-0.002798
1291,-3.196259,2.106897,-6.653486,-0.018786,0.008394,-0.003597
1306,-3.155558,2.049437,-6.643909,-0.011858,0.011991,-0.005862
1321,-3.210624,1.903390,-6.576872,-0.031576,0.011858,0.000000
1336,-3.284845,1.936909,-6.679822,-0.049162,0.011724,0.009060
1351,-3.289633,2.097321,-6.665457,-0.059421,0.016121,0.013590
1366,-3.150769,2.221819,-6.639121,-0.054092,0.016654,0.010126
1381,-3.114856,2.224213,-6.629544,-0.039969,0.014123,0.005596
1396,-3.117250,2.200271,-6.710947,-0.027979,0.022383,-0.001332
1411,-3.234566,2.087744,-6.727706,0.001466,0.055557,-0.011724
1426,-3.232172,2.118868,-6.687005,-0.002798,0.013590,-0.003997
1441,-3.095703,1.975216,-6.622362,-0.024381,0.014522,0.006395
1456,-3.648763,1.833959,-6.581660,-0.004130,-0.021184,-0.003331
1471,-3.059790,2.042254,-6.521805,-0.063951,-0.016654,0.016254
1486,-3.157952,2.090138,-6.622362,-0.066616,0.055025,0.009326
1501,-3.203442,2.272097,-6.639121,-0.043567,0.005729,0.004530
1516,-3.157952,2.099715,-6.548141,-0.040103,0.005729,0.001199
1531,-3.256114,2.116474,-6.593631,-0.027179,0.021583,-0.003464
1546,-3.179500,2.061408,-6.629544,-0.023315,0.012124,0.003464
1561,-3.093308,2.032677,-6.605602,-0.037172,0.010126,0.008394
1576,-3.239355,2.181118,-6.653486,-0.051827,0.023582,0.007727
1591,-3.344700,2.207454,-6.667851,-0.046498,0.013323,0.007061
1606,-3.114856,2.193089,-6.615179,-0.021717,0.015455,-0.004663
1621,-3.066972,1.999158,-6.708553,-0.023449,0.021450,0.002531
1636,-3.172317,2.138022,-6.634333,-0.026779,0.016920,0.007328
1651,-3.232172,2.255338,-6.622362,-0.012923,0.027046,-0.003464
1666,-3.136404,2.001553,-6.639121,-0.016654,0.019052,-0.003064
1681,-3.093308,2.157176,-6.517017,-0.034640,0.011991,0.002798
1696,-3.186682,2.205060,-6.603208,-0.019452,0.014123,-0.005729
1711,-3.162740,2.015918,-6.904878,0.022250,0.084335,-0.024648
1726,-3.335123,1.697489,-6.720524,-0.040103,0.084069,0.004930
1741,-3.754108,2.044648,-6.454768,-0.034374,-0.033974,0.014522
1756,-2.554613,2.291251,-6.236896,-0.100856,-0.082337,0.049962
1771,-3.471592,2.035071,-6.540959,-0.007061,0.052093,0.000400
1786,-3.406949,1.831564,-6.658275,-0.103254,0.045299,0.025047
1801,-3.236961,2.281674,-6.596025,-0.076475,-0.005995,0.015855
1816,-3.165135,2.123657,-6.533776,-0.042634,0.048496,0.008926
1831,-3.196259,2.039860,-6.718130,-0.051161,0.004796,0.013989
1846,-3.186682,2.250550,-6.600814,-0.053825,0.005862,0.013323
1861,-3.196259,2.391808,-6.509834,-0.027179,0.013057,-0.001732
1876,-3.179500,2.322376,-6.701370,-0.002665,0.018919,-0.009060
1891,-3.177106,2.059013,-6.708553,-0.008660,0.012790,-0.007061
1906,-3.191471,2.035071,-6.651092,-0.015188,0.018786,0.000000
1921,-3.131616,2.030283,-6.631938,-0.025447,0.015588,0.006662
1936,-3.191471,2.001553,-6.576872,-0.035440,0.015988,0.006528
1951,-3.191471,2.111686,-6.576872,-0.057689,0.022250,0.013057
1966,-3.248932,2.219425,-6.600814,-0.055957,0.015588,0.008394
1981,-3.248932,2.245761,-6.627150,-0.023315,0.017986,-0.004130
1996,-3.033453,2.059013,-6.607996,-0.020917,-0.003864,0.002398
2011,-3.129222,2.082955,-6.593631,-0.015322,0.019319,-0.003464
2026,-3.373430,2.085350,-6.593631,-0.029311,0.013856,0.000933
2041,-3.186682,2.003947,-6.552930,-0.037172,0.017853,0.008127
2056,-3.071761,2.056619,-6.648698,-0.040103,0.030243,0.006928
2071,-3.169923,2.142811,-6.615179,-0.025980,-0.001466,0.004397
2086,-3.117250,2.121263,-6.675034,-0.046764,0.030910,0.003198
2101,-2.987964,2.430115,-6.734890,-0.044766,-0.011058,0.007994
2116,-3.165135,2.109292,-6.694188,-0.036905,0.067681,0.002798
2131,-3.327940,2.099715,-6.648698,-0.027312,0.005995,0.003730
2146,-3.160346,2.106897,-6.603208,-0.021850,-0.004930,0.002798
2161,-3.227384,1.996764,-6.617573,-0.034907,0.030377,0.003064
2176,-3.224990,2.126051,-6.612785,-0.052360,0.015721,0.010126
2191,-3.114856,2.142811,-6.507440,-0.059688,0.015188,0.012790
2206,-3.138798,2.214637,-6.567295,-0.042900,0.015721,0.005596
2221,-3.131616,2.284068,-6.603208,-0.023315,0.012524,0.001332
2236,-3.181894,2.135628,-6.653486,-0.011191,0.006129,-0.004796
2251,-3.153164,2.090138,-6.670246,-0.014789,0.015988,-0.000666
2266,-3.287239,1.968034,-6.689399,-0.026247,0.015588,0.002398
2281,-3.260903,2.059013,-6.631938,-0.035706,0.025980,0.006662
2296,-3.076549,2.154782,-6.579266,-0.047564,0.022250,0.011858
2311,-3.086126,2.217031,-6.596025,-0.045965,0.018386,0.009859
2326,-3.155558,2.193089,-6.581660,-0.041168,0.020118,0.009726
2341,-3.198653,2.243367,-6.612785,-0.031443,0.014256,0.004930
2356,-3.222595,2.243367,-6.598420,-0.007061,0.009326,-0.000400
2371,-3.138798,2.042254,-6.725312,-0.012790,0.016654,-0.006528
2386,-3.179500,1.936909,-6.641515,-0.038371,0.021717,0.005862
2401,-3.236961,2.087744,-6.612785,-0.050361,0.023315,0.011191
2416,-3.213019,2.185906,-6.653486,-0.047164,0.020251,0.006662
2431,-2.978387,2.327164,-6.488286,-0.025714,0.013456,-0.001066
2446,-3.102885,2.214637,-6.636727,-0.007061,0.011325,-0.010392
2461,-3.287239,2.075773,-6.655880,-0.005462,0.005329,-0.008260
2476,-3.232172,1.989582,-6.619967,-0.021583,0.014789,-0.005729
2491,-3.112462,2.030283,-6.670246,-0.029178,-0.005462,0.001466
2506,-3.035848,2.027889,-6.567295,-0.081404,0.025580,0.013723
2521,-3.354276,2.123657,-6.639121,-0.083936,0.031043,0.012124
2536,-3.129222,2.169147,-6.667851,-0.082337,0.012657,0.016920
2551,-3.064578,2.252944,-6.624756,-0.077807,0.021983,0.016521
2566,-3.172317,2.243367,-6.612785,-0.065283,-0.010658,0.013190
2581,-3.131616,2.217031,-6.631938,-0.053426,0.018652,0.006129
2596,-3.282450,2.190695,-6.629544,-0.058755,0.021450,0.006795
2611,-3.076549,2.197877,-6.624756,-0.064884,0.012257,0.007461
2626,-3.114856,2.188300,-6.586449,-0.064217,0.013456,0.004663
2641,-3.172317,2.169147,-6.560112,-0.062885,0.014256,0.007727
2656,-3.102885,2.188300,-6.603208,-0.057556,0.015721,0.006795
2671,-3.179500,2.171541,-6.629544,-0.057956,0.019718,0.006795
2686,-3.227384,2.075773,-6.641515,-0.069014,0.008260,0.009326
2701,-3.272874,2.061408,-6.562507,-0.093662,0.027446,0.014389
2716,-3.124433,2.190695,-6.677428,-0.096859,0.028378,0.019185
2731,-3.172317,2.310405,-6.593631,-0.087799,0.031176,0.018119
2746,-3.284845,2.367865,-6.586449,-0.076342,0.020518,0.012391
2761,-3.198653,2.319981,-6.519411,-0.056757,0.012124,0.015322
2776,-3.074155,2.396596,-6.536170,-0.037172,0.005462,0.007328
2791,-3.126827,2.236184,-6.619967,-0.038637,0.007328,0.005063
2806,-3.215413,2.248155,-6.636727,-0.043433,0.005995,0.001599
2821,-3.191471,2.250550,-6.586449,-0.047297,0.012524,0.005729
2836,-3.153164,2.293645,-6.591237,-0.046098,0.018652,0.004663
2851,-3.129222,2.276886,-6.612785,-0.046231,0.015188,0.006395
2866,-3.138798,2.319981,-6.663063,-0.035440,0.024781,0.002265
2881,-3.258508,2.276886,-6.588843,-0.031975,0.019452,0.000133
2896,-3.181894,2.291251,-6.457162,-0.032109,0.030243,-0.004796
2911,-3.055001,2.329558,-6.797139,-0.025714,0.042368,-0.001599
2926,-2.628834,2.018312,-6.919243,-0.119375,0.051161,0.043966
2941,-3.639187,2.142811,-6.842628,-0.012923,0.031576,0.006395
2956,-2.839523,2.382231,-6.615179,0.017453,-0.038504,0.022783
2971,-3.643975,2.001553,-6.464345,-0.048096,0.018786,0.016787
2986,-3.349488,2.430115,-6.538565,-0.074743,-0.013723,0.027446
3001,-3.145981,2.477999,-6.550536,-0.032242,0.023848,0.015855
3016,-3.222595,2.430115,-6.593631,-0.019185,0.021717,0.008660
3031,-3.059790,2.449268,-6.493075,-0.003730,-0.005862,-0.002265
3046,-3.131616,2.360683,-6.540959,0.004397,0.001732,-0.008793
3061,-3.260903,2.331952,-6.653486,0.017587,0.005063,-0.010392
3076,-3.107674,2.291251,-6.636727,0.022649,-0.001066,-0.013856
3091,-3.078943,2.097321,-6.603208,0.012524,0.002665,-0.012124
3106,-3.205836,1.922544,-6.710947,-0.023848,0.012790,-0.000266
3121,-3.311181,1.903390,-6.627150,-0.065283,0.024515,0.018386
3136,-3.222595,2.133234,-6.651092,-0.088466,0.039570,0.028911
3151,-3.100491,2.489970,-6.524199,-0.082337,0.035972,0.023449
3166,-3.093308,2.504335,-6.545747,-0.050228,0.035972,0.001599
3181,-3.236961,2.398990,-6.555324,-0.014123,0.030243,-0.015322
3196,-3.184288,2.291251,-6.584054,-0.000799,0.018786,-0.017187
3211,-3.095703,2.190695,-6.572083,-0.006528,0.018519,-0.009459
3226,-3.134010,2.039860,-6.631938,-0.025447,0.011991,-0.001599
3241,-3.323152,2.011129,-6.545747,-0.054891,0.007461,0.009593
3256,-3.165135,2.126051,-6.643909,-0.076475,0.015988,0.017054
3271,-3.136404,2.329558,-6.505046,-0.079539,0.015721,0.014655
3286,-3.064578,2.341529,-6.572083,-0.070479,0.008260,0.012923
3301,-3.165135,2.434903,-6.574478,-0.043700,0.008527,0.007994
3316,-3.203442,2.406173,-6.627150,-0.019452,0.003464,-0.001998
3331,-3.119645,2.377442,-6.593631,-0.000400,0.009060,-0.008793
3346,-3.129222,2.331952,-6.552930,0.006528,0.014389,-0.007594
3361,-3.196259,2.255338,-6.615179,0.015188,0.012923,-0.009593
3376,-3.268085,2.133234,-6.569689,0.011591,0.018652,-0.007994
3391,-3.138798,2.205060,-6.560112,-0.001599,0.020651,-0.006395
3406,-3.074155,2.169147,-6.560112,-0.010792,0.017320,0.000666
3421,-3.191471,2.221819,-6.536170,-0.013723,0.014922,-0.000400
3436,-3.251326,2.243367,-6.545747,-0.015855,0.018519,-0.005196
3451,-3.100491,2.281674,-6.610391,-0.016121,0.011058,-0.006262
3466,-3.119645,2.252944,-6.687005,-0.014522,0.015055,-0.010525
3481,-3.186682,2.188300,-6.607996,-0.016387,0.008394,-0.007994
3496,-3.248932,2.173935,-6.540959,-0.020518,0.010259,-0.006528
3511,-3.229778,2.190695,-6.514623,-0.025847,0.015588,-0.000933
3526,-3.107674,2.195483,-6.584054,-0.026513,0.011991,0.001466
3541,-3.136404,2.209848,-6.591237,-0.027446,0.009060,-0.000133
3556,-3.284845,2.252944,-6.596025,-0.017054,0.021450,-0.003064
3571,-3.241749,2.193089,-6.607996,-0.026779,0.015055,0.001332
3586,-3.081337,2.293645,-6.569689,-0.028245,0.023982,-0.000133
3601,-3.098097,2.229002,-6.591237,-0.020118,0.013190,0.002665
3616,-3.191471,2.164358,-6.636727,-0.024115,0.014389,0.003597
3631,-3.205836,2.214637,-6.624756,-0.034773,0.007061,0.001865
3646,-3.150769,2.147599,-6.562507,-0.035972,0.015988,0.002798
3661,-3.131616,2.255338,-6.679822,-0.039703,0.015988,0.001998
3676,-3.217807,2.231396,-6.488286,-0.050761,0.016654,0.010792
3691,-3.244143,2.308010,-6.562507,-0.043567,0.020118,0.003864
3706,-3.078943,2.406173,-6.531382,-0.028378,0.015855,-0.004397
3721,-3.074155,2.367865,-6.586449,-0.013590,0.013989,-0.008793
3736,-3.244143,2.154782,-6.528988,0.006795,-0.008527,-0.013856
3751,-3.193865,2.118868,-6.660669,-0.015455,-0.001066,-0.009726
3766,-3.172317,2.145205,-6.636727,-0.028112,0.021850,-0.001466
3781,-3.181894,2.224213,-6.655880,-0.030110,0.009726,0.005862
3796,-3.162740,2.231396,-6.598420,-0.028645,0.020518,0.005729
3811,-3.239355,2.406173,-6.591237,0.004663,0.008793,-0.003064
3826,-3.093308,2.224213,-6.557718,-0.020651,0.019851,0.002132
3841,-3.131616,2.243367,-6.588843,-0.023449,0.018786,0.002265
3856,-3.189077,2.135628,-6.634333,-0.028378,0.015055,0.005862
3871,-3.289633,2.116474,-6.677428,-0.029844,0.021717,0.002665
3886,-3.174711,2.166753,-6.629544,-0.045032,0.010792,0.011858
3901,-3.100491,2.233790,-6.495469,-0.044499,0.013856,0.008660
3916,-3.198653,2.219425,-6.567295,-0.034773,0.016387,0.002132
3931,-3.203442,2.183512,-6.596025,-0.031709,0.011858,0.001332
3946,-3.150769,2.205060,-6.603208,-0.035173,0.014123,0.003464
3961,-3.122039,2.250550,-6.538565,-0.033841,0.007461,0.006795
3976,-3.201048,2.202666,-6.531382,-0.037038,0.013323,0.002665
3991,-3.354276,2.233790,-6.672640,-0.018652,0.011858,-0.000400
4006,-3.167529,2.185906,-6.545747,-0.013989,0.017453,-0.005329
4021,-3.122039,2.164358,-6.574478,-0.020118,0.017054,-0.001332
4036,-3.148375,2.169147,-6.672640,-0.020917,0.012391,-0.005329
4051,-3.210624,2.154782,-6.655880,-0.022649,0.010792,0.000799
4066,-3.248932,2.197877,-6.605602,-0.024515,0.013723,-0.000133
4081,-3.117250,2.197877,-6.552930,-0.020917,0.013057,0.001199
4096,-3.153164,2.219425,-6.653486,-0.027845,0.013456,0.000000
4111,-3.205836,2.181118,-6.567295,-0.030377,0.014789,0.000666
4126,-3.229778,2.224213,-6.612785,-0.031709,0.012790,0.001066
4141,-3.181894,2.207454,-6.691793,-0.025714,0.014522,0.001332
4156,-3.105279,2.193089,-6.557718,-0.028511,0.012524,-0.003597
4171,-3.251326,2.126051,-6.612785,-0.025714,0.011058,-0.000266
4186,-3.330334,2.138022,-6.658275,-0.032642,0.015855,0.002931
4201,-3.181894,2.080561,-6.646304,-0.050361,0.015188,0.009859
4216,-3.122039,2.219425,-6.591237,-0.051427,0.018519,0.012524
4231,-3.169923,2.346318,-6.528988,-0.041168,0.022383,0.006528
4246,-3.248932,2.286463,-6.615179,-0.025181,0.014522,-0.001332
4261,-3.177106,2.329558,-6.670246,-0.009726,0.015455,-0.005462
4276,-3.093308,2.193089,-6.612785,-0.010658,0.014655,-0.005196
4291,-3.181894,2.013524,-6.730101,-0.020917,0.014123,0.002531
4306,-3.284845,2.020706,-6.607996,-0.042767,0.018386,0.014522
4321,-3.256114,2.169147,-6.514623,-0.053426,0.019319,0.009992
4336,-3.148375,2.300828,-6.655880,-0.042767,0.014922,0.005995
4351,-3.110068,2.236184,-6.550536,-0.035040,0.016920,0.001466
4366,-3.256114,2.176329,-6.600814,-0.029044,0.017986,-0.001865
4381,-3.284845,2.272097,-6.548141,-0.030243,0.013590,-0.003730
4396,-3.143587,2.260126,-6.627150,-0.030776,0.013590,0.000533
4411,-3.117250,2.224213,-6.718130,-0.029711,0.012657,0.000400
4426,-3.196259,2.169147,-6.665457,-0.025980,0.011724,-0.002132
4441,-3.193865,2.111686,-6.708553,-0.031842,0.010925,0.001466
4456,-3.114856,2.176329,-6.622362,-0.041035,0.021051,0.010925
4471,-3.076549,2.238579,-6.600814,-0.041035,0.019319,0.006528
4486,-3.198653,2.288857,-6.581660,-0.029577,0.012657,0.001865
4501,-3.227384,2.291251,-6.591237,-0.021983,0.017720,0.000266
4516,-3.117250,2.255338,-6.466739,-0.015455,0.010925,-0.001732
4531,-3.093308,2.193089,-6.636727,-0.016521,0.011724,-0.004530
4546,-3.203442,2.056619,-6.670246,-0.022516,0.007727,-0.001865
4561,-3.260903,2.082955,-6.512228,-0.028645,0.013456,-0.000933
4576,-3.177106,2.135628,-6.598420,-0.048896,0.015988,0.008260
4591,-3.129222,2.250550,-6.600814,-0.049828,0.016254,0.008793
4606,-3.181894,2.317587,-6.612785,-0.035306,0.019185,0.002798
4621,-3.253720,2.372654,-6.591237,-0.019585,0.015188,-0.007994
4636,-3.155558,2.284068,-6.584054,-0.013190,0.012657,-0.002531
4651,-3.172317,2.197877,-6.641515,-0.010658,0.013723,-0.001332
4666,-3.193865,2.142811,-6.615179,-0.021184,0.016121,-0.000266
4681,-3.229778,2.068590,-6.581660,-0.028778,0.018786,0.002665
4696,-3.222595,2.171541,-6.619967,-0.036106,0.017853,0.005729
4711,-3.090914,2.248155,-6.564901,-0.036372,0.015055,0.001332
4726,-3.215413,2.238579,-6.505046,-0.025847,0.013723,-0.003730
4741,-3.296816,2.205060,-6.588843,-0.019718,0.012657,-0.007594
4756,-3.210624,2.128445,-6.643909,-0.017187,0.014123,-0.003064
4771,-3.100491,2.212242,-6.538565,-0.027712,0.014922,-0.001732
4786,-3.172317,2.183512,-6.708553,-0.029844,0.015055,0.000266
4801,-3.260903,2.176329,-6.548141,-0.032908,0.016387,0.002132
4816,-3.181894,2.190695,-6.540959,-0.033708,0.017853,0.003730
4831,-3.153164,2.219425,-6.588843,-0.031309,0.016521,0.004397
4846,-3.217807,2.164358,-6.641515,-0.023982,0.017986,0.005329
4861,-3.313575,2.126051,-6.677428,-0.029178,0.013856,0.004263
4876,-3.265691,2.161964,-6.627150,-0.030510,0.014389,0.006928
4891,-3.148375,2.159570,-6.540959,-0.033841,0.017986,0.004796
4906,-3.093308,2.126051,-6.667851,-0.043034,0.017453,0.003464
4921,-3.198653,2.202666,-6.584054,-0.044766,0.015721,0.008394
4936,-3.251326,2.193089,-6.576872,-0.041035,0.019185,0.005596
4951,-3.110068,2.279280,-6.538565,-0.035040,0.014256,0.005462
4966,-3.126827,2.193089,-6.679822,-0.029844,0.019452,-0.000666
4981,-3.268085,2.185906,-6.687005,-0.023982,0.017187,-0.003864
4996,-3.277662,2.166753,-6.641515,-0.018652,0.015855,-0.004130
5011,-3.224990,2.140416,-6.627150,-0.034507,0.015188,0.001332
5026,-3.198653,2.279280,-6.619967,-0.047963,0.019452,0.007194
5041,-3.315969,2.341529,-6.584054,-0.028112,0.017720,-0.001599
5056,-3.198653,2.274492,-6.663063,0.003198,0.012257,-0.008394
5071,-3.136404,2.075773,-6.562507,-0.006795,0.010525,-0.001332
5086,-3.189077,1.989582,-6.562507,-0.034374,0.013190,0.011458
5101,-3.299210,2.190695,-6.651092,-0.049695,0.022250,0.012657
5116,-3.277662,2.252944,-6.619967,-0.046897,0.021051,0.008793
5131,-3.134010,2.317587,-6.622362,-0.028778,0.017720,-0.000933
5146,-3.102885,2.193089,-6.536170,-0.024115,0.015588,-0.002531
5161,-3.205836,2.140416,-6.679822,-0.029311,0.015588,0.002531
5176,-3.303998,2.099715,-6.579266,-0.041835,0.021850,0.007061
5191,-3.198653,2.274492,-6.550536,-0.042501,0.015988,0.009193
5206,-3.105279,2.303222,-6.574478,-0.034374,0.015188,0.004796
5221,-3.196259,2.221819,-6.560112,-0.029311,0.017320,0.000933
5236,-3.339911,2.128445,-6.679822,-0.032242,0.018786,0.001599
5251,-3.236961,2.262521,-6.567295,-0.031309,0.018253,0.004397
5266,-3.117250,2.197877,-6.591237,-0.032908,0.014789,0.005196
5281,-3.134010,2.145205,-6.643909,-0.021184,0.016787,0.001865
5296,-3.217807,2.193089,-6.615179,-0.018253,0.013723,0.000666
5311,-3.179500,2.224213,-6.603208,-0.024515,0.014789,-0.003597
5326,-3.208230,2.274492,-6.495469,-0.023715,0.014655,-0.001865
5341,-3.205836,2.188300,-6.576872,-0.018253,0.016387,-0.003730
5356,-3.145981,2.001553,-6.629544,-0.031975,0.016654,0.006528
5371,-3.258508,2.142811,-6.634333,-0.042634,0.016254,0.005862
5386,-3.213019,2.305616,-6.495469,-0.040103,0.018386,0.008260
5401,-3.189077,2.293645,-6.555324,-0.027446,0.022383,0.001599
5416,-3.263297,2.126051,-6.586449,-0.022649,0.015188,-0.002398
5431,-3.260903,2.130840,-6.593631,-0.025580,0.015988,0.001998
5446,-3.205836,2.066196,-6.505046,-0.044899,0.015855,0.011191
5461,-3.122039,2.217031,-6.603208,-0.056757,0.016521,0.011991
5476,-3.157952,2.245761,-6.598420,-0.046231,0.024781,0.008926
5491,-3.232172,2.312799,-6.514623,-0.027579,0.013856,0.003864
5506,-3.155558,2.348712,-6.555324,-0.006795,0.015588,-0.002531
5521,-3.155558,2.149993,-6.629544,-0.018253,0.012923,-0.004397
5536,-3.150769,2.094926,-6.612785,-0.025314,0.018386,-0.001466
5551,-3.268085,2.121263,-6.598420,-0.035306,0.021051,0.002398
5566,-3.191471,2.231396,-6.665457,-0.032908,0.016121,0.001466
5581,-3.100491,2.231396,-6.651092,-0.028511,0.014655,-0.000133
5596,-3.148375,2.169147,-6.624756,-0.028245,0.013856,-0.002531
5611,-3.275268,2.140416,-6.603208,-0.029044,0.014123,-0.002265
5626,-3.265691,2.195483,-6.749255,-0.031842,0.014256,0.004796
5641,-3.114856,2.176329,-6.533776,-0.038904,0.014922,0.005196
5656,-3.184288,2.219425,-6.634333,-0.042368,0.013190,0.007727
5671,-3.234566,2.245761,-6.687005,-0.035440,0.014922,0.003198
5686,-3.224990,2.161964,-6.619967,-0.027712,0.016387,-0.001066
5701,-3.086126,2.252944,-6.569689,-0.028112,0.011858,0.000666
5716,-3.177106,2.217031,-6.584054,-0.029977,0.020118,0.001732
5731,-3.213019,2.209848,-6.576872,-0.032642,0.018786,0.002798
5746,-3.265691,2.169147,-6.596025,-0.030377,0.014389,0.002265
5761,-3.153164,2.214637,-6.596025,-0.023049,0.020784,0.000799
5776,-3.167529,2.152387,-6.545747,-0.029711,0.019185,0.005995
5791,-3.215413,2.224213,-6.624756,-0.026646,0.017187,0.001998
5806,-3.210624,2.193089,-6.555324,-0.025980,0.016521,0.000799
5821,-3.203442,2.221819,-6.610391,-0.021317,0.014389,-0.005462
5836,-3.167529,2.257732,-6.655880,-0.024381,0.014389,-0.001199
5851,-3.210624,2.082955,-6.670246,-0.024115,0.014123,-0.001066
5866,-3.265691,2.190695,-6.497863,-0.026779,0.013057,0.004130
5881,-3.153164,2.135628,-6.634333,-0.036772,0.013323,0.001332
5896,-3.095703,2.200271,-6.584054,-0.041968,0.018119,0.003464
5911,-3.198653,2.226608,-6.624756,-0.034640,0.016521,0.004530
5926,-3.236961,2.188300,-6.576872,-0.033574,0.015188,0.003464
5941,-3.181894,2.262521,-6.639121,-0.027712,0.017054,-0.000933
5956,-3.100491,2.214637,-6.524199,-0.024781,0.015588,-0.002132
5971,-3.234566,2.149993,-6.576872,-0.029577,0.011991,0.002265
5986,-3.292027,2.094926,-6.612785,-0.037172,0.015588,0.005196
6001,-3.189077,2.188300,-6.648698,-0.046498,0.018253,0.004796
6016,-3.095703,2.193089,-6.631938,-0.043700,0.017853,0.001732
6031,-3.153164,2.161964,-6.584054,-0.039969,0.017986,0.003464
6046,-3.275268,2.154782,-6.586449,-0.038237,0.015322,0.002665
6061,-3.229778,2.274492,-6.555324,-0.032109,0.016254,-0.002265
6076,-3.215413,2.176329,-6.598420,-0.031176,0.014655,0.002798
6091,-3.301604,2.197877,-6.665457,-0.032109,0.017054,0.000266
6106,-3.145981,2.262521,-6.660669,-0.034240,0.013723,0.001332
6121,-3.107674,2.169147,-6.653486,-0.028911,0.012257,-0.000266
6136,-3.172317,2.214637,-6.624756,-0.030377,0.018119,-0.001732
6151,-3.289633,2.197877,-6.555324,-0.025714,0.011191,-0.000266
6166,-3.205836,2.202666,-6.588843,-0.024381,0.015455,-0.000133
6181,-3.165135,2.226608,-6.572083,-0.026779,0.017187,-0.000400
6196,-3.229778,2.157176,-6.643909,-0.030510,0.013856,0.004397
6211,-3.277662,2.149993,-6.627150,-0.032775,0.022916,0.004530
6226,-3.268085,2.207454,-6.562507,-0.037438,0.019585,0.003464
6241,-3.028665,2.200271,-6.593631,-0.041302,0.017853,0.005329
6256,-3.107674,2.250550,-6.579266,-0.031576,0.018253,0.001865
6271,-3.234566,2.159570,-6.631938,-0.027712,0.011724,-0.001466
6286,-3.224990,2.193089,-6.576872,-0.027979,0.009726,-0.002132
6301,-3.213019,2.157176,-6.665457,-0.034240,0.015322,0.001865
6316,-3.153164,2.123657,-6.588843,-0.050361,0.016920,0.009726
6331,-3.299210,2.152387,-6.519411,-0.053825,0.015721,0.009859
6346,-3.239355,2.317587,-6.356606,-0.030377,0.022516,0.001865
6361,-3.002329,2.317587,-6.526594,-0.033708,0.006528,0.001066
6376,-3.157952,2.255338,-6.639121,-0.023582,0.030510,-0.001599
6391,-3.236961,2.200271,-6.665457,-0.023848,0.009060,-0.002665
6406,-3.248932,2.161964,-6.665457,-0.027179,0.013989,-0.000266
6421,-3.191471,2.209848,-6.643909,-0.031309,0.017587,0.000400
6436,-3.098097,2.149993,-6.653486,-0.038504,0.015721,0.005596
6451,-3.155558,2.195483,-6.576872,-0.040902,0.015188,0.012257
6466,-3.256114,2.250550,-6.545747,-0.043433,0.018253,0.005729
6481,-3.239355,2.286463,-6.538565,-0.039303,0.018919,0.001865
6496,-3.184288,2.238579,-6.605602,-0.033308,0.013590,0.004397
6511,-3.246537,2.195483,-6.569689,-0.031176,0.012790,-0.000400
6526,-3.342305,2.157176,-6.521805,-0.029044,0.018119,0.000400
6541,-3.241749,2.118868,-6.603208,-0.036505,0.012657,0.006662
6556,-3.162740,2.147599,-6.533776,-0.046631,0.015588,0.007594
6571,-3.234566,2.188300,-6.519411,-0.044499,0.019585,0.008660
6586,-3.213019,2.173935,-6.572083,-0.034640,0.023582,0.007061
6601,-3.153164,2.310405,-6.617573,-0.029178,0.019585,0.000933
6616,-3.088520,2.284068,-6.555324,-0.023315,0.017720,0.000266
6631,-3.141193,2.212242,-6.564901,-0.022116,0.017187,0.000133
6646,-3.263297,2.214637,-6.682217,-0.015855,0.023315,0.001865
6661,-3.371036,2.015918,-6.335058,-0.014655,0.018919,0.002265
6676,-2.992752,2.351106,-6.643909,-0.019452,-0.008926,0.001998
6691,-3.203442,2.142811,-6.677428,-0.029977,0.038371,0.001066
6706,-3.323152,2.075773,-6.646304,-0.033041,0.011991,0.008260
6721,-3.179500,2.178724,-6.579266,-0.042501,0.015855,0.009593
6736,-3.086126,2.281674,-6.586449,-0.043700,0.018919,0.010126
6751,-3.157952,2.274492,-6.521805,-0.034773,0.013190,0.005462
6766,-3.227384,2.123657,-6.631938,-0.035573,0.011858,0.002132
6781,-3.213019,2.099715,-6.591237,-0.041302,0.017453,0.005063
6796,-3.239355,2.226608,-6.579266,-0.037038,0.016920,0.005729
6811,-3.117250,2.272097,-6.545747,-0.038237,0.013190,0.007727
6826,-3.222595,2.255338,-6.624756,-0.028511,0.025314,0.003198
6841,-3.272874,2.255338,-6.643909,-0.032775,0.022916,-0.001998
6856,-3.126827,2.279280,-6.627150,-0.031043,0.016654,0.003198
6871,-3.078943,2.190695,-6.574478,-0.029977,0.021051,0.006662
6886,-3.244143,2.240973,-6.636727,-0.029577,0.014789,0.004130
6901,-3.289633,2.248155,-6.667851,-0.020917,0.019319,-0.000133
6916,-3.210624,2.224213,-6.557718,-0.015855,0.016654,-0.003064
6931,-3.095703,2.142811,-6.603208,-0.019452,0.013723,-0.002398
6946,-3.229778,2.090138,-6.588843,-0.032775,0.012524,0.001466
6961,-3.234566,2.090138,-6.615179,-0.041302,0.012257,0.003997
6976,-3.184288,2.219425,-6.567295,-0.044233,0.014256,0.001599
6991,-3.095703,2.291251,-6.519411,-0.035440,0.010658,0.006795
7006,-3.131616,2.281674,-6.624756,-0.025847,0.017054,0.002531
7021,-3.248932,2.308010,-6.591237,-0.016654,0.028245,-0.001199
7036,-3.157952,2.255338,-6.581660,-0.005862,0.016387,-0.000533
7051,-3.105279,2.195483,-6.619967,-0.006129,0.016654,-0.003198
7066,-3.150769,2.070984,-6.572083,-0.012391,0.021583,-0.001466
7081,-3.311181,2.032677,-6.631938,-0.030910,0.018652,-0.000933
7096,-3.198653,2.229002,-6.619967,-0.038237,0.014256,0.004530
7111,-3.069366,2.226608,-6.545747,-0.041835,0.017453,0.007994
7126,-3.210624,2.245761,-6.667851,-0.040103,0.019319,0.006795
7141,-3.299210,2.183512,-6.485892,-0.035440,0.014123,0.003064
7156,-3.239355,2.260126,-6.564901,-0.034374,0.013190,0.003997
7171,-3.107674,2.264915,-6.572083,-0.040502,0.015055,-0.001066
7186,-3.150769,2.197877,-6.526594,-0.038904,0.016121,0.000133
7201,-3.191471,2.207454,-6.569689,-0.029711,0.011325,-0.000666
7216,-3.308787,2.245761,-6.610391,-0.017054,0.012524,-0.003864
7231,-3.181894,2.288857,-6.550536,-0.008793,0.017320,-0.001332
7246,-3.191471,2.276886,-6.648698,-0.001332,0.018652,-0.002132
7261,-3.222595,2.130840,-6.493075,-0.004397,0.016654,-0.003331
7276,-3.294421,2.102109,-6.615179,-0.013057,0.018253,-0.001599
7291,-3.160346,2.130840,-6.576872,-0.035173,0.016387,0.001732
7306,-3.114856,2.183512,-6.615179,-0.041035,0.015322,0.002931
7321,-3.241749,2.157176,-6.579266,-0.041302,0.014256,0.004930
7336,-3.244143,2.200271,-6.622362,-0.039303,0.010925,0.006395
7351,-3.134010,2.293645,-6.531382,-0.035040,0.015721,0.003331
7366,-3.105279,2.202666,-6.605602,-0.037038,0.017453,0.006795
7381,-3.160346,2.190695,-6.536170,-0.041302,0.017054,0.007861
7396,-3.265691,2.221819,-6.615179,-0.039703,0.019851,0.002798
7411,-3.198653,2.226608,-6.588843,-0.031975,0.011325,0.000000
7426,-3.059790,2.264915,-6.617573,-0.024248,0.007461,-0.000533
7441,-3.150769,2.209848,-6.550536,-0.016787,0.003864,-0.003730
7456,-3.224990,2.135628,-6.552930,-0.007727,0.027712,-0.003464
7471,-3.256114,2.181118,-6.579266,-0.018519,0.017587,-0.001599
7486,-3.117250,2.147599,-6.615179,-0.018386,0.018652,-0.000533
7501,-3.131616,2.140416,-6.533776,-0.027845,0.015055,0.000933
7516,-3.246537,2.104503,-6.607996,-0.030643,0.017054,0.002665
7531,-3.246537,2.123657,-6.670246,-0.041568,0.014256,0.005596
7546,-3.076549,2.214637,-6.624756,-0.044100,0.013190,0.004263
7561,-3.100491,2.152387,-6.629544,-0.047830,0.017587,0.006395
7576,-3.232172,2.209848,-6.643909,-0.047430,0.011591,0.009992
7591,-3.251326,2.188300,-6.615179,-0.041568,0.016254,0.009459
7606,-3.114856,2.336741,-6.557718,-0.030377,0.017054,0.004930
7621,-3.126827,2.288857,-6.643909,-0.025314,0.015855,-0.000666
7636,-3.263297,2.209848,-6.603208,-0.021450,0.011858,-0.004530
7651,-3.268085,2.166753,-6.617573,-0.020384,0.011858,-0.002398
7666,-3.229778,2.171541,-6.605602,-0.014922,0.021583,-0.001466
7681,-3.179500,2.221819,-6.619967,-0.017587,0.016787,0.000799
7696,-3.153164,2.138022,-6.607996,-0.013856,0.019985,-0.007727
7711,-3.275268,2.128445,-6.588843,-0.020518,0.020917,-0.001466
7726,-3.193865,2.126051,-6.648698,-0.035573,0.017054,0.004796
7741,-3.145981,2.159570,-6.670246,-0.041701,0.018386,0.003997
7756,-3.179500,2.207454,-6.579266,-0.042234,0.014389,0.006928
7771,-3.280056,2.197877,-6.576872,-0.038904,0.015188,0.002531
7786,-3.234566,2.226608,-6.622362,-0.030910,0.014922,-0.003064
7801,-3.129222,2.097321,-6.612785,-0.032775,0.010259,0.004397
7816,-3.229778,2.135628,-6.619967,-0.038904,0.012124,0.005462
7831,-3.301604,2.140416,-6.627150,-0.042900,0.016787,0.008394
7846,-3.193865,2.257732,-6.600814,-0.041568,0.010126,0.003730
7861,-3.105279,2.315193,-6.636727,-0.028112,0.016387,0.001599
7876,-3.150769,2.324770,-6.619967,-0.014789,0.008527,-0.001066
7891,-3.318363,2.240973,-6.588843,-0.000133,0.013456,-0.008394
7906,-3.234566,2.171541,-6.641515,-0.001599,0.020651,-0.011058
7921,-3.134010,2.094926,-6.586449,-0.011858,0.018652,-0.004263
7936,-3.172317,2.020706,-6.663063,-0.034907,0.017187,0.004930
7951,-3.356671,2.008735,-6.581660,-0.057689,0.019985,0.016254
7966,-3.198653,2.212242,-6.493075,-0.065949,0.023049,0.016121
7981,-3.090914,2.353500,-6.660669,-0.054092,0.017320,0.010525
7996,-3.138798,2.274492,-6.615179,-0.034907,0.013190,0.003997
8011,-3.203442,2.238579,-6.560112,-0.029977,0.010525,-0.002531
8026,-3.236961,2.205060,-6.576872,-0.024914,0.012790,-0.002265
8041,-3.215413,2.205060,-6.629544,-0.024781,0.008793,-0.002531
8056,-3.117250,2.157176,-6.502652,-0.030910,0.011325,0.001199
8071,-3.296816,2.102109,-6.629544,-0.036772,0.013057,0.003331
8086,-3.208230,2.200271,-6.603208,-0.037838,0.012657,-0.001199
8101,-3.172317,2.308010,-6.617573,-0.028911,0.012257,-0.000400
8116,-3.112462,2.190695,-6.550536,-0.015721,0.023848,-0.003730
8131,-3.244143,2.212242,-6.605602,-0.014922,0.021717,-0.001066
8146,-3.234566,2.092532,-6.521805,-0.021317,0.019185,0.005596
8161,-3.169923,2.267309,-6.706159,-0.032642,0.025714,0.008127
8176,-3.119645,2.339135,-6.629544,-0.026513,0.021450,0.003864
8191,-3.232172,2.176329,-6.586449,-0.021051,0.015322,0.001066
8206,-3.215413,2.224213,-6.663063,-0.011191,0.018786,-0.002132
8221,-3.208230,2.183512,-6.634333,-0.007061,0.016121,-0.000533
8236,-3.138798,2.147599,-6.607996,-0.015188,0.017853,-0.000799
8251,-3.177106,2.092532,-6.576872,-0.022649,0.015322,0.001865
8266,-3.289633,2.066196,-6.768408,-0.030776,0.016387,0.000933
8281,-3.198653,2.214637,-6.629544,-0.031975,0.021583,0.002798
8296,-3.110068,2.245761,-6.548141,-0.034107,0.014123,0.003064
8311,-3.172317,2.233790,-6.557718,-0.021717,0.014522,-0.000266
8326,-3.284845,2.135628,-6.581660,-0.014922,0.017587,0.000799
8341,-3.246537,2.238579,-6.689399,-0.008127,0.021317,0.000000
8356,-3.148375,2.193089,-6.533776,-0.008260,0.020251,-0.001998
8371,-3.071761,2.147599,-6.593631,-0.017587,0.015988,-0.000933
8386,-3.299210,1.982399,-6.552930,-0.033441,0.019985,0.001466
8401,-3.268085,2.082955,-6.600814,-0.053026,0.013723,0.012257
8416,-3.131616,2.149993,-6.634333,-0.063018,0.016387,0.013856
8431,-3.112462,2.260126,-6.641515,-0.068348,0.017320,0.009060
8446,-3.275268,2.138022,-6.548141,-0.074210,0.019052,0.005862
8461,-3.258508,2.169147,-6.629544,-0.073810,0.013723,0.012124
8476,-3.126827,2.209848,-6.536170,-0.077807,0.019452,0.013590
8491,-3.064578,2.315193,-6.651092,-0.074210,0.018652,0.012657
8506,-3.220201,2.298434,-6.545747,-0.056757,0.015588,0.006662
8521,-3.248932,2.269703,-6.552930,-0.039303,0.011325,-0.000533
8536,-3.169923,2.284068,-6.552930,-0.033441,0.018786,-0.001998
8551,-3.081337,2.341529,-6.641515,-0.015721,0.026113,-0.003997
8566,-3.172317,2.229002,-6.576872,-0.003198,0.021051,-0.005729
8581,-3.162740,2.202666,-6.687005,0.005729,0.024914,-0.007594
8596,-3.256114,1.970428,-6.643909,-0.011991,0.013456,0.002798
8611,-3.145981,2.082955,-6.600814,-0.043833,0.017187,0.013057
8626,-3.208230,2.106897,-6.658275,-0.055824,0.021317,0.016254
8641,-3.244143,2.212242,-6.581660,-0.049962,0.017320,0.011458
8656,-3.184288,2.288857,-6.543353,-0.046897,0.011058,0.007594
8671,-3.081337,2.331952,-6.634333,-0.036639,0.016387,0.001599
8686,-3.155558,2.260126,-6.536170,-0.028778,0.015721,0.005063
8701,-3.263297,2.212242,-6.639121,-0.020518,0.014256,-0.003198
8716,-3.162740,2.291251,-6.593631,-0.013989,0.015721,-0.003064
8731,-3.122039,2.202666,-6.675034,-0.012257,0.011858,-0.003997
8746,-3.145981,2.142811,-6.660669,-0.013723,0.013989,-0.002931
8761,-3.330334,2.078167,-6.634333,-0.018652,0.012923,0.001332
8776,-3.236961,2.164358,-6.564901,-0.011991,0.027579,0.001066
8791,-3.141193,2.296039,-6.598420,-0.011325,0.023582,-0.001599
8806,-3.169923,2.193089,-6.540959,-0.015855,0.012257,0.000533
8821,-3.198653,2.097321,-6.651092,-0.027179,0.022783,0.002798
8836,-3.239355,2.161964,-6.603208,-0.037838,0.023049,0.006528
8851,-3.153164,2.173935,-6.543353,-0.043567,0.020251,0.008660
8866,-3.134010,2.140416,-6.560112,-0.045299,0.017986,0.005329
8881,-3.265691,2.181118,-6.569689,-0.049695,0.017587,0.005729
8896,-3.193865,2.169147,-6.610391,-0.043833,0.013190,0.005196
8911,-3.129222,2.159570,-6.610391,-0.046498,0.016387,0.005862
8926,-3.086126,2.248155,-6.598420,-0.039570,0.012923,0.002398
8941,-3.213019,2.221819,-6.588843,-0.035972,0.011858,-0.002398
8956,-3.246537,2.138022,-6.675034,-0.028378,0.008926,-0.003464
8971,-3.205836,2.260126,-6.610391,-0.027845,0.013590,-0.000799
8986,-3.179500,2.240973,-6.593631,-0.016387,0.019185,-0.000266
9001,-3.251326,2.205060,-6.593631,-0.015855,0.016787,0.002531
9016,-3.248932,2.145205,-6.548141,-0.021450,0.029711,0.001066
9031,-3.145981,2.159570,-6.651092,-0.030910,0.021317,0.003730
9046,-3.043030,2.169147,-6.619967,-0.041435,0.022383,0.008260
9061,-3.124433,2.233790,-6.576872,-0.041568,0.020784,0.009193
9076,-3.222595,2.190695,-6.586449,-0.034240,0.016521,0.002265
9091,-3.189077,2.190695,-6.651092,-0.026913,0.009726,0.000266
9106,-3.093308,2.157176,-6.617573,-0.028911,0.020118,0.002665
9121,-3.203442,2.102109,-6.596025,-0.037172,0.019052,0.006129
9136,-3.275268,2.181118,-6.533776,-0.041835,0.013856,0.007194
9151,-3.217807,2.185906,-6.641515,-0.039703,0.013856,0.004130
9166,-3.078943,2.269703,-6.560112,-0.032508,0.012923,-0.001066
9181,-3.217807,2.130840,-6.603208,-0.029311,0.011724,-0.002665
9196,-3.296816,2.133234,-6.572083,-0.021983,0.017720,-0.001732
9211,-3.263297,2.205060,-6.737284,-0.025047,0.021717,0.002798
9226,-3.153164,2.212242,-6.634333,-0.021184,0.022916,0.005196
9241,-3.110068,2.157176,-6.629544,-0.023449,0.023982,0.005995
9256,-3.215413,2.207454,-6.600814,-0.028511,0.023982,0.004663
9271,-3.205836,2.202666,-6.572083,-0.027312,0.018519,0.005329
9286,-3.093308,2.214637,-6.598420,-0.026380,0.017453,0.004530
9301,-3.081337,2.236184,-6.607996,-0.023315,0.012124,-0.000533
9316,-3.153164,2.173935,-6.526594,-0.030910,0.015322,0.004530
9331,-3.217807,2.161964,-6.607996,-0.034907,0.011591,0.004130
9346,-3.150769,2.195483,-6.651092,-0.045965,0.014522,0.002931
9361,-3.100491,2.157176,-6.607996,-0.057289,0.016654,0.004930
9376,-3.174711,2.267309,-6.689399,-0.050361,0.008660,0.003198
9391,-3.210624,2.176329,-6.598420,-0.041568,0.013323,0.003597
9406,-3.193865,2.185906,-6.687005,-0.041835,0.010792,0.009060
9421,-3.157952,2.351106,-6.531382,-0.028378,0.018786,0.005063
9436,-3.220201,2.296039,-6.622362,-0.027446,0.020118,0.000933
9451,-3.244143,2.171541,-6.639121,-0.017986,0.026513,-0.003331
9466,-3.177106,2.147599,-6.605602,-0.021983,0.017453,-0.000799
9481,-3.066972,2.092532,-6.607996,-0.039703,0.019185,0.009326
9496,-3.205836,2.195483,-6.744466,-0.046897,0.024781,0.009593
9511,-3.165135,2.310405,-6.560112,-0.044899,0.019185,0.013856
9526,-3.124433,2.296039,-6.636727,-0.035040,0.010392,0.005063
9541,-3.232172,2.171541,-6.593631,-0.032375,0.015588,0.001332
9556,-3.244143,2.133234,-6.596025,-0.038904,0.013323,0.005596
9571,-3.186682,2.190695,-6.634333,-0.039703,0.018919,0.010126
9586,-3.114856,2.257732,-6.610391,-0.038237,0.014922,0.006395
9601,-3.215413,2.264915,-6.607996,-0.031176,0.012657,0.002265
9616,-3.289633,2.209848,-6.600814,-0.022649,0.015588,-0.004930
9631,-3.232172,2.197877,-6.555324,-0.017587,0.014123,-0.000799
9646,-3.124433,2.188300,-6.615179,-0.023982,0.028112,0.001998
9661,-3.122039,2.217031,-6.607996,-0.022250,0.023715,0.003997
9676,-3.179500,2.240973,-6.660669,0.005329,0.065683,-0.016920
9691,-3.282450,2.023100,-6.720524,-0.027046,0.055424,-0.003997
9706,-3.148375,2.197877,-6.593631,-0.031176,-0.004663,0.008527
9721,-3.100491,2.102109,-6.612785,-0.047297,0.016521,0.010658
9736,-3.239355,2.164358,-6.619967,-0.052760,0.022383,0.009992
9751,-3.189077,2.224213,-6.562507,-0.048763,0.011458,0.010392
9766,-3.062184,2.300828,-6.550536,-0.047963,0.014522,0.006528
9781,-3.220201,2.303222,-6.617573,-0.033175,0.012257,0.001466
9796,-3.208230,2.319981,-6.581660,-0.021583,0.011724,-0.001199
9811,-3.184288,2.183512,-6.631938,-0.018253,0.012391,-0.004530
9826,-3.100491,2.171541,-6.629544,-0.024781,0.008394,-0.004530
9841,-3.129222,2.138022,-6.596025,-0.027845,0.010925,-0.003198
9856,-3.263297,2.183512,-6.631938,-0.027979,0.015588,-0.002398
9871,-3.256114,2.207454,-6.610391,-0.018386,0.026779,-0.002398
9886,-3.189077,2.291251,-6.576872,-0.014522,0.029711,-0.000933
9901,-3.100491,2.202666,-6.629544,-0.010259,0.017853,-0.004263
9916,-3.253720,2.054225,-6.677428,-0.022916,0.018519,0.004930
9931,-3.244143,2.047042,-6.653486,-0.044100,0.017587,0.010525
9946,-3.169923,2.106897,-6.670246,-0.051427,0.021983,0.015455
9961,-3.069366,2.252944,-6.488286,-0.056757,0.018119,0.017720
9976,-3.265691,2.291251,-6.607996,-0.048230,0.014655,0.009326
9991,-3.205836,2.284068,-6.447585,-0.047430,0.017986,0.008926
10006,-3.090914,2.322376,-6.655880,-0.035173,0.018119,0.000000
10021,-3.090914,2.291251,-6.517017,-0.026247,0.012391,0.000133
10036,-3.155558,2.140416,-6.639121,-0.026779,0.012790,-0.002531
10051,-3.203442,2.195483,-6.540959,-0.026913,0.011191,-0.002132
10066,-3.141193,2.169147,-6.581660,-0.025580,0.009726,0.000799
10081,-3.148375,2.231396,-6.584054,-0.022783,0.013856,-0.000266
10096,-3.198653,2.214637,-6.727706,-0.016254,0.023449,-0.003997
10111,-3.236961,2.219425,-6.636727,-0.016787,0.025580,-0.001865
10126,-3.210624,2.133234,-6.615179,-0.020651,0.019718,0.001732
10141,-3.110068,2.161964,-6.651092,-0.039436,0.023449,0.012790
10156,-3.119645,2.219425,-6.567295,-0.050628,0.022916,0.011991
10171,-3.224990,2.269703,-6.593631,-0.044499,0.019851,0.009060
10186,-3.165135,2.264915,-6.615179,-0.040502,0.014922,0.008793
10201,-3.138798,2.317587,-6.574478,-0.029178,0.016787,0.001466
10216,-3.143587,2.269703,-6.555324,-0.018386,0.011991,-0.005329
10231,-3.332729,2.205060,-6.545747,-0.017986,0.019319,-0.002798
10246,-3.205836,2.193089,-6.615179,-0.026380,0.009459,-0.002531
10261,-3.100491,2.243367,-6.610391,-0.028378,0.010126,-0.002398
10276,-3.174711,2.185906,-6.651092,-0.029711,0.012923,-0.003064
10291,-3.270479,2.193089,-6.607996,-0.027446,0.010658,0.001466
10306,-3.260903,2.248155,-6.531382,-0.024914,0.026247,0.002798
10321,-3.083732,2.243367,-6.555324,-0.022783,0.026113,0.006395
10336,-2.966416,2.281674,-6.603208,0.021850,-0.004130,-0.004930
10351,-3.153164,2.133234,-6.593631,-0.017320,0.070479,-0.004663
10366,-2.736573,1.898602,-6.936002,-0.012124,0.109516,0.030910
10381,-3.485958,1.879448,-6.617573,-0.040369,0.093528,-0.004263
10396,-3.193865,2.351106,-6.497863,-0.043433,-0.012923,0.014256
10411,-3.062184,2.205060,-6.682217,-0.065150,0.015055,0.018919
10426,-3.375824,2.200271,-6.660669,-0.051161,0.037305,0.009326
10441,-3.181894,2.238579,-6.531382,-0.042234,0.009593,0.004663
10456,-3.102885,2.224213,-6.550536,-0.038237,0.013057,0.005063
10471,-3.236961,2.272097,-6.591237,-0.040236,0.016920,0.003464
10486,-3.256114,2.276886,-6.555324,-0.040502,0.012524,0.000666
10501,-3.162740,2.245761,-6.629544,-0.036505,0.006795,0.000000
10516,-3.119645,2.195483,-6.675034,-0.034507,0.009859,0.001998
10531,-3.177106,2.229002,-6.627150,-0.027179,0.016787,0.004930
10546,-3.327940,2.159570,-6.584054,-0.020251,0.025980,-0.001332
10561,-3.215413,2.193089,-6.545747,-0.024781,0.018519,0.001865
10576,-3.107674,2.214637,-6.607996,-0.031176,0.013989,0.004530
10591,-3.148375,2.178724,-6.684611,-0.038237,0.018652,0.005063
10606,-3.241749,2.250550,-6.682217,-0.038770,0.016387,0.004663
10621,-3.165135,2.274492,-6.536170,-0.031576,0.015188,0.004130
10636,-3.138798,2.193089,-6.564901,-0.030110,0.013456,0.004796
10651,-3.215413,2.185906,-6.572083,-0.038770,0.018386,0.006528
10666,-3.287239,2.145205,-6.543353,-0.041835,0.018386,0.003730
10681,-3.248932,2.240973,-6.646304,-0.040369,0.013856,0.003331
10696,-3.093308,2.229002,-6.629544,-0.041435,0.012790,0.000133
10711,-3.112462,2.274492,-6.663063,-0.035706,0.013456,0.001599
10726,-3.224990,2.276886,-6.560112,-0.027446,0.009593,-0.003864
10741,-3.196259,2.255338,-6.536170,-0.022383,0.007861,-0.004930
10756,-3.165135,2.394202,-6.646304,-0.007861,0.019052,-0.007994
10771,-3.112462,2.193089,-6.538565,0.003331,0.018519,-0.006795
10786,-3.232172,2.145205,-6.672640,0.004663,0.023848,-0.005995
10801,-3.282450,2.138022,-6.706159,0.000933,0.012124,-0.003464
10816,-3.184288,2.035071,-6.531382,-0.022383,0.008793,0.003864
10831,-3.038242,2.166753,-6.646304,-0.051960,0.003331,0.012391
10846,-3.251326,2.147599,-6.754043,-0.058355,0.027446,0.013856
10861,-3.315969,2.248155,-6.655880,-0.060620,0.018253,0.008660
10876,-3.081337,2.291251,-6.586449,-0.051694,0.016254,0.011458
10891,-3.052607,2.339135,-6.509834,-0.044233,0.018652,0.000133
10906,-3.177106,2.255338,-6.519411,-0.036639,0.022116,-0.002665
10921,-3.191471,2.267309,-6.557718,-0.033175,0.007861,0.001732
10936,-3.150769,2.298434,-6.646304,-0.024381,0.012657,-0.003997
10951,-3.141193,2.257732,-6.591237,-0.018519,0.011191,-0.004397
10966,-3.186682,2.252944,-6.593631,-0.009992,0.010392,-0.001998
10981,-3.292027,2.190695,-6.596025,0.001732,0.028911,-0.005329
10996,-3.184288,2.173935,-6.617573,-0.002132,0.016387,-0.005063
11011,-3.045424,2.023100,-6.617573,-0.010925,0.022516,-0.000133
11026,-3.203442,2.094926,-6.569689,-0.032642,0.022250,0.010792
11041,-3.222595,2.092532,-6.660669,-0.049029,0.018519,0.012923
11056,-3.177106,2.164358,-6.588843,-0.044366,0.017054,0.015322
11071,-3.052607,2.236184,-6.572083,-0.047164,0.010392,0.006795
11086,-3.093308,2.238579,-6.624756,-0.048896,0.019585,0.008793
11101,-3.234566,2.281674,-6.675034,-0.045565,0.021983,0.004796
11116,-3.138798,2.243367,-6.746861,-0.034240,0.011858,0.005063
11131,-3.124433,2.233790,-6.540959,-0.029311,0.024248,-0.001332
11146,-3.162740,2.169147,-6.615179,-0.033574,0.011724,0.000400
11161,-3.260903,2.171541,-6.593631,-0.031576,0.012790,0.003597
11176,-3.241749,2.188300,-6.505046,-0.034240,0.013456,-0.000133
11191,-3.148375,2.255338,-6.593631,-0.026779,0.018652,-0.001998
11206,-3.114856,2.389413,-6.593631,-0.020251,0.014389,0.001865
11221,-3.193865,2.202666,-6.562507,-0.010792,0.020917,-0.002531
11236,-3.213019,2.173935,-6.658275,-0.010259,0.025847,-0.003464
11251,-3.148375,2.142811,-6.562507,-0.024381,0.020518,0.003198
11266,-3.071761,2.097321,-6.560112,-0.039836,0.023182,0.010925
11281,-3.213019,2.161964,-6.579266,-0.046098,0.020784,0.013723
11296,-3.229778,2.169147,-6.636727,-0.049828,0.011858,0.011591
11311,-3.155558,2.233790,-6.607996,-0.043300,0.021983,0.003730
11326,-3.110068,2.231396,-6.639121,-0.040502,0.015322,0.007727
11341,-3.224990,2.262521,-6.531382,-0.030110,0.009992,0.005063
11356,-3.244143,2.169147,-6.598420,-0.028245,0.008527,-0.003198
11371,-3.191471,2.188300,-6.641515,-0.033841,0.010525,0.001332
11386,-3.114856,2.238579,-6.528988,-0.040103,0.007594,0.003997
11401,-3.191471,2.214637,-6.696582,-0.034640,0.009992,0.000933
11416,-3.311181,2.312799,-6.605602,-0.017320,0.025047,-0.007194
11431,-3.162740,2.257732,-6.574478,-0.010792,0.018919,-0.005862
11446,-3.076549,2.109292,-6.598420,-0.006262,0.015588,-0.007061
11461,-3.157952,1.987187,-6.696582,-0.033175,0.024115,0.005063
11476,-3.299210,1.999158,-6.636727,-0.051560,0.025847,0.015055
11491,-3.162740,2.274492,-6.722918,-0.059554,0.023449,0.020118
11506,-3.057395,2.348712,-6.519411,-0.041435,0.021317,0.007461
11521,-3.153164,2.312799,-6.679822,-0.024248,0.006528,0.002931
11536,-3.256114,2.185906,-6.622362,-0.018119,0.009326,-0.001466
11551,-3.287239,2.147599,-6.574478,-0.026380,0.016121,-0.001998
11566,-3.169923,2.171541,-6.643909,-0.038104,0.008926,0.004796
11581,-3.143587,2.135628,-6.624756,-0.049562,0.013456,0.006795
11596,-3.203442,2.221819,-6.651092,-0.053159,0.016521,0.010259
11611,-3.215413,2.310405,-6.619967,-0.040636,0.012524,0.002531
11626,-3.181894,2.363077,-6.548141,-0.023315,0.006795,-0.003597
11641,-3.160346,2.284068,-6.619967,-0.005462,0.018119,-0.007861
11656,-3.239355,2.068590,-6.600814,-0.009326,0.025181,-0.001332
11671,-3.160346,2.147599,-6.636727,-0.019052,0.027579,0.006928
11686,-3.117250,2.214637,-6.603208,-0.031309,0.028245,0.009593
11701,-3.069366,2.195483,-6.691793,-0.037438,0.021051,0.005995
11716,-3.179500,2.171541,-6.588843,-0.043167,0.019851,0.010525
11731,-3.241749,2.272097,-6.631938,-0.035972,0.021184,0.006395
11746,-3.145981,2.375048,-6.665457,-0.013190,0.014922,-0.003198
11761,-3.110068,2.260126,-6.617573,-0.017720,0.008527,-0.008527
11776,-3.193865,2.085350,-6.579266,-0.024381,0.009859,-0.009459
11791,-3.270479,2.078167,-6.560112,-0.039170,0.012790,-0.000133
11806,-3.165135,2.157176,-6.607996,-0.047564,0.011058,0.006528
11821,-3.093308,2.264915,-6.691793,-0.048096,0.006662,0.002531
11836,-3.193865,2.209848,-6.639121,-0.035839,0.007861,-0.003597
11851,-3.282450,2.157176,-6.615179,-0.033441,0.012657,-0.001332
11866,-3.196259,2.164358,-6.660669,-0.040769,0.016254,0.013057
11881,-3.047819,2.303222,-6.576872,-0.039836,0.028511,0.005729
11896,-3.186682,2.324770,-6.603208,-0.020251,0.027579,0.002931
11911,-3.189077,2.276886,-6.593631,-0.012923,0.016654,-0.002265
11926,-3.189077,2.212242,-6.646304,-0.011458,0.020784,0.000666
11941,-3.114856,2.209848,-6.658275,-0.002931,0.020118,-0.001199
11956,-3.327940,2.030283,-6.464345,-0.007194,-0.003597,0.002665
11971,-3.153164,2.142811,-6.761226,-0.046498,-0.003331,0.006262
11986,-3.284845,2.236184,-6.507440,-0.052360,0.040636,0.005729
12001,-3.114856,2.319981,-6.478710,-0.033574,0.004397,0.002265
12016,-3.045424,2.169147,-6.617573,-0.029977,0.003997,-0.003730
12031,-3.177106,2.157176,-6.569689,-0.029311,0.007328,-0.007461
12046,-3.236961,2.082955,-6.718130,-0.036106,0.005462,0.001066
12061,-3.122039,2.154782,-6.701370,-0.045698,0.012657,0.007061
12076,-3.189077,2.200271,-6.584054,-0.047830,0.026646,0.008527
12091,-3.148375,2.272097,-6.600814,-0.036106,0.024648,0.004263
12106,-3.289633,2.274492,-6.624756,-0.016654,0.025447,-0.005063
12121,-3.186682,2.142811,-6.598420,-0.020784,0.016920,-0.002398
12136,-3.069366,2.154782,-6.679822,-0.042234,0.009326,0.006928
12151,-3.205836,2.181118,-6.617573,-0.053159,0.026513,0.013323
12166,-3.224990,2.252944,-6.610391,-0.051161,0.021051,0.016787
12181,-3.131616,2.410961,-6.651092,-0.041035,0.015988,0.008527
12196,-3.055001,2.387019,-6.584054,-0.029044,0.018786,-0.001466
12211,-3.105279,2.315193,-6.533776,-0.008260,0.011325,-0.008394
12226,-3.203442,2.214637,-6.562507,0.002531,0.013590,-0.012657
12241,-3.141193,2.200271,-6.619967,-0.002665,0.006262,-0.012124
12256,-3.107674,2.102109,-6.538565,-0.010525,0.010392,-0.007461
12271,-3.153164,2.181118,-6.593631,-0.017453,0.010792,-0.001998
12286,-3.160346,2.181118,-6.835446,0.017587,-0.007061,0.000666
12301,-3.205836,2.099715,-6.639121,-0.008527,0.027046,-0.006928
12316,-3.246537,2.169147,-6.469133,0.007194,-0.021317,0.002398
12331,-2.913743,2.082955,-6.612785,-0.038104,0.018386,0.012124
12346,-3.763685,2.190695,-6.478710,-0.021850,-0.015588,0.009193
12361,-2.837129,2.082955,-6.593631,-0.084469,-0.011724,0.028378
12376,-3.213019,2.221819,-6.579266,-0.079672,0.064884,0.022649
12391,-3.126827,2.377442,-6.629544,-0.065816,0.006129,0.021450
12406,-3.191471,2.425326,-6.574478,-0.051827,0.008260,0.007594
12421,-3.210624,2.291251,-6.574478,-0.033308,0.016254,-0.001066
12436,-3.119645,2.245761,-6.612785,-0.018519,0.008926,-0.004397
12451,-3.078943,2.197877,-6.581660,-0.021317,0.008260,-0.003464
12466,-3.198653,2.157176,-6.651092,-0.025047,0.011991,-0.003997
12481,-3.260903,2.176329,-6.600814,-0.029577,0.011858,-0.000400
12496,-3.131616,2.221819,-6.507440,-0.026913,0.002132,-0.001732
12511,-3.155558,2.171541,-6.631938,-0.022783,0.010925,-0.002665
12526,-3.306392,2.154782,-6.684611,-0.021983,0.024115,0.001599
12541,-3.177106,2.202666,-6.612785,-0.036505,0.020251,0.005729
12556,-3.107674,2.288857,-6.586449,-0.041168,0.020917,0.005063
12571,-3.071761,2.219425,-6.538565,-0.039436,0.025047,0.002798
12586,-3.191471,2.319981,-6.639121,-0.039037,0.045432,-0.001599
12601,-3.445256,2.291251,-6.435614,-0.029711,0.057156,-0.003864
12616,-3.066972,2.363077,-6.641515,-0.018652,-0.018519,0.003064
12631,-3.074155,2.296039,-6.636727,-0.018386,0.014389,-0.004130
12646,-3.234566,2.128445,-6.540959,-0.012391,0.017720,-0.003997
12661,-3.258508,2.051831,-6.624756,-0.024381,0.008260,0.000533
12676,-3.208230,2.109292,-6.593631,-0.043300,0.013856,0.006928
12691,-3.033453,2.229002,-6.584054,-0.051427,0.019851,0.007861
12706,-3.198653,2.293645,-6.718130,-0.048763,0.012657,0.006662
12721,-3.234566,2.339135,-6.586449,-0.032375,0.015988,0.000933
12736,-3.177106,2.343923,-6.619967,-0.009193,0.017054,-0.004263
12751,-3.114856,2.188300,-6.550536,-0.003064,0.024648,-0.005862
12766,-3.148375,2.123657,-6.598420,-0.013057,0.023182,-0.004130
12781,-3.236961,2.092532,-6.624756,-0.035706,0.021051,0.006928
12796,-3.198653,2.176329,-6.617573,-0.054492,0.022383,0.013057
12811,-3.112462,2.243367,-6.607996,-0.055158,0.019585,0.011858
12826,-3.059790,2.269703,-6.720524,-0.034507,0.030643,-0.008127
12841,-3.189077,2.217031,-6.679822,-0.041035,0.032375,0.004130
12856,-3.313575,2.161964,-6.607996,-0.040502,0.003597,0.005329
12871,-3.093308,2.236184,-6.639121,-0.047164,0.005063,0.005995
12886,-3.071761,2.262521,-6.543353,-0.040236,0.021051,0.003730
12901,-3.275268,2.281674,-6.607996,-0.037305,0.012923,0.000266
12916,-3.205836,2.334347,-6.519411,-0.024515,0.009326,-0.005063
12931,-3.100491,2.279280,-6.552930,-0.012257,0.021184,-0.009992
12946,-3.284845,2.252944,-6.655880,0.003331,0.016254,-0.014655
12961,-3.193865,2.154782,-6.564901,0.010525,0.012790,-0.013057
12976,-3.205836,1.963245,-6.562507,-0.009593,0.026380,0.002931
12991,-3.189077,2.020706,-6.596025,-0.047963,0.029044,0.009859
13006,-3.287239,2.229002,-6.603208,-0.055291,0.028645,0.015055
13021,-3.174711,2.279280,-6.505046,-0.048763,0.017986,0.010259
13036,-3.136404,2.346318,-6.526594,-0.038104,0.022116,0.007727
13051,-3.134010,2.363077,-6.634333,-0.028245,0.017587,0.000533
13066,-3.224990,2.233790,-6.677428,-0.024515,0.014123,-0.003597
13081,-3.167529,2.171541,-6.555324,-0.028911,0.011325,-0.002398
13096,-3.090914,2.252944,-6.612785,-0.031443,0.010658,0.002665
13111,-3.110068,2.224213,-6.655880,-0.025047,0.010392,-0.001199
13126,-3.253720,2.245761,-6.634333,-0.020251,0.011058,-0.004796
13141,-3.256114,2.190695,-6.567295,-0.018253,0.008127,-0.007861
13156,-3.189077,2.236184,-6.543353,-0.019452,0.017187,-0.003064
13171,-3.110068,2.205060,-6.543353,-0.014922,0.019319,0.004530
13186,-3.246537,2.269703,-6.581660,-0.016787,0.033175,0.000400
13201,-3.201048,2.217031,-6.605602,-0.006129,0.029178,-0.001466
13216,-3.100491,2.164358,-6.584054,-0.007861,0.029178,-0.003331
13231,-3.100491,2.066196,-6.593631,-0.015322,0.023982,0.001066
13246,-3.193865,2.008735,-6.500257,-0.031842,0.021317,0.006928
13261,-3.210624,2.133234,-6.682217,-0.046498,0.021850,0.010392
13276,-3.201048,2.264915,-6.622362,-0.048629,0.023049,0.010259
13291,-3.126827,2.279280,-6.691793,-0.052093,0.027845,0.009593
13306,-3.102885,2.334347,-6.672640,-0.042501,0.011191,0.007994
13321,-3.203442,2.327164,-6.593631,-0.010126,0.017720,0.000000
13336,-3.124433,2.367865,-6.622362,-0.008793,0.027845,0.001732
13351,-3.150769,2.056619,-6.660669,0.002132,0.040236,0.005329
13366,-3.227384,2.281674,-6.742072,-0.011858,0.001066,-0.000933
13381,-3.184288,2.183512,-6.610391,0.029178,-0.000133,-0.012524
13396,-3.277662,2.094926,-6.734890,0.019585,0.021583,-0.015455
13411,-3.145981,1.946486,-6.581660,0.003064,0.033175,-0.008260
13426,-3.150769,1.886631,-6.641515,-0.031975,0.032642,0.014256
13441,-3.234566,2.001553,-6.698976,-0.068081,0.040103,0.016787
13456,-3.181894,2.209848,-6.567295,-0.085934,0.029977,0.025847
13471,-2.985569,2.243367,-6.619967,-0.085002,0.028245,0.026513
13486,-3.078943,2.389413,-6.584054,-0.073144,0.028378,0.019718
13501,-3.095703,2.413355,-6.538565,-0.052893,0.011591,0.008260
13516,-3.107674,2.375048,-6.675034,-0.032109,0.009459,-0.006928
13531,-3.129222,2.229002,-6.665457,-0.021983,0.003864,-0.008793
13546,-3.100491,2.224213,-6.634333,-0.028911,0.000533,-0.003198
13561,-3.196259,2.217031,-6.593631,-0.024781,0.008127,-0.003864
13576,-3.169923,2.209848,-6.591237,-0.019585,0.010925,-0.003331
13591,-3.181894,2.214637,-6.634333,-0.015988,0.007727,-0.007994
13606,-3.122039,2.138022,-6.687005,-0.018919,0.015855,-0.004530
13621,-3.210624,2.020706,-6.576872,-0.029711,0.022916,0.007861
13636,-3.208230,2.147599,-6.579266,-0.043833,0.023315,0.011591
13651,-3.160346,2.240973,-6.619967,-0.057689,0.022916,0.014389
13666,-3.069366,2.217031,-6.651092,-0.052493,0.017587,0.011991
13681,-3.150769,2.224213,-6.627150,-0.051960,0.018519,0.011325
13696,-3.229778,2.322376,-6.718130,-0.050095,0.022783,0.012124
13711,-3.110068,2.358289,-6.622362,-0.035972,0.019052,0.004530
13726,-3.057395,2.291251,-6.560112,-0.031309,0.014256,-0.002665
13741,-3.155558,2.147599,-6.605602,-0.033708,0.012391,-0.003464
13756,-3.277662,2.169147,-6.569689,-0.037571,0.012790,0.001066
13771,-3.155558,2.209848,-6.607996,-0.036239,0.008793,0.001199
13786,-3.124433,2.260126,-6.588843,-0.024781,0.007194,-0.008926
13801,-3.155558,2.207454,-6.564901,-0.021184,0.013323,-0.006528
13816,-3.263297,2.161964,-6.643909,-0.029577,0.010925,0.001998
13831,-3.196259,2.315193,-6.612785,-0.017320,0.021583,0.004263
13846,-3.040636,2.375048,-6.560112,-0.014655,0.025980,-0.000799
13861,-3.102885,2.197877,-6.612785,-0.015455,0.026913,0.003331
13876,-3.208230,2.193089,-6.646304,-0.023182,0.025714,0.005862
13891,-3.222595,2.202666,-6.497863,-0.032775,0.026779,0.009193
13906,-3.021482,2.339135,-6.634333,-0.026513,0.018786,0.007461
13921,-3.078943,2.331952,-6.593631,-0.016654,0.015988,-0.003597
13936,-3.311181,2.130840,-6.737284,-0.019985,0.006928,-0.002531
13951,-3.234566,2.118868,-6.586449,-0.032908,0.009060,0.001732
13966,-3.153164,2.176329,-6.701370,-0.049828,0.014123,0.003198
13981,-3.081337,2.255338,-6.540959,-0.047297,0.008926,0.006395
13996,-3.177106,2.334347,-6.619967,-0.039303,0.008660,0.000000
14011,-3.253720,2.212242,-6.691793,-0.029844,0.006262,-0.002931
14026,-3.172317,2.173935,-6.675034,-0.032375,0.017187,0.002931
14041,-3.122039,2.161964,-6.574478,-0.028911,0.025181,0.005862
14056,-3.179500,2.190695,-6.629544,-0.041302,0.025580,0.010925
14071,-3.241749,2.205060,-6.622362,-0.038770,0.032642,0.009326
14086,-3.076549,2.248155,-6.572083,-0.034374,0.027712,0.005196
14101,-3.134010,2.353500,-6.679822,-0.000666,-0.014922,0.003730
14116,-3.052607,2.250550,-6.624756,-0.043966,0.021051,0.011325
14131,-3.265691,2.214637,-6.682217,-0.037971,0.032908,0.003597
14146,-3.186682,2.293645,-6.586449,-0.037172,0.001332,0.007727
14161,-3.081337,2.229002,-6.677428,-0.031975,0.015322,0.000000
14176,-3.165135,2.202666,-6.612785,-0.036106,0.006395,0.000133
14191,-3.248932,2.185906,-6.619967,-0.033041,0.013190,-0.002132
14206,-3.167529,2.231396,-6.605602,-0.035573,0.009859,-0.001732
14221,-3.057395,2.205060,-6.646304,-0.038237,0.002265,0.000933
14236,-3.095703,2.116474,-6.509834,-0.037838,0.006395,0.003331
14251,-3.244143,2.161964,-6.660669,-0.040369,0.011858,0.004663
14266,-3.277662,2.243367,-6.581660,-0.041568,0.020384,0.003997
14281,-3.162740,2.214637,-6.631938,-0.038904,0.030243,0.010925
14296,-3.134010,2.293645,-6.588843,-0.045165,0.035972,0.009992
14311,-3.181894,2.305616,-6.622362,-0.035040,0.027312,0.005862
14326,-3.138798,2.279280,-6.500257,-0.027845,0.017187,0.005329
14341,-3.038242,2.260126,-6.531382,-0.024781,0.016121,0.005329
14356,-3.064578,2.324770,-6.598420,-0.018786,0.013856,0.001066
14371,-3.165135,2.303222,-6.691793,-0.007861,0.014789,-0.005196
14386,-3.248932,2.243367,-6.631938,-0.002931,0.009193,-0.008394
14401,-3.157952,2.133234,-6.552930,-0.012391,0.011591,-0.003864
14416,-3.074155,2.152387,-6.569689,-0.025580,0.020651,0.003064
14431,-3.167529,2.269703,-6.591237,-0.022250,0.018652,-0.001466
14446,-3.215413,2.276886,-6.528988,-0.005462,0.008260,-0.000266
14461,-3.088520,2.214637,-6.524199,0.015455,0.005329,-0.017187
14476,-3.155558,2.001553,-6.607996,-0.003331,0.010792,-0.004796
14491,-3.299210,2.051831,-6.651092,-0.001998,0.027979,-0.004130
14506,-3.315969,1.939303,-6.684611,-0.045698,0.028911,0.009992
14521,-3.134010,1.963245,-6.643909,-0.077407,0.023982,0.017054
14536,-3.090914,2.102109,-6.648698,-0.094861,0.027979,0.026646
14551,-3.129222,2.324770,-6.679822,-0.100323,0.026779,0.022916
14566,-3.234566,2.348712,-6.646304,-0.089531,0.036239,0.017853
14581,-3.098097,2.461239,-6.540959,-0.059554,0.000933,0.006129
14596,-3.002329,2.408567,-6.514623,-0.039303,0.011724,0.001332
14611,-3.205836,2.231396,-6.634333,-0.021450,0.008926,-0.004530
14626,-3.181894,2.161964,-6.639121,-0.028645,0.001732,0.000133
14641,-3.198653,2.243367,-6.643909,-0.030377,0.016387,0.001199
14656,-3.062184,2.343923,-6.569689,-0.025447,0.013456,0.000400
14671,-3.141193,2.351106,-6.610391,-0.007194,0.006129,-0.009459
14686,-3.251326,2.217031,-6.641515,0.014789,0.020917,-0.018386
14701,-3.124433,2.262521,-6.715735,0.051427,-0.010392,-0.024515
14716,-2.923320,2.415750,-6.385336,0.013190,-0.013723,-0.003597
14731,-3.143587,1.939303,-6.720524,-0.031043,0.082204,0.001865
14746,-3.359065,2.044648,-6.687005,-0.047031,0.019718,0.018119
14761,-3.040636,2.159570,-6.643909,-0.073144,0.018519,0.028245
14776,-3.078943,2.245761,-6.581660,-0.069413,0.043966,0.024381
14791,-3.131616,2.434903,-6.643909,-0.049828,0.017054,0.019851
14806,-3.186682,2.358289,-6.634333,-0.036372,0.015721,0.008394
14821,-3.227384,2.312799,-6.629544,-0.004663,0.007328,-0.004397
14836,-3.076549,2.324770,-6.619967,0.005063,-0.004663,-0.012790
14851,-3.071761,2.099715,-6.598420,-0.004130,0.010792,-0.016521
14866,-3.229778,1.946486,-6.540959,-0.022116,-0.010259,-0.005995
14881,-3.136404,2.085350,-6.687005,-0.039969,-0.007594,0.009326
14896,-3.148375,2.250550,-6.797139,-0.089531,0.039037,0.005862
14911,-3.301604,2.188300,-6.715735,-0.077807,0.034240,0.004397
14926,-3.186682,2.181118,-6.619967,-0.065816,0.011991,0.011325
14941,-3.287239,2.164358,-6.612785,-0.072877,0.041302,0.016920
14956,-3.167529,2.212242,-6.619967,-0.081937,0.034640,0.020784
14971,-2.971204,2.353500,-6.646304,-0.082070,0.025314,0.018652
14986,-3.076549,2.394202,-6.562507,-0.065816,0.037704,0.010925
15001,-3.435679,2.343923,-6.344635,-0.045165,0.029977,0.005729
15016,-3.112462,2.264915,-6.643909,-0.051161,-0.019585,0.008260
15031,-3.019088,2.363077,-6.627150,-0.051827,0.015322,0.006262
15046,-3.169923,2.327164,-6.607996,-0.052227,0.017587,0.003864
15061,-3.232172,2.341529,-6.596025,-0.044899,0.008260,0.002931
15076,-3.193865,2.442086,-6.574478,-0.024781,0.015855,-0.003198
15091,-3.126827,2.454057,-6.528988,-0.001466,0.007328,-0.007328
15106,-3.138798,2.343923,-6.526594,0.018253,0.009326,-0.018786
15121,-3.189077,2.097321,-6.670246,0.023049,0.019319,-0.018519
15136,-3.258508,2.011129,-6.682217,0.012657,0.021850,-0.001998
15151,-3.126827,2.011129,-6.593631,-0.029844,0.040103,0.007061
15166,-3.112462,2.164358,-6.746861,-0.053426,0.031443,0.019452
15181,-3.122039,2.317587,-6.615179,-0.059954,0.030510,0.018919
15196,-3.177106,2.387019,-6.548141,-0.036505,0.027845,0.008793
15211,-3.102885,2.360683,-6.555324,-0.006129,0.013190,-0.002132
15226,-2.995146,2.257732,-6.634333,0.002132,0.006528,-0.008660
15241,-3.196259,2.070984,-6.658275,-0.004930,0.006262,-0.005063
15256,-3.205836,2.078167,-6.591237,-0.018786,0.006129,-0.001865
15271,-3.131616,2.149993,-6.648698,-0.037838,0.011058,0.004663
15286,-3.162740,2.233790,-6.540959,-0.041302,0.015588,0.002931
15301,-3.124433,2.336741,-6.519411,-0.029044,0.004530,-0.001998
15316,-3.253720,2.193089,-6.596025,-0.013456,0.007861,-0.010658
15331,-3.129222,2.262521,-6.615179,-0.014522,0.014522,-0.009593
15346,-3.141193,2.245761,-6.528988,-0.013057,0.021983,-0.000266
15361,-3.184288,2.092532,-6.677428,-0.025314,0.025714,0.000933
15376,-3.256114,2.130840,-6.636727,-0.040502,0.018386,0.004263
15391,-3.186682,2.126051,-6.708553,-0.056357,0.020251,0.014256
15406,-3.023877,2.317587,-6.560112,-0.067948,0.023848,0.017853
15421,-3.100491,2.363077,-6.540959,-0.057423,0.015988,0.013989
15436,-3.184288,2.312799,-6.591237,-0.045032,0.009326,0.007194
15451,-3.078943,2.293645,-6.567295,-0.039836,0.006528,0.001732
15466,-3.066972,2.274492,-6.524199,-0.032375,0.012391,-0.003331
15481,-3.145981,2.252944,-6.617573,-0.037838,0.001599,0.000266
15496,-3.172317,2.243367,-6.490681,-0.038904,0.008394,-0.002531
15511,-3.193865,2.252944,-6.639121,-0.025847,0.008394,-0.003864
15526,-3.136404,2.224213,-6.581660,-0.026646,0.009992,-0.001199
15541,-3.150769,2.219425,-6.607996,-0.028245,0.024381,-0.001199
15556,-3.248932,2.252944,-6.665457,-0.018253,0.023848,0.000666
15571,-3.253720,2.310405,-6.562507,-0.012923,0.030110,-0.000933
15586,-3.086126,2.212242,-6.603208,-0.017054,0.026380,0.000133
15601,-3.107674,2.214637,-6.545747,-0.023582,0.023715,0.002398
15616,-3.246537,2.224213,-6.665457,-0.030643,0.024248,0.006795
15631,-3.150769,2.238579,-6.540959,-0.038504,0.017720,0.010658
15646,-3.064578,2.363077,-6.670246,-0.029577,0.014655,0.003997
15661,-3.134010,2.231396,-6.600814,-0.030643,0.007328,-0.000400
15676,-3.155558,2.188300,-6.631938,-0.029577,0.009193,0.001865
15691,-3.181894,2.159570,-6.581660,-0.037571,0.013190,0.004130
15706,-3.129222,2.315193,-6.521805,-0.042767,0.007328,0.006528
15721,-3.081337,2.403779,-6.497863,-0.026513,0.012391,0.003997
15736,-3.157952,2.334347,-6.588843,-0.005329,0.011058,-0.009459
15751,-3.215413,2.193089,-6.720524,0.007461,0.012657,-0.012524
15766,-3.169923,2.243367,-6.667851,0.012657,0.022649,-0.014522
15781,-3.098097,2.078167,-6.660669,0.008793,0.020651,-0.008127
15796,-3.179500,2.070984,-6.684611,-0.022649,0.023982,0.000000
15811,-3.220201,2.047042,-6.670246,-0.045832,0.030110,0.010259
15826,-3.145981,2.130840,-6.677428,-0.069413,0.025314,0.022783
15841,-3.055001,2.403779,-6.615179,-0.064484,0.025447,0.015455
15856,-3.081337,2.437297,-6.591237,-0.044499,0.024381,0.007861
15871,-3.282450,2.336741,-6.586449,-0.023982,0.007994,-0.001332
15886,-3.124433,2.334347,-6.517017,-0.001066,0.003997,-0.011458
15901,-3.059790,2.202666,-6.593631,-0.006528,0.006262,-0.008394
15916,-3.157952,2.035071,-6.627150,-0.025181,0.006528,-0.002798
15931,-3.256114,1.982399,-6.567295,-0.048496,0.001865,0.004930
15946,-3.191471,2.109292,-6.624756,-0.060221,0.001199,0.004930
15961,-3.174711,2.257732,-6.564901,-0.059688,0.013057,0.004796
15976,-3.160346,2.331952,-6.660669,-0.056757,0.015721,0.005462
15991,-3.215413,2.379837,-6.593631,-0.027712,0.028378,0.002398
16006,-3.260903,2.363077,-6.560112,-0.021051,0.030110,0.000266
16021,-3.165135,2.262521,-6.655880,-0.009726,0.031443,-0.000266
16036,-3.071761,2.276886,-6.631938,-0.018253,0.019985,0.009326
16051,-3.134010,2.214637,-6.675034,-0.029178,0.034907,0.006928
16066,-3.141193,2.233790,-6.540959,-0.018119,0.015721,0.003597
16081,-3.093308,2.343923,-6.507440,-0.013590,0.013190,0.000000
16096,-3.064578,2.260126,-6.677428,-0.006928,0.015455,-0.004397
16111,-3.160346,2.087744,-6.540959,-0.000400,0.017453,-0.008793
16126,-3.268085,2.171541,-6.677428,-0.020651,0.014522,-0.000666
16141,-3.189077,2.202666,-6.677428,-0.037704,0.005995,-0.001865
16156,-3.078943,2.226608,-6.545747,-0.040236,0.009726,0.002265
16171,-3.210624,2.209848,-6.617573,-0.038770,0.006795,-0.001998
16186,-3.232172,2.272097,-6.629544,-0.026646,0.011724,-0.006395
16201,-3.193865,2.245761,-6.675034,-0.012391,0.033308,-0.007328
16216,-3.136404,2.209848,-6.667851,-0.011591,0.018919,-0.008394
16231,-2.889802,2.207454,-6.849811,-0.002798,0.084069,-0.007061
16246,-3.347094,1.989582,-6.505046,-0.044366,0.074210,0.008127
16261,-3.217807,2.274492,-6.540959,-0.042900,0.003997,0.011591
16276,-2.930503,2.365471,-6.607996,-0.036239,0.019319,0.008394
16291,-2.966416,2.597709,-6.454768,-0.010658,-0.034240,0.003730
16306,-3.174711,2.161964,-6.641515,-0.033708,0.045165,-0.002931
16321,-3.426103,2.229002,-6.744466,-0.027179,0.017453,0.002931
16336,-2.973598,2.293645,-6.591237,-0.033175,-0.014655,-0.001466
16351,-3.064578,2.212242,-6.701370,-0.028911,0.013856,-0.009459
16366,-3.150769,2.243367,-6.596025,-0.035573,0.009992,-0.004263
16381,-3.107674,2.327164,-6.545747,-0.033974,0.001466,-0.003464
16396,-3.157952,2.188300,-6.586449,-0.023715,0.013323,-0.006928
16411,-3.363853,2.157176,-6.567295,-0.009326,0.027845,-0.011591
16426,-3.169923,2.145205,-6.576872,-0.023848,0.023715,-0.000133
16441,-3.136404,2.116474,-6.517017,-0.042368,0.042767,0.014655
16456,-3.122039,2.185906,-6.639121,-0.057556,0.032908,0.020917
16471,-3.229778,2.245761,-6.663063,-0.058489,0.033841,0.014789
16486,-3.131616,2.181118,-6.560112,-0.064750,0.029844,0.013723
16501,-3.038242,2.240973,-6.514623,-0.063551,0.025714,0.016920
16516,-3.028665,2.384625,-6.624756,-0.049828,0.012657,0.013057
16531,-3.169923,2.336741,-6.672640,-0.034907,0.010658,0.003064
16546,-3.186682,2.240973,-6.505046,-0.023982,0.004263,0.001332
16561,-3.069366,2.233790,-6.631938,-0.019718,0.002531,-0.000666
16576,-3.198653,2.305616,-6.612785,-0.016254,0.005729,-0.004263
16591,-3.165135,2.303222,-6.667851,-0.017453,0.002531,-0.006129
16606,-3.198653,2.329558,-6.584054,-0.001865,0.012391,-0.015721
16621,-3.069366,2.269703,-6.581660,0.001466,0.018652,-0.014922
16636,-3.119645,2.284068,-6.581660,0.012790,0.034107,-0.018919
16651,-3.224990,2.188300,-6.639121,0.019052,0.042234,-0.017986
16666,-3.210624,2.080561,-6.603208,0.005596,0.041568,0.003864
16681,-3.189077,2.106897,-6.655880,-0.016787,0.039436,0.011458
16696,-3.038242,2.118868,-6.548141,-0.025847,0.023982,0.007861
16711,-3.066972,1.936909,-6.505046,-0.036106,0.014655,0.000933
16726,-3.205836,1.934515,-6.789956,-0.073943,0.002798,0.015188
16741,-3.122039,2.233790,-6.653486,-0.105652,0.007594,0.025181
16756,-3.047819,2.408567,-6.502652,-0.088599,0.001199,0.018119
16771,-3.213019,2.367865,-6.655880,-0.066616,0.010525,0.009859
16786,-3.256114,2.439692,-6.646304,-0.048496,0.016654,0.000666
16801,-3.138798,2.413355,-6.564901,-0.033974,0.012257,-0.001332
16816,-3.081337,2.557007,-6.586449,-0.003864,0.016521,-0.009726
16831,-3.055001,2.305616,-6.584054,0.038371,0.001466,-0.026247
16846,-3.220201,2.003947,-6.591237,0.049162,0.009060,-0.031043
16861,-3.208230,1.754950,-6.612785,-0.000400,0.009193,-0.009593
16876,-3.153164,1.613692,-6.727706,-0.077541,0.030377,0.024381
16891,-3.236961,1.860295,-6.665457,-0.144556,0.047963,0.057423
16906,-3.205836,2.054225,-6.634333,-0.190920,0.045165,0.069680
16921,-3.098097,2.370260,-6.550536,-0.186391,0.041302,0.068481
16936,-3.062184,2.681506,-6.433220,-0.154681,0.044499,0.057023
16951,-2.918532,2.825158,-6.598420,-0.101522,-0.002531,0.034107
16966,-3.090914,2.657564,-6.550536,-0.046231,0.014922,0.004663
16981,-3.145981,2.509123,-6.519411,-0.008527,-0.001332,-0.009193
16996,-3.102885,2.401384,-6.706159,-0.001599,-0.007727,-0.013856
17011,-3.105279,2.255338,-6.646304,-0.007461,0.005196,-0.012790
17026,-3.177106,2.197877,-6.593631,-0.013323,0.007994,-0.014256
17041,-3.201048,2.197877,-6.607996,-0.014922,-0.000666,-0.011724
17056,-3.122039,2.250550,-6.572083,-0.027312,0.012391,-0.007461
17071,-3.229778,2.231396,-6.473921,-0.015988,0.034107,0.001466
17086,-3.253720,2.303222,-6.706159,-0.010525,0.021850,0.004263
17101,-3.110068,2.233790,-6.574478,-0.020251,0.029444,0.002398
17116,-3.045424,2.250550,-6.579266,-0.022383,0.042501,0.004130
17131,-3.047819,2.221819,-6.682217,-0.051028,0.038637,0.018253
17146,-3.107674,2.343923,-6.624756,-0.045299,0.034640,0.021051
17161,-3.160346,2.406173,-6.643909,-0.029444,0.032508,0.012391
17176,-3.035848,2.308010,-6.598420,-0.017187,0.003064,0.000400
17191,-2.995146,2.236184,-6.579266,-0.015588,0.001066,-0.002531
17206,-3.160346,2.197877,-6.648698,-0.025047,-0.001865,-0.004930
17221,-3.287239,2.214637,-6.615179,-0.035972,0.004397,-0.002531
17236,-3.205836,2.272097,-6.653486,-0.034640,0.001466,-0.002265
17251,-3.028665,2.353500,-6.610391,-0.034107,0.004663,-0.004397
17266,-3.119645,2.257732,-6.622362,-0.024515,0.007461,-0.001466
17281,-3.205836,2.288857,-6.598420,-0.017453,0.031443,-0.004130
17296,-3.224990,2.360683,-6.488286,-0.004663,0.032908,-0.003198
17311,-2.992752,2.212242,-6.641515,-0.005462,0.036106,0.000133
17326,-3.124433,2.212242,-6.687005,-0.009992,0.033974,0.007727
17341,-3.131616,1.915361,-6.588843,-0.048096,0.023049,0.010392
17356,-3.145981,1.991976,-6.588843,-0.079672,0.022516,0.022516
17371,-3.009511,2.286463,-6.569689,-0.103121,0.024248,0.035440
17386,-3.019088,2.485181,-6.643909,-0.093928,0.011191,0.023315
17401,-3.177106,2.530671,-6.610391,-0.059421,0.013723,0.007328
17416,-3.198653,2.461239,-6.476315,-0.032775,-0.004796,-0.003997
17431,-3.031059,2.523489,-6.612785,-0.016387,-0.007994,-0.009859
17446,-3.078943,2.415750,-6.624756,-0.006129,0.006262,-0.015322
17461,-3.239355,2.329558,-6.603208,0.013456,-0.009326,-0.021450
17476,-3.136404,2.226608,-6.610391,0.008394,-0.006395,-0.023049
17491,-3.229778,2.205060,-6.607996,0.011591,0.014123,-0.019851
17506,-3.102885,2.138022,-6.584054,-0.005462,0.035573,-0.005596
17521,-3.100491,2.118868,-6.797139,-0.035440,0.056623,0.005329
17536,-3.313575,2.061408,-6.533776,-0.052227,0.062485,0.017853
17551,-3.064578,2.427721,-6.689399,-0.036239,-0.010392,0.022783
17566,-2.817975,2.312799,-6.593631,-0.050628,0.043433,0.017453
17581,-3.294421,2.281674,-6.581660,-0.044899,0.035573,0.014256
17596,-3.145981,2.281674,-6.655880,-0.033841,-0.005063,0.003331
17611,-3.129222,2.279280,-6.653486,-0.031842,0.009992,-0.001998
17626,-3.117250,2.214637,-6.536170,-0.042900,0.012391,0.002398
17641,-3.129222,2.264915,-6.569689,-0.055025,0.005196,0.010392
17656,-3.114856,2.346318,-6.624756,-0.056890,0.013057,0.007594
17671,-3.208230,2.487576,-6.576872,-0.022516,0.009060,-0.001599
17686,-3.062184,2.477999,-6.512228,0.008127,0.008260,-0.016920
17701,-3.153164,2.238579,-6.631938,0.029977,0.027179,-0.021051
17716,-3.241749,1.946486,-6.739678,-0.001466,0.034374,-0.007861
17731,-3.157952,1.884237,-6.624756,-0.056224,0.035040,0.016787
17746,-3.078943,2.001553,-6.607996,-0.098991,0.039969,0.034240
17761,-3.031059,2.336741,-6.713341,-0.111781,0.039037,0.040502
17776,-3.066972,2.547431,-6.651092,-0.106851,0.038104,0.044233
17791,-3.143587,2.657564,-6.572083,-0.068348,0.004263,0.033041
17806,-2.995146,2.616862,-6.524199,-0.027712,0.008394,0.004796
17821,-3.071761,2.468422,-6.598420,-0.004130,-0.000400,-0.012257
17836,-3.165135,2.296039,-6.485892,0.010126,-0.001466,-0.019851
17851,-3.189077,2.094926,-6.517017,-0.006928,-0.001865,-0.012923
17866,-3.069366,2.161964,-6.569689,-0.021717,-0.002931,-0.007594
17881,-3.050213,2.272097,-6.689399,-0.033441,0.005596,-0.006129
17896,-3.239355,2.355894,-6.579266,-0.019185,0.015588,-0.008793
17911,-3.217807,2.506729,-6.624756,0.010792,0.029311,-0.025980
17926,-3.040636,2.370260,-6.490681,0.031842,0.026913,-0.026113
17941,-3.023877,2.011129,-6.548141,0.005729,0.015588,-0.004263
17956,-3.186682,2.082955,-6.670246,-0.026646,0.015588,0.008394
17971,-3.239355,2.111686,-6.713341,-0.058222,0.027312,0.013057
17986,-3.057395,2.298434,-6.612785,-0.062885,0.009992,0.013190
18001,-2.992752,2.504335,-6.703764,-0.054358,0.020118,0.011458
18016,-3.148375,2.408567,-6.679822,-0.035839,0.009459,0.000266
18031,-3.203442,2.384625,-6.612785,-0.019985,0.001199,-0.004130
18046,-3.102885,2.324770,-6.696582,-0.021317,0.001732,-0.007328
18061,-3.100491,2.245761,-6.598420,-0.023182,0.004130,-0.004930
18076,-3.074155,2.255338,-6.545747,-0.019718,0.003464,-0.006395
18091,-3.196259,2.267309,-6.636727,-0.022116,-0.001599,-0.005596
18106,-3.172317,2.190695,-6.617573,-0.012524,0.012790,-0.007727
18121,-3.134010,2.298434,-6.684611,-0.009726,0.022649,-0.008260
18136,-3.129222,2.130840,-6.567295,-0.017187,0.036639,-0.002665
18151,-3.258508,2.080561,-6.588843,-0.044499,0.032375,0.019851
18166,-3.186682,2.250550,-6.543353,-0.072478,0.039303,0.028645
18181,-3.090914,2.377442,-6.567295,-0.074343,0.036772,0.026247
18196,-3.031059,2.391808,-6.605602,-0.060087,0.021983,0.020118
18211,-3.031059,2.511518,-6.643909,-0.022116,0.026380,0.004796
18226,-3.189077,2.410961,-6.670246,-0.009459,0.021051,-0.006662
18241,-3.093308,2.430115,-6.634333,0.012257,-0.009726,-0.014922
18256,-3.009511,2.240973,-6.569689,0.016387,-0.005862,-0.018386
18271,-3.236961,2.171541,-6.643909,-0.002265,0.002931,-0.019052
18286,-3.265691,2.209848,-6.572083,-0.017720,-0.000133,-0.010392
18301,-3.126827,2.310405,-6.631938,-0.017187,0.005995,-0.011724
18316,-3.131616,2.209848,-6.600814,-0.010126,-0.000533,-0.015188
18331,-3.303998,2.047042,-6.607996,-0.019052,0.019452,0.004663
18346,-3.263297,2.135628,-6.634333,-0.039703,0.036505,0.016521
18361,-3.134010,2.327164,-6.612785,-0.042501,0.047430,0.011991
18376,-2.930503,2.248155,-6.550536,-0.045032,0.030510,0.010525
18391,-3.102885,2.202666,-6.672640,-0.038371,0.034107,0.010126
18406,-3.153164,2.303222,-6.629544,-0.033441,0.003597,0.009726
18421,-3.038242,2.300828,-6.581660,-0.046897,0.021184,0.012257
18436,-3.095703,2.315193,-6.596025,-0.042101,0.016521,0.010126
18451,-3.136404,2.260126,-6.694188,-0.051694,-0.003597,0.006528
18466,-3.210624,2.240973,-6.643909,-0.056623,0.005729,0.010259
18481,-3.124433,2.353500,-6.550536,-0.049828,0.005329,0.005995
18496,-3.023877,2.530671,-6.624756,-0.033974,0.001732,-0.000533
18511,-3.122039,2.446874,-6.610391,-0.012257,0.000266,-0.013057
18526,-3.186682,2.324770,-6.622362,0.011724,-0.001998,-0.017320
18541,-3.246537,2.178724,-6.610391,0.015188,0.009726,-0.017853
18556,-3.119645,2.154782,-6.708553,0.003198,0.029444,-0.009726
18571,-3.117250,2.240973,-6.634333,-0.014655,0.031043,0.003064
18586,-3.155558,1.968034,-6.586449,-0.023582,0.035173,0.005729
18601,-3.196259,2.200271,-6.641515,-0.039570,0.036772,0.013590
18616,-3.062184,2.164358,-6.598420,-0.051960,0.030110,0.016787
18631,-2.940080,2.291251,-6.682217,-0.060354,0.030643,0.018786
18646,-3.047819,2.327164,-6.679822,-0.079139,0.059954,0.023848
18661,-3.591302,2.384625,-6.567295,-0.045965,-0.003997,0.014522
18676,-2.880225,2.485181,-6.536170,-0.048896,-0.020651,0.010658
18691,-2.999935,2.430115,-6.596025,-0.022916,0.024914,-0.004930
18706,-3.213019,2.346318,-6.660669,-0.011991,-0.001332,-0.011325
18721,-3.165135,2.233790,-6.545747,-0.008660,-0.007994,-0.011858
18736,-3.138798,2.205060,-6.603208,-0.006928,0.009593,-0.014655
18751,-3.145981,2.231396,-6.691793,-0.005596,0.006662,-0.013723
18766,-3.205836,2.102109,-6.679822,-0.011058,0.020118,-0.009992
18781,-3.189077,2.202666,-6.598420,-0.022383,0.036639,-0.006129
18796,-3.062184,2.276886,-6.677428,0.011724,0.026380,-0.012790
18811,-3.007117,2.097321,-6.493075,-0.025980,0.042234,0.011191
18826,-3.193865,2.030283,-6.596025,-0.055158,0.041568,0.015988
18841,-3.177106,2.109292,-6.710947,-0.086334,0.020784,0.026113
18856,-3.059790,2.360683,-6.624756,-0.092862,0.024381,0.031176
18871,-2.942474,2.564190,-6.696582,-0.076741,0.015588,0.020917
18886,-3.105279,2.422932,-6.651092,-0.043034,0.003331,0.006928
18901,-3.191471,2.343923,-6.490681,-0.025047,-0.003198,0.000133
18916,-3.201048,2.336741,-6.552930,-0.019585,0.003730,-0.003597
18931,-3.090914,2.288857,-6.631938,-0.021184,0.004663,-0.000266
18946,-3.088520,2.382231,-6.538565,-0.015721,0.003331,-0.009060
18961,-3.215413,2.327164,-6.540959,-0.001199,0.005729,-0.014123
18976,-3.203442,2.257732,-6.581660,0.006395,0.005063,-0.018386
18991,-3.136404,2.217031,-6.605602,0.014522,0.033708,-0.018253
19006,-3.066972,2.090138,-6.603208,-0.010925,0.032775,-0.011991
19021,-3.244143,1.881842,-6.588843,-0.051294,0.037438,0.014655
19036,-3.215413,2.013524,-6.646304,-0.084868,0.030643,0.034240
19051,-3.105279,2.389413,-6.629544,-0.107384,0.041302,0.038371
19066,-3.026271,2.571373,-6.560112,-0.086334,0.037971,0.025847
19081,-3.074155,2.636016,-6.531382,-0.044899,0.021317,0.009992
19096,-3.143587,2.621651,-6.531382,-0.003198,0.010792,-0.005462
19111,-3.045424,2.513912,-6.588843,0.028112,-0.005329,-0.019452
19126,-3.021482,2.312799,-6.552930,0.041968,-0.003198,-0.028778
19141,-3.215413,2.140416,-6.617573,0.035573,-0.003864,-0.029178
19156,-3.220201,2.126051,-6.581660,0.011458,0.004130,-0.021317
19171,-3.167529,2.066196,-6.660669,-0.004263,0.007994,-0.013590
19186,-3.057395,2.099715,-6.651092,-0.020384,0.013190,-0.006528
19201,-3.256114,2.066196,-6.682217,-0.026646,0.030776,-0.001199
19216,-3.277662,2.118868,-6.670246,-0.034374,0.038371,0.007861
19231,-3.117250,2.159570,-6.557718,-0.051161,0.032375,0.018652
19246,-3.057395,2.262521,-6.591237,-0.057822,0.037438,0.018652
19261,-3.040636,2.236184,-6.617573,-0.058755,0.023049,0.011325
19276,-3.143587,2.303222,-6.572083,-0.046098,0.026646,0.010392
19291,-3.129222,2.391808,-6.521805,-0.035573,0.015055,0.009593
19306,-3.045424,2.545036,-6.677428,-0.018519,0.012790,-0.001732
19321,-3.045424,2.437297,-6.505046,0.003864,0.004130,-0.013190
19336,-3.275268,2.236184,-6.651092,0.024515,0.001865,-0.021051
19351,-3.162740,2.087744,-6.648698,0.017986,-0.000933,-0.017187
19366,-3.069366,2.169147,-6.696582,0.002665,0.002931,-0.014522
19381,-3.088520,2.209848,-6.698976,0.051560,-0.049695,-0.020384
19396,-3.028665,2.161964,-6.684611,0.013989,-0.022250,-0.015855
19411,-3.265691,1.996764,-6.706159,-0.009193,0.034640,-0.005729
19426,-3.181894,2.044648,-6.600814,-0.037838,0.035040,0.018519
19441,-3.088520,2.066196,-6.715735,-0.062219,0.031309,0.020384
19456,-3.167529,2.161964,-6.610391,-0.063951,0.057822,0.017853
19471,-3.167529,2.193089,-6.615179,-0.072345,0.038770,0.021051
19486,-3.019088,2.341529,-6.555324,-0.077407,0.030377,0.026779
19501,-2.928109,2.418144,-6.521805,-0.072478,0.023049,0.022116
19516,-3.184288,2.434903,-6.564901,-0.043300,0.016387,0.013590
19531,-3.234566,2.466028,-6.545747,-0.012923,0.005596,-0.003464
19546,-3.066972,2.375048,-6.574478,0.003464,-0.000400,-0.009992
19561,-3.069366,2.286463,-6.651092,0.004130,-0.001199,-0.012923
19576,-3.119645,2.178724,-6.634333,0.002531,-0.005596,-0.010792
19591,-3.210624,2.166753,-6.679822,-0.000400,0.005329,-0.017453
19606,-3.124433,2.240973,-6.612785,-0.000133,0.000933,-0.012923
19621,-3.081337,2.173935,-6.734890,0.003464,0.008926,-0.016654
19636,-3.138798,2.094926,-6.665457,0.002531,0.027712,-0.012391
19651,-3.222595,2.035071,-6.562507,-0.006262,0.037172,-0.004397
19666,-3.174711,2.049437,-6.667851,-0.041168,0.032242,0.009060
19681,-3.047819,2.006341,-6.677428,-0.061553,0.036239,0.018119
19696,-3.165135,2.099715,-6.643909,-0.087799,0.034640,0.028911
19711,-3.179500,2.387019,-6.545747,-0.085401,0.030776,0.029044
19726,-3.110068,2.449268,-6.576872,-0.068081,0.028112,0.019052
19741,-2.997540,2.461239,-6.579266,-0.032375,0.005995,0.005862
19756,-3.074155,2.439692,-6.521805,-0.008394,-0.000133,-0.007727
19771,-3.177106,2.240973,-6.596025,0.000000,-0.002398,-0.015322
19786,-3.112462,2.233790,-6.591237,0.001865,-0.006795,-0.017054
19801,-3.141193,2.169147,-6.612785,-0.007994,-0.003864,-0.013723
19816,-3.265691,2.181118,-6.682217,-0.006262,-0.005329,-0.017054
19831,-3.138798,2.157176,-6.627150,-0.013989,0.005995,-0.009859
19846,-3.095703,2.090138,-6.569689,-0.018652,0.022250,-0.004663
19861,-3.129222,2.090138,-6.567295,-0.029977,0.035972,0.002931
19876,-3.268085,1.999158,-6.548141,-0.048629,0.041701,0.019319
19891,-3.131616,2.171541,-6.646304,-0.059954,0.037704,0.024648
19906,-3.052607,2.224213,-6.576872,-0.062086,0.036772,0.018253
19921,-3.081337,2.152387,-6.545747,-0.069680,0.025580,0.023848
19936,-3.201048,2.231396,-6.634333,-0.066083,0.025980,0.020251
19951,-3.136404,2.485181,-6.648698,-0.053426,0.016654,0.015588
19966,-2.983175,2.473210,-6.533776,-0.031043,0.001732,0.001865
19981,-3.141193,2.415750,-6.598420,-0.006662,0.002265,-0.014389
19996,-3.213019,2.202666,-6.682217,-0.002132,-0.005596,-0.016254
20011,-3.122039,2.224213,-6.641515,-0.009593,-0.011858,-0.014256
20026,-3.081337,2.243367,-6.581660,-0.016387,-0.001732,-0.009593
20041,-3.138798,2.200271,-6.639121,-0.009992,0.004930,-0.011191
20056,-3.277662,2.171541,-6.469133,0.002398,0.002931,-0.011458
20071,-3.234566,2.085350,-6.612785,-0.004263,0.027712,-0.011591
20086,-3.181894,1.941698,-6.574478,-0.027046,0.024115,0.003864
20101,-3.069366,1.963245,-6.675034,-0.064484,0.033974,0.027712
20116,-3.172317,2.142811,-6.572083,-0.093395,0.039703,0.033574
20131,-3.145981,2.341529,-6.691793,-0.094461,0.039969,0.033708
20146,-3.023877,2.434903,-6.605602,-0.067415,0.033574,0.020917
20161,-3.009511,2.516306,-6.648698,-0.043567,0.014789,0.011325
20176,-3.148375,2.434903,-6.598420,-0.013590,0.005063,-0.007061
20191,-3.215413,2.264915,-6.596025,0.004796,-0.009060,-0.016920
20206,-3.150769,2.217031,-6.658275,-0.005063,-0.002531,-0.019851
20221,-3.119645,2.248155,-6.634333,-0.017720,0.006262,-0.015455
20236,-3.110068,2.190695,-6.643909,-0.010259,0.009326,-0.010792
20251,-3.239355,2.231396,-6.478710,0.006129,-0.001998,-0.013989
20266,-3.155558,2.006341,-6.517017,-0.004130,0.001865,-0.008127
20281,-3.117250,2.003947,-6.576872,-0.015721,0.025181,0.002798
20296,-3.083732,2.051831,-6.603208,-0.049695,0.026113,0.016121
20311,-3.239355,2.123657,-6.639121,-0.066616,0.036639,0.015588
20326,-3.201048,2.181118,-6.660669,-0.069680,0.025047,0.018919
20341,-2.978387,2.219425,-6.469133,-0.077541,0.022916,0.017720
20356,-3.074155,2.284068,-6.588843,-0.088199,0.029711,0.025314
20371,-3.162740,2.420538,-6.658275,-0.068747,0.012391,0.018652
20386,-3.177106,2.501941,-6.557718,-0.045565,0.019052,0.012524
20401,-3.081337,2.552219,-6.605602,-0.009726,0.000666,-0.005462
20416,-3.086126,2.461239,-6.552930,0.020917,0.001199,-0.018386
20431,-3.208230,2.233790,-6.588843,0.036905,-0.005596,-0.027446
20446,-3.119645,2.169147,-6.562507,0.041835,-0.005063,-0.028112
20461,-3.280056,1.781286,-6.497863,0.091397,-0.022516,-0.024381
20476,-2.959233,1.920150,-6.806715,-0.031709,-0.037838,0.002931
20491,-3.313575,2.085350,-6.670246,-0.019185,0.071945,-0.002265
20506,-3.282450,2.140416,-6.694188,-0.059954,0.032908,0.013989
20521,-3.009511,2.212242,-6.548141,-0.051827,0.027046,0.014389
20536,-3.143587,2.056619,-6.588843,-0.064884,0.046364,0.021051
20551,-3.253720,2.073379,-6.612785,-0.099124,0.031975,0.032242
20566,-3.112462,2.193089,-6.607996,-0.104853,0.023582,0.037571
20581,-3.105279,2.466028,-6.651092,-0.088998,0.034773,0.028778
20596,-3.050213,2.533065,-6.624756,-0.053692,0.006928,0.011858
20611,-3.098097,2.324770,-6.706159,-0.031842,0.009193,-0.001998
20626,-3.251326,2.363077,-6.737284,-0.020118,0.009326,-0.008127
20641,-3.090914,2.243367,-6.610391,-0.022649,0.007061,-0.006262
20656,-3.083732,2.240973,-6.684611,-0.017587,0.013323,-0.007328
20671,-3.035848,2.181118,-6.607996,-0.012923,-0.006129,-0.007194
20686,-3.198653,2.140416,-6.557718,-0.016121,0.016521,-0.008127
20701,-3.181894,2.152387,-6.641515,-0.012257,0.027046,-0.003997
20716,-3.086126,2.200271,-6.617573,-0.010126,0.025314,0.003730
20731,-3.100491,2.080561,-6.538565,-0.032242,0.029977,0.009593
20746,-3.210624,2.106897,-6.588843,-0.044766,0.033574,0.014789
20761,-3.110068,2.161964,-6.672640,-0.060087,0.025980,0.017853
20776,-3.031059,2.296039,-6.643909,-0.077407,0.032375,0.024781
20791,-3.093308,2.377442,-6.564901,-0.066216,0.013323,0.017587
20806,-3.145981,2.437297,-6.660669,-0.039303,0.012657,0.005862
20821,-3.167529,2.427721,-6.567295,-0.010792,0.005196,-0.008260
20836,-3.011906,2.358289,-6.581660,0.003198,-0.002265,-0.015055
20851,-3.138798,2.161964,-6.612785,-0.000666,-0.005063,-0.015855
20866,-3.268085,2.030283,-6.715735,-0.022649,-0.006528,-0.010392
20881,-3.189077,2.042254,-6.653486,-0.048496,0.006928,-0.001066
20896,-3.098097,2.169147,-6.615179,-0.053825,0.014256,0.001732
20911,-3.119645,2.312799,-6.768408,-0.055158,0.040369,0.010525
20926,-3.162740,2.346318,-6.629544,-0.049828,0.032642,0.011724
20941,-3.107674,2.334347,-6.562507,-0.028378,0.027979,0.004263
20956,-3.126827,2.217031,-6.545747,-0.025181,0.024115,0.007061
20971,-3.045424,2.240973,-6.648698,-0.048896,0.023449,0.013989
20986,-3.124433,2.296039,-6.651092,-0.052626,0.014389,0.018652
21001,-3.126827,2.437297,-6.658275,-0.033841,0.013323,0.010525
21016,-3.028665,2.403779,-6.715735,-0.008793,-0.002665,-0.008793
21031,-3.081337,2.296039,-6.634333,0.002531,-0.000266,-0.016121
21046,-3.169923,2.188300,-6.687005,-0.006528,-0.000266,-0.012790
21061,-3.167529,2.197877,-6.631938,-0.019319,0.003331,-0.008260
21076,-3.110068,2.312799,-6.531382,-0.017054,0.010525,-0.006928
21091,-3.033453,2.394202,-6.576872,0.001466,0.000266,-0.013190
21106,-3.232172,2.279280,-6.514623,0.023582,0.006662,-0.024781
21121,-3.315969,2.015918,-6.502652,0.028378,0.008793,-0.027712
21136,-3.248932,1.848324,-6.622362,-0.012257,0.010658,-0.012923
21151,-3.122039,1.711854,-6.634333,-0.083802,0.029711,0.021583
21166,-3.124433,1.829170,-6.727706,-0.151750,0.039436,0.048496
21181,-3.208230,2.195483,-6.730101,-0.186923,0.044766,0.058355
21196,-3.069366,2.557007,-6.564901,-0.168937,0.040902,0.056490
21211,-2.925714,2.839523,-6.567295,-0.102055,0.033708,0.033441
21226,-2.995146,2.885013,-6.581660,-0.018119,0.009992,-0.001998
21241,-3.086126,2.585738,-6.509834,0.048629,-0.000666,-0.028911
21256,-3.134010,2.372654,-6.651092,0.081271,-0.008394,-0.042234
21271,-3.093308,2.128445,-6.672640,0.063818,-0.010392,-0.039436
21286,-3.126827,2.020706,-6.651092,0.036639,0.002531,-0.028645
21301,-3.263297,2.025495,-6.596025,0.009593,-0.005329,-0.018519
21316,-3.284845,2.094926,-6.660669,-0.008527,0.017320,-0.006129
21331,-3.224990,2.149993,-6.675034,-0.017054,0.048363,-0.000533
21346,-3.057395,2.276886,-6.531382,-0.035573,0.030243,0.012524
21361,-3.090914,2.159570,-6.567295,-0.037704,0.034773,0.010658
21376,-3.126827,2.205060,-6.643909,-0.031043,0.039303,0.006795
21391,-3.050213,2.219425,-6.610391,-0.033308,0.022116,0.007194
21406,-2.968810,2.209848,-6.639121,-0.041701,0.019052,0.003331
21421,-3.148375,2.185906,-6.603208,-0.051294,0.023315,0.010259
21436,-3.169923,2.336741,-6.684611,-0.053959,0.006795,0.012657
21451,-3.110068,2.322376,-6.639121,-0.045032,0.009593,0.005596
21466,-3.028665,2.360683,-6.545747,-0.037971,-0.003198,0.005063
21481,-3.076549,2.334347,-6.670246,-0.024914,-0.008660,-0.004796
21496,-3.215413,2.221819,-6.624756,-0.016387,0.006129,-0.010259
21511,-3.069366,2.255338,-6.639121,-0.010126,-0.006262,-0.012257
21526,-3.074155,2.212242,-6.576872,-0.001332,-0.001466,-0.014922
21541,-3.177106,2.092532,-6.684611,-0.011591,0.014123,-0.011591
21556,-3.320758,2.092532,-6.550536,-0.012657,0.032109,-0.004930
21571,-3.177106,2.032677,-6.605602,-0.046631,0.031975,0.012124
21586,-3.078943,2.221819,-6.675034,-0.064084,0.044233,0.021850
21601,-3.064578,2.260126,-6.596025,-0.064484,0.041035,0.017853
21616,-3.124433,2.243367,-6.641515,-0.063285,0.026380,0.015188
21631,-3.033453,2.315193,-6.603208,-0.042900,0.019585,0.008926
21646,-3.028665,2.451663,-6.619967,-0.028778,0.001732,-0.001066
21661,-3.090914,2.267309,-6.660669,-0.024914,-0.013323,-0.006662
21676,-3.203442,2.157176,-6.622362,-0.037838,-0.000133,-0.003997
21691,-3.234566,2.310405,-6.629544,-0.046764,0.007461,0.001199
21706,-3.019088,2.377442,-6.619967,-0.043300,0.005462,-0.001466
21721,-3.043030,2.466028,-6.612785,-0.003464,0.006395,-0.013057
21736,-3.241749,2.363077,-6.569689,0.035706,0.002798,-0.030910
21751,-3.184288,2.152387,-6.612785,0.039037,0.015455,-0.025714
21766,-3.205836,1.948880,-6.593631,0.013323,0.021051,-0.010658
21781,-3.143587,1.867477,-6.730101,-0.029577,0.040369,0.008394
21796,-3.198653,1.917755,-6.552930,-0.075142,0.043833,0.025580
21811,-3.160346,2.164358,-6.567295,-0.094061,0.037305,0.031842
21826,-3.047819,2.360683,-6.622362,-0.084602,0.033175,0.027712
21841,-2.985569,2.521094,-6.629544,-0.074609,0.034507,0.024648
21856,-3.090914,2.439692,-6.524199,-0.042101,0.008926,0.012257
21871,-3.119645,2.401384,-6.658275,-0.001199,-0.004130,-0.006928
21886,-3.074155,2.365471,-6.672640,0.007861,0.000133,-0.011458
21901,-3.086126,2.327164,-6.593631,0.008260,-0.001466,-0.016920
21916,-3.162740,2.233790,-6.670246,0.018652,-0.002265,-0.017320
21931,-3.196259,2.221819,-6.665457,0.020251,-0.003198,-0.017986
21946,-3.203442,2.157176,-6.679822,0.022116,0.011591,-0.023848
21961,-3.169923,2.027889,-6.648698,0.009593,0.027046,-0.013190
21976,-3.071761,1.903390,-6.627150,-0.016787,0.031842,0.001466
21991,-3.248932,1.944092,-6.701370,-0.054092,0.041835,0.017720
22006,-3.177106,2.078167,-6.533776,-0.075142,0.031842,0.024914
22021,-3.078943,2.171541,-6.665457,-0.096326,0.027712,0.028511
22036,-3.057395,2.281674,-6.572083,-0.102855,0.031309,0.027579
22051,-3.119645,2.370260,-6.607996,-0.088599,0.028511,0.028511
22066,-3.124433,2.624045,-6.617573,-0.053559,0.016121,0.014655
22081,-2.985569,2.619257,-6.543353,0.004397,0.004796,-0.012790
22096,-3.057395,2.305616,-6.653486,0.028778,-0.009593,-0.025447
22111,-3.148375,2.061408,-6.797139,0.022783,-0.016254,-0.025047
22126,-3.210624,2.001553,-6.706159,-0.002798,-0.010259,-0.015588
22141,-3.119645,2.056619,-6.629544,-0.036772,-0.015855,-0.004530
22156,-3.136404,2.097321,-6.665457,-0.044233,0.006262,-0.005596
22171,-3.246537,2.185906,-6.708553,-0.049296,0.024648,0.001599
22186,-3.222595,2.276886,-6.572083,-0.043833,0.031842,0.009459
22201,-3.071761,2.291251,-6.564901,-0.037971,0.038770,0.013856
22216,-3.062184,2.348712,-6.567295,-0.033308,0.045832,0.009593
22231,-3.122039,2.240973,-6.550536,-0.019185,0.024914,0.003864
22246,-3.169923,2.118868,-6.483498,-0.029044,0.021850,0.004930
22261,-3.141193,2.188300,-6.596025,-0.036239,0.011325,0.007994
22276,-3.035848,2.200271,-6.581660,-0.035173,0.008127,0.001732
22291,-3.196259,2.157176,-6.713341,-0.045832,0.007194,0.002531
22306,-3.256114,2.190695,-6.610391,-0.059821,0.008394,0.009193
22321,-3.205836,2.310405,-6.588843,-0.059554,0.012923,0.004796
22336,-3.136404,2.413355,-6.584054,-0.045032,0.004663,-0.000400
22351,-3.105279,2.351106,-6.718130,-0.029044,0.005862,-0.006395
22366,-3.263297,2.288857,-6.722918,-0.011458,0.005995,-0.014522
22381,-3.167529,2.272097,-6.607996,-0.003464,0.007461,-0.011325
22396,-3.047819,2.221819,-6.619967,0.006795,0.026646,-0.014655
22411,-3.131616,2.075773,-6.732495,-0.001599,0.027579,-0.003597
22426,-3.203442,1.963245,-6.600814,-0.032508,0.043966,0.015055
22441,-3.186682,2.078167,-6.651092,-0.063418,0.036905,0.024648
22456,-3.045424,2.221819,-6.552930,-0.081804,0.025314,0.023848
22471,-3.028665,2.243367,-6.610391,-0.081005,0.022383,0.024248
22486,-3.172317,2.322376,-6.569689,-0.081138,0.015988,0.023848
22501,-3.165135,2.403779,-6.619967,-0.054625,0.005196,0.013590
22516,-3.126827,2.427721,-6.670246,-0.039836,-0.001732,0.000266
22531,-3.086126,2.291251,-6.658275,-0.031176,0.010392,-0.000799
22546,-3.160346,2.322376,-6.574478,-0.029977,0.007861,-0.003864
22561,-3.138798,2.334347,-6.655880,-0.010658,0.000666,-0.010126
22576,-3.081337,2.384625,-6.622362,0.007727,0.007194,-0.022383
22591,-3.090914,2.286463,-6.651092,0.020518,0.010525,-0.018119
22606,-3.191471,2.200271,-6.634333,0.014522,0.023049,-0.016254
22621,-3.270479,2.020706,-6.588843,-0.000666,0.025580,-0.005462
22636,-3.124433,2.059013,-6.617573,-0.032775,0.024648,0.007194
22651,-3.095703,2.130840,-6.710947,-0.060753,0.039037,0.020651
22666,-3.126827,2.159570,-6.651092,-0.071945,0.033308,0.021583
22681,-3.167529,2.293645,-6.631938,-0.069280,0.025181,0.019985
22696,-3.172317,2.365471,-6.617573,-0.048629,0.019319,0.013856
22711,-3.040636,2.406173,-6.653486,-0.032242,0.000133,0.003864
22726,-3.107674,2.312799,-6.586449,-0.011858,0.003864,-0.008926
22741,-3.253720,2.171541,-6.538565,-0.006129,0.008394,-0.012257
22756,-3.217807,2.197877,-6.675034,-0.009726,-0.002665,-0.009992
22771,-2.999935,2.238579,-6.576872,-0.020518,-0.005329,-0.007328
22786,-3.153164,2.157176,-6.689399,-0.020917,0.006395,-0.007594
22801,-3.315969,2.123657,-6.641515,-0.020917,0.010525,-0.005729
22816,-3.165135,2.183512,-6.646304,-0.022383,0.024115,-0.001865
22831,-2.992752,2.082955,-6.598420,-0.036239,0.034374,0.005995
22846,-3.134010,2.121263,-6.576872,-0.046498,0.039170,0.019052
22861,-3.126827,2.202666,-6.663063,-0.051427,0.030110,0.018919
22876,-3.090914,2.375048,-6.648698,-0.053159,0.037305,0.014922
22891,-3.033453,2.331952,-6.567295,-0.047564,0.023182,0.013323
22906,-2.978387,2.413355,-6.605602,-0.028778,0.015855,0.005729
22921,-3.268085,2.250550,-6.641515,-0.013856,0.015322,-0.006528
22936,-3.189077,2.298434,-6.617573,0.006262,-0.015588,-0.014256
22951,-3.086126,2.185906,-6.603208,0.007061,-0.002665,-0.010925
22966,-3.153164,2.078167,-6.612785,-0.007994,0.005329,-0.005462
22981,-3.155558,2.145205,-6.675034,-0.019985,0.001199,-0.006262
22996,-3.193865,2.238579,-6.677428,-0.009459,0.013057,-0.012657
23011,-3.179500,2.205060,-6.684611,0.009326,0.024381,-0.014789
23026,-3.090914,2.133234,-6.627150,0.006662,0.020917,-0.013723
23041,-3.181894,1.941698,-6.603208,-0.016387,0.031576,-0.001865
23056,-3.205836,1.975216,-6.543353,-0.050095,0.027446,0.015188
23071,-3.090914,2.047042,-6.598420,-0.085668,0.038104,0.025447
23086,-3.124433,2.250550,-6.617573,-0.102855,0.027046,0.033708
23101,-3.102885,2.341529,-6.543353,-0.081271,0.017187,0.026380
23116,-3.093308,2.442086,-6.687005,-0.052626,0.011991,0.011591
23131,-3.196259,2.396596,-6.619967,-0.027312,0.009593,-0.000533
23146,-3.143587,2.384625,-6.598420,-0.013190,-0.005196,-0.006262
23161,-3.184288,2.252944,-6.677428,-0.012257,-0.005862,-0.010792
23176,-3.260903,2.274492,-6.509834,-0.018119,0.003597,-0.008260
23191,-3.088520,2.217031,-6.579266,-0.023582,-0.005329,-0.009459
23206,-3.078943,2.219425,-6.605602,-0.017187,0.012257,-0.008527
23221,-3.258508,2.152387,-6.643909,-0.014522,0.013190,-0.008260
23236,-3.066972,2.214637,-6.619967,-0.006528,0.023715,-0.006662
23251,-3.148375,2.066196,-6.682217,-0.017853,0.031043,-0.000400
23266,-3.210624,2.011129,-6.576872,-0.047564,0.030643,0.011458
23281,-3.136404,2.159570,-6.567295,-0.056490,0.029178,0.018786
23296,-3.098097,2.327164,-6.624756,-0.053692,0.031709,0.007461
23311,-3.119645,2.384625,-6.596025,-0.038904,0.027312,0.001599
23326,-3.071761,2.279280,-6.581660,-0.033441,0.002931,0.004530
23341,-3.174711,2.248155,-6.696582,-0.027579,0.011458,-0.002398
23356,-3.213019,2.312799,-6.572083,-0.015855,0.011458,-0.003597
23371,-3.031059,2.296039,-6.598420,0.000666,0.006528,-0.010525
23386,-3.165135,2.264915,-6.691793,-0.004263,0.004663,-0.009060
23401,-3.198653,2.176329,-6.538565,-0.000400,0.010525,-0.012124
23416,-3.205836,2.169147,-6.603208,0.001599,0.003597,-0.014789
23431,-3.153164,2.025495,-6.720524,-0.013723,0.015322,-0.009060
23446,-3.081337,1.960851,-6.596025,-0.029044,0.021051,0.007061
23461,-3.263297,2.068590,-6.763620,-0.054092,0.022250,0.013723
23476,-3.138798,2.181118,-6.588843,-0.059155,0.023582,0.015721
23491,-3.052607,2.305616,-6.528988,-0.058622,0.020917,0.014389
23506,-3.069366,2.219425,-6.682217,-0.047164,0.016787,0.006262
23521,-3.220201,2.183512,-6.629544,-0.046098,0.015988,0.005196
23536,-3.217807,2.229002,-6.591237,-0.044233,0.014256,0.005462
23551,-3.095703,2.296039,-6.581660,-0.043567,0.012391,0.002931
23566,-3.074155,2.229002,-6.509834,-0.033708,0.012923,0.002665
23581,-3.263297,2.300828,-6.576872,-0.028778,0.012657,-0.000799
23596,-3.203442,2.260126,-6.490681,-0.025980,0.006928,-0.000400
23611,-3.107674,2.327164,-6.617573,-0.018786,0.006395,-0.001066
23626,-3.136404,2.176329,-6.569689,-0.014922,0.015988,-0.004397
23641,-3.256114,2.166753,-6.636727,-0.017320,0.019185,-0.000133
23656,-3.193865,2.178724,-6.651092,-0.025447,0.018786,0.001466
23671,-3.124433,2.200271,-6.682217,-0.022516,0.027845,0.001066
23686,-3.069366,2.106897,-6.672640,-0.042234,0.029311,0.008127
23701,-3.165135,2.082955,-6.629544,-0.050894,0.023715,0.012524
23716,-3.205836,2.248155,-6.639121,-0.053026,0.025580,0.015855
23731,-3.105279,2.336741,-6.603208,-0.047564,0.017054,0.008260
23746,-3.019088,2.403779,-6.572083,-0.035839,0.015188,0.001332
23761,-3.172317,2.264915,-6.576872,-0.025580,0.008260,-0.001599
23776,-3.174711,2.257732,-6.584054,-0.012657,0.009992,-0.008260
23791,-3.167529,2.229002,-6.684611,-0.009859,0.005729,-0.006928
23806,-3.011906,2.252944,-6.682217,0.001466,0.009459,-0.014389
23821,-3.203442,2.121263,-6.517017,-0.000799,0.006795,-0.009859
23836,-3.213019,2.114080,-6.600814,-0.003730,0.016254,-0.000666
23851,-3.193865,2.181118,-6.663063,0.007061,0.037571,-0.008793
23866,-2.480393,1.790863,-6.746861,-0.065017,0.104986,0.022649
23881,-3.608062,1.805228,-6.794744,-0.043300,0.093928,-0.006129
23896,-3.227384,2.066196,-6.593631,-0.052227,-0.018386,0.018386
23911,-3.011906,2.185906,-6.615179,-0.060087,0.013856,0.014256
23926,-3.143587,2.255338,-6.636727,-0.058888,0.037704,0.013323
23941,-3.126827,2.209848,-6.619967,-0.063018,0.003730,0.016254
23956,-3.145981,2.193089,-6.596025,-0.061420,0.010792,0.012923
23971,-3.167529,2.238579,-6.691793,-0.051560,0.021450,0.005462
23986,-3.107674,2.348712,-6.567295,-0.042234,0.014522,0.006662
24001,-3.076549,2.310405,-6.624756,-0.031709,0.005196,-0.000400
24016,-3.162740,2.308010,-6.639121,-0.010259,0.010925,-0.008793
24031,-3.138798,2.250550,-6.564901,-0.003464,0.003464,-0.007994
24046,-3.126827,2.214637,-6.648698,-0.000133,0.016254,-0.009992
24061,-3.105279,2.185906,-6.598420,-0.002531,0.020917,-0.009060
24076,-3.224990,2.027889,-6.574478,-0.017587,0.020518,-0.001199
24091,-3.239355,2.090138,-6.689399,-0.039570,0.030776,0.005729
24106,-3.236961,2.068590,-6.789956,-0.056890,0.018519,0.015988
24121,-3.052607,2.202666,-6.727706,-0.071945,0.029844,0.021450
24136,-3.078943,2.372654,-6.660669,-0.059554,0.021317,0.014522
24151,-3.169923,2.346318,-6.696582,-0.048629,0.012923,0.013989
24166,-3.143587,2.343923,-6.567295,-0.031309,0.012524,0.006795
24181,-3.045424,2.377442,-6.679822,-0.016787,0.005729,-0.005462
24196,-3.162740,2.300828,-6.581660,-0.009326,0.010792,-0.007727
24211,-3.277662,2.262521,-6.698976,0.001332,0.011191,-0.011858
24226,-3.236961,2.145205,-6.591237,0.005729,0.009859,-0.014256
24241,-3.136404,2.106897,-6.684611,-0.011991,0.024381,-0.007061
24256,-3.186682,2.039860,-6.576872,-0.017453,0.033574,-0.005729
24271,-3.186682,2.118868,-6.639121,-0.021450,0.031309,-0.003864
24286,-3.165135,2.015918,-6.629544,-0.030910,0.027845,0.007727
24301,-3.045424,2.176329,-6.581660,-0.044632,0.027712,0.014389
24316,-3.050213,2.229002,-6.531382,-0.049162,0.021850,0.015588
24331,-3.141193,2.188300,-6.588843,-0.045565,0.023049,0.009326
24346,-3.236961,2.130840,-6.555324,-0.043833,0.015188,0.011058
24361,-3.083732,2.276886,-6.607996,-0.047164,0.010792,0.009326
24376,-3.117250,2.231396,-6.634333,-0.044233,0.009326,0.008527
24391,-3.193865,2.229002,-6.629544,-0.038371,0.008394,0.001998
24406,-3.193865,2.229002,-6.524199,-0.032109,0.004663,-0.002132
24421,-3.107674,2.281674,-6.552930,-0.025314,0.000400,-0.005862
24436,-3.066972,2.157176,-6.519411,-0.016387,0.001199,-0.010392
24451,-3.222595,2.178724,-6.586449,-0.018786,0.015721,-0.014123
24466,-3.244143,2.181118,-6.684611,-0.008394,0.020251,-0.009726
24481,-3.066972,2.111686,-6.634333,-0.019185,0.025847,-0.002665
24496,-3.095703,1.980005,-6.572083,-0.039703,0.025714,0.011058
24511,-3.184288,2.018312,-6.744466,-0.070346,0.037172,0.026913
24526,-3.181894,2.351106,-6.624756,-0.072744,0.036772,0.025580
24541,-3.071761,2.485181,-6.624756,-0.043567,0.030110,0.010259
24556,-3.078943,2.516306,-6.634333,-0.007328,0.014389,-0.004930
24571,-3.138798,2.324770,-6.732495,0.011858,0.003864,-0.013323
24586,-3.222595,2.221819,-6.672640,0.017853,0.006662,-0.013856
24601,-3.134010,2.149993,-6.622362,0.014789,0.007727,-0.015588
24616,-3.112462,2.106897,-6.600814,0.000133,0.002398,-0.013456
24631,-3.138798,2.059013,-6.634333,-0.016787,0.000533,-0.009726
24646,-3.222595,2.061408,-6.641515,-0.038237,0.011991,0.000400
24661,-3.203442,2.018312,-6.665457,-0.048230,0.025447,0.008127
24676,-3.117250,2.130840,-6.493075,-0.060221,0.021450,0.015588
24691,-3.090914,2.238579,-6.641515,-0.060620,0.043700,0.019985
24706,-3.205836,2.272097,-6.629544,-0.057556,0.031709,0.016254
24721,-3.138798,2.315193,-6.667851,-0.040502,0.033841,0.013190
24736,-2.966416,2.353500,-6.636727,-0.026513,0.021983,0.006262
24751,-3.047819,2.339135,-6.679822,0.000799,0.019452,-0.003730
24766,-3.284845,2.003947,-6.636727,-0.011724,0.030643,-0.004930
24781,-3.236961,2.288857,-6.720524,0.017986,-0.033974,-0.003597
24796,-3.019088,2.154782,-6.560112,-0.017054,0.006795,-0.003198
24811,-3.191471,2.092532,-6.610391,-0.026646,0.016920,0.000266
24826,-3.189077,2.106897,-6.646304,-0.031309,0.001466,0.000666
24841,-3.201048,2.130840,-6.579266,-0.038104,0.008260,-0.001066
24856,-3.086126,2.279280,-6.631938,-0.029444,0.004397,-0.003198
24871,-3.138798,2.169147,-6.531382,-0.021717,0.011191,-0.006395
24886,-3.145981,2.099715,-6.663063,-0.027979,0.016787,0.002665
24901,-3.217807,2.044648,-6.655880,-0.032908,0.027845,0.001332
24916,-3.107674,2.075773,-6.555324,-0.049562,0.022516,0.010259
24931,-3.038242,2.109292,-6.687005,-0.068081,0.027312,0.017986
24946,-3.160346,2.154782,-6.543353,-0.070746,0.024781,0.022116
24961,-3.145981,2.319981,-6.564901,-0.061153,0.016121,0.019585
24976,-3.169923,2.300828,-6.588843,-0.044766,0.009859,0.010925
24991,-3.102885,2.451663,-6.648698,-0.033041,0.015322,0.004397
25006,-3.095703,2.281674,-6.543353,-0.015188,0.018786,-0.002798
25021,-3.193865,2.240973,-6.648698,0.002931,0.005196,-0.012524
25036,-3.143587,2.202666,-6.600814,0.007994,0.005862,-0.015188
25051,-3.066972,2.126051,-6.622362,0.002931,0.004930,-0.014256
25066,-3.126827,2.116474,-6.624756,0.001466,0.008260,-0.010392
25081,-3.306392,2.056619,-6.629544,-0.010525,0.017986,-0.012391
25096,-3.236961,2.130840,-6.598420,-0.014655,0.023182,-0.006262
25111,-3.136404,2.054225,-6.579266,-0.034507,0.030510,0.000133
25126,-3.119645,2.023100,-6.598420,-0.052893,0.028112,0.013856
25141,-3.201048,2.073379,-6.624756,-0.071012,0.033574,0.019851
25156,-3.134010,2.135628,-6.617573,-0.074876,0.025847,0.019185
25171,-3.035848,2.197877,-6.648698,-0.069946,0.027179,0.021051
25186,-3.105279,2.291251,-6.607996,-0.061553,0.018519,0.020384
25201,-3.184288,2.245761,-6.610391,-0.054758,0.009992,0.015322
25216,-3.181894,2.346318,-6.627150,-0.036505,0.012923,0.004663
25231,-3.002329,2.305616,-6.581660,-0.025847,0.007061,-0.004663
25246,-3.055001,2.224213,-6.677428,-0.022516,0.015188,-0.005862
25261,-3.095703,2.276886,-6.615179,-0.014389,0.003064,-0.008127
25276,-3.160346,2.274492,-6.622362,0.006528,0.000933,-0.012923
25291,-3.179500,2.202666,-6.624756,0.010658,-0.000533,-0.018386
25306,-3.177106,2.080561,-6.603208,0.001732,0.008793,-0.017986
25321,-3.241749,1.982399,-6.624756,-0.019585,0.022516,-0.000400
25336,-3.229778,1.917755,-6.720524,-0.059155,0.033841,0.019718
25351,-3.083732,2.126051,-6.605602,-0.080472,0.045432,0.023715
25366,-3.057395,2.260126,-6.660669,-0.079806,0.033974,0.020917
25381,-3.076549,2.276886,-6.600814,-0.071545,0.022516,0.016654
25396,-3.107674,2.315193,-6.718130,-0.055691,0.017054,0.017986
25411,-3.138798,2.257732,-6.607996,-0.053559,0.024781,0.014123
25426,-3.119645,2.308010,-6.598420,-0.054758,0.017187,0.017587
25441,-3.114856,2.296039,-6.651092,-0.046498,0.004130,0.010658
25456,-3.201048,2.372654,-6.567295,-0.023449,0.018652,0.002132
25471,-3.086126,2.367865,-6.560112,-0.007061,0.006928,-0.007461
25486,-3.090914,2.339135,-6.567295,0.007061,0.005196,-0.016521
25501,-3.157952,2.205060,-6.598420,0.025181,0.008660,-0.021450
25516,-3.320758,2.020706,-6.555324,0.021717,0.009726,-0.018119
25531,-3.189077,1.951274,-6.691793,-0.011991,0.020518,-0.007061
25546,-3.201048,2.056619,-6.667851,-0.041701,0.035440,0.010658
25561,-3.090914,2.094926,-6.598420,-0.060221,0.028778,0.017320
25576,-3.138798,2.145205,-6.706159,-0.069147,0.022383,0.017453
25591,-3.167529,2.173935,-6.648698,-0.071412,0.039303,0.015988
25606,-3.122039,2.310405,-6.713341,-0.064217,0.021850,0.016654
25621,-3.074155,2.394202,-6.603208,-0.049962,0.015721,0.008926
25636,-3.177106,2.252944,-6.572083,-0.047430,0.011325,0.008260
25651,-3.177106,2.308010,-6.631938,-0.044100,0.015322,0.007061
25666,-3.071761,2.365471,-6.569689,-0.029178,0.013323,-0.001998
25681,-3.014300,2.336741,-6.624756,-0.018253,0.005995,-0.000666
25696,-3.167529,2.351106,-6.651092,-0.009726,0.001998,-0.009326
25711,-3.236961,2.207454,-6.689399,0.007594,0.003997,-0.015721
25726,-3.184288,2.202666,-6.586449,0.004663,0.007861,-0.014922
25741,-3.136404,2.149993,-6.658275,-0.000933,0.010792,-0.013456
25756,-3.193865,2.037466,-6.665457,-0.017587,0.030776,-0.007594
25771,-3.198653,1.956063,-6.653486,-0.037838,0.039037,0.002931
25786,-3.196259,2.075773,-6.588843,-0.059155,0.044100,0.020251
25801,-3.090914,2.367865,-6.605602,-0.060087,0.024248,0.015455
25816,-3.050213,2.353500,-6.569689,-0.036239,0.033574,0.004930
25831,-3.251326,2.485181,-6.406884,-0.015721,-0.052093,0.013723
25846,-3.021482,2.149993,-6.629544,-0.059821,0.043700,0.012524
25861,-3.275268,2.255338,-6.701370,-0.052760,0.038237,0.012524
25876,-3.023877,2.312799,-6.488286,-0.035306,-0.012524,0.007594
25891,-3.095703,2.317587,-6.540959,-0.020518,0.003198,-0.005729
25906,-3.143587,2.272097,-6.593631,-0.001066,0.007461,-0.010792
25921,-3.102885,2.276886,-6.739678,0.005462,-0.008527,-0.013323
25936,-3.167529,2.133234,-6.689399,-0.004930,0.014655,-0.009859
25951,-3.246537,2.102109,-6.655880,-0.017587,0.027046,-0.004663
25966,-3.236961,2.123657,-6.528988,-0.019851,0.029044,0.003064
25981,-3.021482,2.224213,-6.667851,-0.025847,0.029178,-0.000799
25996,-3.157952,2.099715,-6.469133,0.008660,0.013057,-0.009859
26011,-2.999935,2.054225,-6.593631,-0.046364,0.001599,0.018386
26026,-3.248932,2.068590,-6.627150,-0.065283,0.053825,0.020251
26041,-3.157952,2.327164,-6.682217,-0.072478,0.017320,0.027046
26056,-3.040636,2.319981,-6.629544,-0.067415,0.008660,0.017986
26071,-3.112462,2.276886,-6.560112,-0.061553,0.020251,0.014256
26086,-3.124433,2.442086,-6.631938,-0.034107,0.009060,0.005063
26101,-3.023877,2.387019,-6.663063,-0.011458,-0.001066,-0.004263
26116,-3.066972,2.303222,-6.588843,-0.000400,0.001199,-0.013723
26131,-3.129222,2.181118,-6.622362,0.007594,-0.003464,-0.014256
26146,-3.229778,2.147599,-6.660669,0.007861,0.003464,-0.011058
26161,-3.196259,2.154782,-6.639121,-0.012657,0.016254,-0.005862
26176,-3.095703,2.135628,-6.514623,-0.020251,0.033041,0.000266
26191,-3.203442,2.094926,-6.634333,-0.029577,0.035972,0.005729
26206,-3.224990,2.027889,-6.550536,-0.049296,0.033175,0.018119
26221,-3.114856,2.090138,-6.653486,-0.065150,0.034507,0.018253
26236,-3.028665,2.346318,-6.588843,-0.073410,0.031309,0.014256
26251,-3.090914,2.255338,-6.548141,-0.068747,0.015322,0.019585
26266,-3.177106,2.229002,-6.619967,-0.072877,0.013456,0.017054
26281,-3.160346,2.298434,-6.610391,-0.058089,0.012657,0.014522
26296,-3.035848,2.288857,-6.667851,-0.046897,0.005063,0.009060
26311,-3.047819,2.358289,-6.725312,-0.033175,0.002398,0.003331
26326,-3.143587,2.425326,-6.718130,-0.021184,0.000400,-0.003331
26341,-3.162740,2.319981,-6.607996,0.003331,0.008127,-0.012391
26356,-3.052607,2.331952,-6.603208,0.029977,-0.002265,-0.019851
26371,-3.107674,2.164358,-6.663063,0.023449,0.006262,-0.021983
26386,-3.248932,2.070984,-6.646304,0.013057,0.020917,-0.015855
26401,-3.251326,1.951274,-6.667851,-0.012923,0.037172,-0.003198
26416,-3.038242,2.070984,-6.572083,-0.043567,0.036239,0.009593
26431,-3.019088,2.087744,-6.732495,-0.056890,0.034240,0.015188
26446,-3.208230,2.212242,-6.679822,-0.071812,0.030910,0.017054
26461,-3.157952,2.288857,-6.639121,-0.058622,0.017320,0.015055
26476,-3.055001,2.305616,-6.572083,-0.043966,0.006795,0.015322
26491,-2.964022,2.384625,-6.619967,-0.041701,0.013190,0.013323
26506,-3.201048,2.298434,-6.684611,-0.022649,0.017853,-0.000666
26521,-3.134010,2.286463,-6.533776,-0.007461,-0.005329,-0.005596
26536,-3.071761,2.255338,-6.581660,0.006662,-0.001466,-0.012391
26551,-3.057395,2.202666,-6.651092,0.005862,0.003331,-0.017986
26566,-3.117250,2.161964,-6.619967,0.013989,-0.007994,-0.015988
26581,-3.347094,1.963245,-6.643909,0.033441,-0.024381,-0.034640
26596,-3.196259,1.953669,-6.605602,-0.019452,0.006795,-0.006795
26611,-2.999935,2.147599,-6.658275,-0.045832,0.035972,0.004930
26626,-2.980781,2.329558,-6.643909,-0.020118,0.071678,-0.007994
26641,-3.294421,1.915361,-6.560112,-0.021983,0.067149,-0.002265
26656,-3.122039,2.197877,-6.488286,-0.012923,-0.043966,0.017054
26671,-2.987964,2.018312,-6.679822,-0.077008,0.036505,0.021051
26686,-3.387795,2.185906,-6.698976,-0.073544,0.058755,0.019718
26701,-3.126827,2.365471,-6.629544,-0.062752,-0.006129,0.020251
26716,-2.980781,2.281674,-6.521805,-0.047297,-0.001865,0.006795
26731,-3.184288,2.250550,-6.655880,-0.026247,0.010126,-0.001199
26746,-3.234566,2.195483,-6.543353,-0.026646,-0.005462,-0.003597
26761,-3.090914,2.157176,-6.629544,-0.037038,0.000799,0.001599
26776,-3.057395,2.212242,-6.581660,-0.037704,0.009992,0.002132
26791,-3.174711,2.240973,-6.694188,-0.026646,0.008127,-0.005596
26806,-3.241749,2.252944,-6.687005,-0.016920,0.013989,-0.007861
26821,-3.141193,2.195483,-6.622362,-0.002665,0.025314,-0.014922
26836,-3.098097,2.193089,-6.624756,-0.007727,0.033041,-0.008127
26851,-3.095703,1.991976,-6.593631,-0.029844,0.023715,0.004397
26866,-3.256114,2.044648,-6.622362,-0.049962,0.035839,0.015721
26881,-3.143587,2.080561,-6.627150,-0.072211,0.026646,0.022649
26896,-3.059790,2.305616,-6.603208,-0.092196,0.023582,0.029444
26911,-2.964022,2.372654,-6.591237,-0.050761,0.005729,0.012923
26926,-3.213019,2.331952,-6.598420,-0.023582,0.010658,-0.000933
26941,-3.160346,2.300828,-6.588843,-0.019985,0.004530,-0.001865
26956,-3.083732,2.255338,-6.641515,-0.019985,0.007594,-0.003331
26971,-3.047819,2.202666,-6.677428,-0.028112,0.004796,-0.000400
26986,-3.165135,2.315193,-6.586449,-0.015322,0.015188,-0.002665
27001,-3.174711,2.308010,-6.679822,0.001332,0.005462,-0.012790
27016,-3.055001,2.202666,-6.655880,0.011191,0.010392,-0.015455
27031,-3.134010,2.173935,-6.780379,0.023315,0.022916,-0.020784
27046,-3.177106,2.097321,-6.648698,0.024115,0.028645,-0.019185
27061,-3.145981,2.030283,-6.596025,0.014256,0.031176,-0.009593
27076,-3.145981,1.965640,-6.581660,-0.018652,0.031975,0.007727
27091,-3.086126,2.080561,-6.722918,-0.045565,0.042101,0.019585
27106,-3.126827,2.075773,-6.658275,-0.060221,0.043034,0.019985
27121,-3.153164,2.303222,-6.562507,-0.046498,-0.000533,0.022250
27136,-2.930503,2.269703,-6.579266,-0.039170,0.017453,0.011858
27151,-3.105279,2.262521,-6.670246,-0.021051,0.026247,-0.001199
27166,-3.177106,2.123657,-6.574478,-0.015855,0.003064,-0.003730
27181,-3.145981,2.042254,-6.732495,-0.036106,0.021583,-0.008127
27196,-3.241749,2.157176,-6.615179,-0.030776,0.015455,-0.004530
27211,-2.956839,2.272097,-6.739678,-0.027179,-0.008660,-0.004530
27226,-3.093308,2.229002,-6.732495,-0.008660,0.006662,-0.014522
27241,-3.260903,2.114080,-6.586449,-0.021717,0.014389,-0.009060
27256,-3.213019,2.063802,-6.672640,-0.028645,0.037172,0.000133
27271,-3.045424,2.109292,-6.641515,-0.048496,0.035972,0.013856
27286,-3.105279,2.056619,-6.672640,-0.059021,0.041035,0.016387
27301,-3.169923,2.092532,-6.572083,-0.061819,0.037305,0.014522
27316,-3.145981,2.130840,-6.627150,-0.065816,0.032642,0.014256
27331,-2.978387,2.145205,-6.677428,-0.070346,0.021317,0.014655
27346,-3.031059,2.226608,-6.572083,-0.078074,0.009726,0.014922
27361,-3.186682,2.300828,-6.689399,-0.045432,0.013323,0.002531
27376,-3.244143,2.250550,-6.663063,-0.052893,0.001466,0.005063
27391,-3.074155,2.267309,-6.727706,-0.054225,0.009326,0.009726
27406,-3.078943,2.310405,-6.603208,-0.047430,0.005329,0.008527
27421,-3.150769,2.315193,-6.502652,-0.022250,0.005196,-0.005729
27436,-3.129222,2.406173,-6.612785,0.004530,0.005862,-0.010259
27451,-3.105279,2.281674,-6.636727,0.024248,0.009459,-0.019718
27466,-3.114856,2.145205,-6.596025,0.036639,0.022783,-0.022916
27481,-3.265691,1.958457,-6.641515,0.018652,0.040236,-0.016121
27496,-3.253720,1.886631,-6.651092,-0.015721,0.034374,0.005329
27511,-3.100491,1.877054,-6.624756,-0.061686,0.046764,0.027179
27526,-3.066972,2.097321,-6.744466,-0.088332,0.041968,0.033441
27541,-3.102885,2.262521,-6.581660,-0.084069,0.039436,0.031443
27556,-3.112462,2.394202,-6.687005,-0.070346,0.032375,0.023848
27571,-3.007117,2.509123,-6.555324,-0.033441,0.017720,0.010259
27586,-3.026271,2.406173,-6.687005,-0.003597,0.007994,-0.008527
27601,-3.153164,2.169147,-6.624756,0.009726,0.003730,-0.015721
27616,-3.179500,2.097321,-6.615179,-0.003864,-0.004663,-0.009459
27631,-3.119645,2.140416,-6.672640,-0.021450,-0.001066,-0.001466
27646,-3.047819,2.221819,-6.562507,-0.035972,0.008793,-0.003597
27661,-3.177106,2.128445,-6.622362,-0.025314,0.015055,-0.003997
27676,-3.246537,2.166753,-6.679822,-0.014389,0.010392,-0.008793
27691,-3.131616,2.130840,-6.576872,-0.014256,0.035839,-0.007861
27706,-3.124433,2.142811,-6.648698,-0.023582,0.031576,-0.004930
27721,-3.093308,1.917755,-6.545747,-0.041835,0.029178,0.012257
27736,-3.203442,2.054225,-6.773197,-0.062219,0.035440,0.021583
27751,-3.155558,2.154782,-6.550536,-0.067415,0.031576,0.019851
27766,-2.978387,2.245761,-6.641515,-0.075542,0.027579,0.019851
27781,-3.066972,2.375048,-6.684611,-0.057023,0.017187,0.012657
27796,-3.150769,2.243367,-6.658275,-0.044100,0.006262,0.008394
27811,-3.110068,2.300828,-6.677428,-0.041835,0.005995,0.006662
27826,-3.059790,2.353500,-6.617573,-0.028378,0.009593,0.001599
27841,-3.059790,2.293645,-6.679822,-0.023982,-0.009326,-0.003730
27856,-3.088520,2.286463,-6.730101,-0.004263,0.002531,-0.009992
27871,-3.100491,2.257732,-6.610391,0.008127,-0.005729,-0.015988
27886,-3.167529,2.178724,-6.643909,0.012391,0.001332,-0.019718
27901,-3.193865,2.070984,-6.617573,0.006528,0.027046,-0.018386
27916,-3.179500,1.960851,-6.612785,-0.034240,0.026513,0.001599
27931,-3.213019,1.936909,-6.605602,-0.056623,0.031309,0.014256
27946,-3.090914,2.121263,-6.612785,-0.081404,0.039303,0.023848
27961,-3.045424,2.221819,-6.646304,-0.087799,0.042368,0.022250
27976,-3.047819,2.207454,-6.679822,-0.086201,0.037438,0.019185
27991,-3.107674,2.281674,-6.655880,-0.094194,0.039037,0.030910
28006,-3.160346,2.583344,-6.545747,-0.061153,0.029044,0.018919
28021,-2.920926,2.564190,-6.641515,-0.012124,0.001998,-0.002531
28036,-3.090914,2.408567,-6.631938,0.016787,0.004530,-0.020917
28051,-3.229778,2.205060,-6.646304,0.029044,-0.014256,-0.025580
28066,-3.160346,2.114080,-6.615179,0.017320,-0.007061,-0.017320
28081,-3.086126,2.169147,-6.624756,0.008127,0.000000,-0.018786
28096,-3.141193,2.063802,-6.550536,-0.005596,0.007461,-0.010792
28111,-3.224990,2.042254,-6.701370,-0.019452,0.016521,-0.008793
28126,-3.153164,2.063802,-6.687005,-0.027446,0.031576,-0.003597
28141,-3.071761,2.082955,-6.615179,-0.043300,0.035706,0.005196
28156,-3.122039,2.070984,-6.576872,-0.055691,0.030243,0.018519
28171,-3.145981,2.097321,-6.555324,-0.065816,0.033574,0.019985
28186,-3.066972,2.197877,-6.569689,-0.073277,0.027312,0.016920
28201,-3.038242,2.171541,-6.598420,-0.080605,0.027046,0.023715
28216,-2.997540,2.317587,-6.596025,-0.074210,0.013856,0.026247
28231,-3.057395,2.499547,-6.639121,-0.044766,0.014655,0.007194
28246,-3.102885,2.458845,-6.555324,-0.021850,0.001998,-0.002398
28261,-3.064578,2.391808,-6.564901,0.002132,-0.004263,-0.011058
28276,-3.047819,2.245761,-6.722918,0.001332,0.000000,-0.009459
28291,-3.126827,2.262521,-6.588843,0.009060,0.004263,-0.013323
28306,-3.191471,2.197877,-6.663063,0.009859,0.001998,-0.016254
28321,-3.131616,2.185906,-6.691793,0.008926,0.008127,-0.019319
28336,-3.086126,2.104503,-6.612785,0.001466,0.025847,-0.012923
28351,-3.198653,1.980005,-6.708553,-0.007461,0.023982,-0.007328
28366,-3.083732,2.075773,-6.775591,-0.017054,0.068881,-0.003064
28381,-3.191471,1.903390,-6.710947,-0.068747,0.050894,0.013856
28396,-3.009511,2.068590,-6.631938,-0.072478,0.028911,0.016920
28411,-3.129222,2.054225,-6.718130,-0.079806,0.043433,0.016521
28426,-2.966416,2.250550,-6.572083,-0.125371,0.043300,0.039303
28441,-3.234566,2.375048,-6.658275,-0.087000,0.035706,0.017986
28456,-2.999935,2.492364,-6.701370,-0.045565,-0.011591,0.008926
28471,-3.074155,2.379837,-6.655880,-0.021983,0.003997,-0.001732
28486,-3.227384,2.212242,-6.617573,-0.014256,0.012923,-0.006795
28501,-3.090914,2.267309,-6.576872,-0.011991,-0.007594,-0.007594
28516,-3.014300,2.408567,-6.502652,-0.001332,-0.000666,-0.014522
28531,-3.136404,2.243367,-6.694188,0.013989,-0.005329,-0.021184
28546,-3.232172,2.087744,-6.655880,0.019985,0.013190,-0.019185
28561,-3.205836,2.075773,-6.610391,0.004263,0.029711,-0.008260
28576,-3.105279,1.999158,-6.660669,-0.029311,0.030377,0.007461
