T,AX,AY,AZ,GX,GY,GZ
46,-5.968745,-0.086191,-5.085284,0.053159,-0.015721,-0.034773
61,-5.968745,-0.083797,-5.025429,0.044100,-0.014789,-0.055025
76,-6.145916,-0.608127,-5.008670,-0.003597,-0.005596,-0.027312
91,-6.150704,-0.775721,-4.905719,-0.074476,0.026779,0.019452
106,-6.098032,-0.799663,-4.905719,-0.175066,0.061020,0.089132
121,-6.098032,-0.914585,-4.814740,-0.296972,0.107251,0.166672
136,-6.205770,-0.713472,-5.178658,-0.376778,0.142557,0.239816
151,-6.169858,-0.272939,-5.303157,-0.392233,0.144289,0.269394
166,-6.052542,-0.045490,-5.109226,-0.384905,0.151084,0.273790
181,-6.023811,-0.227449,-5.123591,-0.433401,0.137361,0.300969
196,-6.663063,-0.878672,-4.862624,-0.511741,0.183992,0.365986
211,-6.224924,-1.666364,-4.783615,-0.841755,0.340672,0.603138
226,-6.301539,-1.470040,-5.291186,-1.194152,0.394631,0.861473
241,-6.847417,-1.055843,-4.711789,-1.539487,0.547980,1.142325
256,-4.936844,2.300828,-5.458780,-1.593845,0.321887,1.123539
271,-5.595249,3.821146,-5.647922,-1.291011,0.089931,0.866270
286,-5.293580,2.961627,-5.252879,-1.001233,-0.045032,0.728642
301,-5.226542,2.231396,-5.140351,-0.870933,-0.087000,0.738101
316,-5.638345,2.662352,-4.941632,-0.689738,-0.175998,0.603005
331,-5.856217,1.482011,-5.013458,-0.584219,-0.085534,0.574227
346,-6.418855,1.948880,-5.018247,-0.554775,-0.030510,0.549579
361,-5.669469,1.977611,-5.102044,-0.624588,0.055291,0.582087
376,-6.342240,2.504335,-5.118803,-0.622190,0.006928,0.550378
391,-6.045359,3.224990,-5.025429,-0.468708,0.055957,0.488159
406,-5.525817,2.940080,-4.874595,-0.350665,0.170270,0.380908
421,-5.118803,2.791639,-4.884171,-0.309096,0.257403,0.368251
436,-4.944026,2.499547,-5.530606,-0.269926,0.254205,0.341472
451,-6.062119,2.351106,-5.252879,-0.247544,0.192519,0.269394
466,-5.573701,3.081337,-4.999093,-0.147087,0.238484,0.109250
481,-5.202600,3.019088,-5.054160,-0.093129,0.330946,0.037438
496,-4.388572,2.796427,-5.188235,-0.017320,0.380242,-0.022649
511,-5.008670,2.516306,-5.674258,-0.021717,0.311095,-0.091530
526,-4.673481,2.549825,-5.734113,0.002798,0.193319,-0.096593
541,-4.252102,2.566584,-5.846641,0.067015,0.159345,-0.170536
556,-4.929661,2.839523,-5.736507,0.140559,0.132299,-0.238084
571,-4.228160,2.130840,-6.047753,0.098724,-0.016521,-0.146821
586,-4.793192,2.772485,-5.645527,0.189988,0.042501,-0.144423
601,-4.527435,2.446874,-5.312734,0.210772,-0.032508,-0.164541
616,-4.929661,2.140416,-5.633556,0.273391,-0.067415,-0.185858
631,-5.078102,2.595315,-5.695806,0.174000,-0.200113,-0.122440
646,-5.085284,2.676718,-5.157110,0.284449,-0.099391,-0.234087
661,-5.525817,2.930503,-5.374983,0.293375,-0.189855,-0.290444
676,-5.343858,2.171541,-5.554548,0.323352,-0.122306,-0.319489
691,-5.659893,1.620875,-5.245696,0.276588,-0.090997,-0.292576
706,-6.062119,1.697489,-5.216965,0.252740,-0.073011,-0.252740
721,-5.513846,1.532289,-5.293580,0.199847,-0.099257,-0.195583
736,-5.473145,1.934515,-5.458780,0.211038,-0.081138,-0.199447
751,-5.456386,2.159570,-5.403713,0.251141,-0.071812,-0.219565
766,-5.564125,2.121263,-5.240908,0.314692,-0.102455,-0.247810
781,-5.003881,2.276886,-5.482722,0.357992,-0.145888,-0.294708
796,-5.121197,2.640805,-5.197812,0.479233,-0.111515,-0.421144
811,-5.702988,2.377442,-5.367800,0.588882,-0.105786,-0.536655
826,-5.705382,2.090138,-5.288792,0.679879,-0.170802,-0.618060
841,-5.645527,1.745373,-5.224148,0.758619,-0.207841,-0.667355
856,-5.453991,1.642422,-5.176264,0.813776,-0.219832,-0.676415
871,-5.485116,1.328782,-4.941632,0.840023,-0.231289,-0.648170
886,-6.086061,0.514753,-5.442020,0.830430,-0.319888,-0.640709
901,-5.961562,0.543484,-5.190629,0.746628,-0.304700,-0.537055
916,-5.786786,0.581791,-5.027823,0.683476,-0.266862,-0.460980
931,-6.236896,0.011971,-5.106832,0.646838,-0.226493,-0.462979
946,-6.308722,-0.390255,-5.030218,0.589015,-0.217300,-0.362789
961,-6.129156,-0.646434,-5.068525,0.531859,-0.175732,-0.261400
976,-6.227318,-0.253785,-5.102044,0.498818,-0.158545,-0.227959
991,-6.028600,0.330400,-4.955997,0.504280,-0.144289,-0.216501
1006,-6.133945,0.021548,-4.876989,0.474969,-0.081005,-0.274989
1021,-6.090849,0.148441,-4.960786,0.514805,-0.166139,-0.327083
1036,-6.742072,-0.390255,-5.147533,0.486694,-0.157080,-0.338141
1051,-5.865794,-0.402226,-4.680664,0.433135,-0.134564,-0.347867
1066,-6.543353,-0.955286,-5.066131,0.328548,-0.118443,-0.276055
1081,-6.268020,-1.015141,-5.011064,0.263665,-0.102588,-0.205576
1096,-6.100426,-1.113304,-5.097255,0.188789,-0.076741,-0.134031
1111,-6.272809,-0.945710,-4.917690,0.121640,-0.040769,-0.079406
1126,-6.260838,-0.746991,-5.099649,0.083003,-0.000400,-0.054891
1141,-6.141127,-0.495600,-4.944026,0.065550,0.019585,-0.059688
1156,-6.121974,-0.548272,-5.056554,0.067415,0.014123,-0.055557
1171,-6.112397,-0.725443,-5.075707,0.051028,0.001998,-0.041435
1186,-6.325481,-0.869095,-4.972757,0.033708,0.014922,-0.012391
1201,-6.169858,-0.794875,-4.967968,0.000799,0.005596,0.028778
1216,-6.102820,-0.596156,-5.027823,-0.002798,0.033974,0.051427
1231,-6.196194,-0.474052,-5.161899,0.022383,-0.012657,0.077674
1246,-5.712565,-0.648829,-5.870583,0.102588,-0.088466,0.061686
1261,-6.210559,-0.459687,-5.595249,0.265130,-0.049562,0.017453
1276,-5.700594,0.363919,-5.027823,0.315758,-0.024381,0.044233
1291,-6.543353,-1.213860,-4.718971,0.114179,0.132698,0.094061
1306,-6.136339,-0.603339,-4.742914,0.082470,0.065417,0.097925
1321,-6.296751,-0.742203,-5.037400,-0.027712,0.140159,0.056224
1336,-5.930438,-0.136469,-5.044583,-0.064084,0.059688,0.009992
1351,-6.177040,-0.653617,-5.226542,-0.004263,0.067948,-0.038904
1366,-6.155492,-0.895431,-5.092467,0.002398,0.039170,-0.033308
1381,-6.172252,-0.883460,-4.924873,-0.010658,0.047164,-0.006395
1396,-6.062119,-0.778116,-5.140351,-0.021983,0.045032,0.005596
1411,-6.069301,-0.603339,-4.987122,0.026113,0.008793,0.031576
1426,-6.260838,-0.699107,-4.173093,-0.095260,0.110049,0.074476
1441,-7.019799,-0.732626,-4.912902,-0.143757,0.050628,0.106718
1456,-5.968745,-0.893037,-4.838682,-0.164407,0.043833,0.129101
1471,-6.126762,-1.019930,-4.814740,-0.248743,0.101522,0.193319
1486,-6.150704,-1.297657,-4.891354,-0.378377,0.108051,0.296306
1501,-6.318298,-1.565808,-4.876989,-0.495753,0.074210,0.410619
1516,-6.126762,-1.932121,-4.637568,-0.766213,0.075942,0.652167
1531,-7.261614,-2.121263,-4.726154,-1.008561,0.065683,0.838557
1546,-6.830657,-2.750938,-4.762067,-1.303668,0.280319,1.117810
1561,-6.943185,-0.909797,-5.664681,-1.556674,0.418746,1.337242
1576,-6.883330,-0.560243,-4.472369,-1.612631,0.614462,1.321121
1591,-5.109226,2.530671,-4.711789,-1.585851,0.350132,1.256770
1606,-5.942409,2.001553,-5.193023,-1.320455,0.268861,1.112348
1621,-5.418078,1.745373,-4.565742,-1.239583,0.173334,1.139394
1636,-5.549759,1.889025,-5.260061,-1.166972,0.207708,1.187890
1651,-5.082890,3.014300,-5.279215,-0.989775,0.136029,1.098492
1666,-4.795586,3.292027,-5.578490,-0.770876,0.095260,0.885455
1681,-4.903325,3.052607,-5.516241,-0.691737,0.066482,0.748626
1696,-5.173870,3.198653,-5.315128,-0.616461,0.071412,0.610998
1711,-4.886566,3.608062,-4.857835,-0.573028,0.087133,0.457250
1726,-5.564125,2.942474,-5.322310,-0.536789,0.141625,0.372515
1741,-5.307945,2.901772,-5.475539,-0.529328,0.169070,0.339873
1756,-5.279215,3.303998,-5.008670,-0.393032,0.240349,0.261133
1771,-4.709394,3.500323,-5.374983,-0.320288,0.148020,0.199314
1786,-4.967968,3.548207,-5.391742,-0.185325,0.183593,0.106851
1801,-5.439626,3.169923,-4.944026,-0.050495,0.162276,-0.001066
1816,-5.370194,3.361459,-5.085284,0.065949,0.278453,-0.105253
1831,-5.351041,3.145981,-5.133168,0.130567,0.328015,-0.158412
1846,-5.420473,3.114856,-5.513846,0.279119,0.366119,-0.241282
1861,-5.054160,2.746149,-5.669469,0.335210,0.440196,-0.258069
1876,-4.939238,2.861071,-5.559336,0.366519,0.515205,-0.279786
1891,-4.814740,-0.248997,-5.841852,0.263398,0.265130,-0.205043
1906,-3.677494,4.826711,-5.307945,-0.039436,0.159211,-0.050761
1921,-6.126762,2.056619,-5.171475,0.189988,0.054758,-0.251940
1936,-4.718971,2.652776,-5.255273,0.350398,0.158545,-0.312694
1951,-5.125986,2.348712,-5.681440,0.202112,0.108983,-0.204377
1966,-5.312734,1.989582,-5.212177,0.144289,0.079539,-0.147487
1981,-5.446809,1.970428,-5.633556,0.106985,0.124971,-0.116044
1996,-5.363012,1.903390,-5.573701,0.041035,0.052626,-0.051694
2011,-4.987122,1.927332,-5.540183,0.024515,0.154415,-0.028112
2026,-4.922479,1.898602,-5.564125,-0.029444,0.186124,0.015188
2041,-4.948815,2.193089,-5.726930,-0.013723,0.197848,-0.032908
2056,-4.592079,2.403779,-5.683835,0.007061,0.218632,-0.110982
2071,-4.697423,2.099715,-5.861006,0.053426,0.150951,-0.163208
2086,-4.606444,2.217031,-5.607220,0.056890,0.134697,-0.201179
2101,-5.449203,1.539472,-5.499481,-0.012257,0.079539,-0.152283
2116,-5.401319,1.766921,-6.033388,-0.065816,0.122040,-0.061553
2131,-4.829105,2.001553,-5.374983,-0.123505,0.111515,-0.019185
2146,-5.078102,1.980005,-5.633556,-0.094594,0.201179,-0.005596
2161,-5.482722,2.286463,-5.760449,-0.086467,0.209040,-0.001466
2176,-5.556942,2.262521,-5.992687,-0.101256,0.218233,0.041568
2191,-5.272032,1.733402,-5.645527,-0.108583,0.197182,0.062885
2206,-5.248090,2.106897,-5.571307,-0.109916,0.251141,0.087933
2221,-4.750096,2.298434,-5.444415,-0.154282,0.260734,0.141492
2236,-4.757279,3.129222,-5.808333,-0.089265,0.264198,0.041035
2251,-4.065354,3.189077,-5.480328,0.023449,0.146688,-0.108850
2266,-4.510676,2.217031,-5.655104,-0.045698,-0.005862,-0.131899
2281,-4.941632,2.236184,-5.746084,-0.112047,-0.066482,-0.047963
2296,-5.092467,1.944092,-5.497087,-0.188522,-0.050761,0.096726
2311,-5.145139,2.341529,-5.446809,-0.217300,-0.021317,0.131632
2326,-6.318298,2.949656,-4.793192,-0.231822,0.075009,0.116711
2341,-5.303157,3.090914,-4.881777,-0.131632,-0.025714,0.021184
2356,-5.044583,2.645593,-5.590461,-0.134830,-0.154149,0.052493
2371,-4.589684,2.379837,-5.406107,-0.159478,-0.129101,0.000666
2386,-4.762067,2.626439,-5.310339,-0.143090,-0.144956,-0.006129
2401,-5.099649,2.774880,-5.178658,-0.122573,-0.139893,0.015055
2416,-4.431667,1.848324,-5.425261,-0.203711,-0.309629,0.160277
2431,-4.577713,2.595315,-5.284003,-0.185991,-0.344403,0.234354
2446,-5.015852,4.484340,-4.462792,-0.052360,-0.445259,0.195317
2461,-6.184223,4.127604,-5.257667,0.230090,-0.396763,0.021583
2476,-6.088455,2.415750,-5.343858,0.290977,-0.227292,-0.005995
2491,-5.777209,1.905784,-5.379771,0.206242,-0.033308,0.090198
2506,-5.092467,1.218649,-5.671864,0.091130,-0.073544,0.181061
2521,-4.795586,1.276109,-5.786786,-0.019185,-0.115245,0.263132
2536,-4.352659,2.094926,-5.566519,-0.126303,-0.182394,0.303101
2551,-4.326323,2.758120,-5.535394,-0.097525,-0.194384,0.325084
2566,-5.149928,3.026271,-5.102044,0.033974,-0.295640,0.311894
2581,-5.947197,2.272097,-5.626374,0.108051,-0.231156,0.313360
2596,-5.712565,3.533842,-4.841076,0.195051,-0.619659,0.137228
2611,-5.339070,2.920926,-5.588067,0.173734,-0.193718,0.070479
2626,-5.260061,3.126827,-5.540183,0.269260,-0.449655,-0.013723
2641,-5.770026,1.814805,-5.087678,0.265397,-0.364787,-0.020118
2656,-5.856217,2.250550,-5.284003,0.127236,-0.316424,0.011058
2671,-5.530606,2.221819,-4.946421,0.139227,-0.325484,0.038770
2686,-5.755661,3.062184,-5.209783,0.165207,-0.328815,0.027712
2701,-5.798757,2.466028,-5.240908,0.177730,-0.242081,0.083802
2716,-5.564125,2.774880,-4.941632,0.186524,-0.147753,0.108583
2731,-4.730942,1.877054,-8.106767,-0.132965,-0.530394,0.228625
2746,-5.087678,2.121263,-1.912967,0.716384,0.426873,-0.130167
2761,-8.030152,3.586514,-6.758832,0.074876,-0.602472,0.194251
2776,-2.624045,-0.189142,-4.259285,0.120308,-0.279253,0.163208
2791,-7.220912,4.165911,-4.967968,0.367585,-0.013723,-0.021184
2806,-5.635951,1.891419,-5.260061,0.109116,-0.350398,0.171069
2821,-5.808333,2.121263,-4.809951,0.274323,-0.104453,0.097925
2836,-5.793968,2.059013,-4.912902,0.215835,-0.203044,0.172135
2851,-5.453991,3.126827,-5.099649,0.198781,-0.120841,0.099124
2866,-5.700594,1.391031,-5.066131,0.162142,-0.235819,0.086067
2881,-6.208165,2.954445,-4.790798,0.256470,-0.047830,-0.011724
2896,-6.124368,2.011129,-5.039794,0.158945,-0.112047,0.062752
2911,-5.638345,1.489193,-5.178658,0.148819,-0.074077,0.064617
2926,-5.992687,1.996764,-4.946421,0.057956,0.041435,0.094861
2941,-5.908890,1.841141,-5.164293,0.048629,-0.119109,0.091663
2956,-5.817910,2.477999,-5.085284,0.060087,0.051294,0.055557
2971,-5.808333,1.628057,-5.164293,0.021184,-0.048096,0.079273
2986,-5.499481,2.291251,-5.166687,0.020917,-0.000666,0.033708
3001,-5.691017,2.296039,-4.817134,0.060087,-0.021850,-0.006528
3016,-6.007052,2.164358,-4.879383,0.061953,-0.104453,0.002132
3031,-5.722142,2.255338,-5.035006,0.043034,-0.034507,0.010525
3046,-5.817910,1.776498,-5.243302,0.040236,-0.079273,0.020384
3061,-5.892130,1.903390,-5.051765,0.009859,-0.042368,0.045299
3076,-5.784391,2.224213,-5.035006,-0.031043,-0.014922,0.051560
3091,-5.717353,2.434903,-5.159504,-0.003730,-0.021184,-0.014655
3106,-5.913678,1.881842,-5.018247,-0.012391,0.009326,-0.039836
3121,-6.196194,1.297657,-5.039794,-0.067415,0.065283,-0.008926
3136,-6.011840,1.537077,-4.953603,-0.158945,0.076475,0.049296
3151,-5.839458,2.109292,-4.963180,-0.178397,0.123639,0.053292
3166,-5.765238,1.874660,-5.061342,-0.165740,0.109516,0.042634
3181,-5.755661,2.552219,-4.817134,-0.171202,0.141492,0.027046
3196,-5.825093,2.449268,-4.982334,-0.122040,0.134031,-0.005329
3211,-5.731719,2.138022,-4.951209,-0.122306,0.151884,-0.007061
3226,-5.497087,2.257732,-4.953603,-0.129900,0.140825,0.001199
3241,-5.585672,2.566584,-5.066131,-0.096726,0.092596,-0.014655
3256,-5.573701,2.592920,-5.087678,-0.081271,0.086600,-0.034240
3271,-5.542577,2.667141,-5.135562,-0.033708,0.032642,-0.069014
3286,-5.327099,2.525883,-5.504270,0.059288,0.002531,-0.111115
3301,-5.494693,2.298434,-5.149928,0.091263,0.037571,-0.127902
3316,-5.635951,2.774880,-5.109226,0.154948,0.024914,-0.190121
3331,-5.655104,2.528277,-5.035006,0.172401,-0.008926,-0.232489
3346,-5.554548,2.121263,-5.216965,0.208107,-0.003064,-0.228225
3361,-6.289568,1.084573,-4.987122,0.101922,0.112580,-0.227825
3376,-5.640739,1.987187,-5.049371,0.011991,0.153749,-0.215701
3391,-5.779603,2.020706,-5.324705,0.039037,0.122440,-0.239017
3406,-5.892130,1.400608,-5.013458,0.013723,0.122173,-0.223296
3421,-5.609614,1.154005,-5.128380,-0.039570,0.079273,-0.115511
3436,-5.595249,1.244985,-5.224148,-0.090997,0.044632,0.028511
3451,-5.671864,2.030283,-5.463568,0.027579,-0.056357,0.108717
3466,-5.494693,1.786074,-5.418078,0.112847,-0.050894,0.136962
3481,-5.853823,1.460463,-5.080496,0.175066,-0.002931,0.248077
3496,-6.241684,1.386243,-5.066131,0.122972,0.255937,0.359858
3511,-5.760449,1.539472,-5.159504,0.101655,0.254205,0.375046
3526,-5.463568,1.486799,-4.896142,0.079539,0.062752,0.319489
3541,-5.968745,1.704672,-4.920084,-0.023049,-0.008660,0.340939
3556,-5.810728,2.082955,-4.891354,-0.073810,0.027579,0.414882
3571,-5.726930,2.937685,-4.936844,-0.132832,0.107518,0.380642
3586,-5.379771,3.222595,-5.140351,-0.089931,0.113513,0.260334
3601,-5.446809,3.318363,-4.874595,-0.053692,0.016787,0.107917
3616,-5.125986,3.864241,-5.281609,0.022516,0.015588,-0.044499
3631,-5.317522,2.717419,-5.284003,0.182394,-0.061286,-0.155481
3646,-5.645527,1.630451,-5.207388,0.133764,-0.045032,-0.139626
3661,-5.734113,1.367089,-5.425261,0.084602,-0.041701,-0.109916
3676,-5.870583,1.477222,-5.183446,0.018786,-0.008127,-0.073277
3691,-5.770026,1.623269,-5.114015,-0.044233,0.001732,-0.043433
3706,-5.691017,1.786074,-5.176264,-0.070213,0.020118,-0.026513
3721,-5.748478,1.829170,-5.216965,-0.085534,0.029577,-0.010259
3736,-5.681440,1.953669,-5.178658,-0.091796,0.045832,-0.003864
3751,-5.604826,2.138022,-5.267244,-0.086600,0.048096,-0.004663
3766,-5.521029,2.142811,-5.295974,-0.077008,0.059288,-0.010259
3781,-5.533000,2.078167,-5.166687,-0.065683,0.057822,-0.010392
3796,-5.722142,2.037466,-5.125986,-0.061020,0.057689,-0.004397
3811,-5.743690,1.987187,-5.310339,-0.057956,0.048763,0.000933
3826,-5.477933,2.001553,-5.114015,-0.069014,0.034907,0.008926
3841,-5.655104,2.032677,-5.173870,-0.069014,0.023182,0.022649
3856,-5.655104,1.982399,-5.164293,-0.070346,0.020251,0.040369
3871,-5.714959,2.056619,-5.226542,-0.059155,0.014789,0.074743
3886,-5.533000,2.102109,-5.135562,-0.075675,0.034240,0.108317
3901,-5.583278,2.300828,-5.219359,-0.060221,0.022916,0.106185
3916,-5.578490,2.358289,-5.382165,-0.046098,0.041035,0.084602
3931,-5.597643,2.085350,-5.224148,-0.036239,0.043034,0.071678
3946,-5.635951,1.625663,-5.327099,-0.096992,0.023315,0.097525
3961,-5.851429,1.656788,-5.415684,-0.100456,0.077274,0.126836
3976,-5.856217,1.335965,-5.114015,-0.176398,0.094994,0.193185
3991,-5.918467,1.604115,-5.384560,-0.231289,0.114979,0.261266
4006,-5.928043,1.048660,-5.137957,-0.368251,0.175732,0.386770
4021,-5.633556,1.640028,-4.833893,-0.453519,0.184392,0.514006
4036,-5.382165,2.384625,-5.341464,-0.503481,0.196649,0.611931
4051,-5.437232,4.031836,-5.348647,-0.443660,0.187590,0.528795
4066,-4.989516,4.206612,-5.092467,-0.260600,0.157613,0.332945
4081,-4.242526,5.073313,-5.425261,-0.112580,0.042767,0.174000
4096,-5.049371,2.803610,-5.568913,0.149752,-0.068214,0.041835
4111,-5.501875,1.173159,-5.523423,0.001066,-0.047297,0.113779
4126,-5.676652,0.916979,-5.446809,-0.194118,0.060753,0.210505
4141,-5.425261,2.013524,-5.173870,-0.315092,0.123106,0.249675
4156,-5.422867,2.772485,-5.252879,-0.314159,0.135496,0.214236
4171,-5.394136,3.277662,-5.216965,-0.259534,0.180928,0.134164
4186,-4.936844,3.193865,-5.090073,-0.204910,0.181328,0.077674
4201,-4.915296,3.160346,-5.090073,-0.200380,0.148819,0.056357
4216,-5.042189,3.088520,-5.166687,-0.160943,0.180395,0.015322
4231,-4.113238,2.365471,-6.184223,-0.232489,0.183459,0.081271
4246,-5.260061,2.056619,-5.365406,-0.286314,0.095527,0.087799
4261,-5.001487,3.694253,-4.537012,-0.111781,0.078074,-0.017720
4276,-4.570531,2.928109,-4.972757,-0.058089,-0.007461,-0.051560
4291,-5.085284,3.076549,-5.161899,-0.030377,-0.037704,-0.055691
4306,-4.769250,2.894590,-5.061342,0.040236,-0.062352,-0.037971
4321,-4.955997,3.268085,-5.322310,-0.012257,-0.131366,0.004796
4336,-5.477933,3.354276,-5.509058,0.000133,-0.157746,0.010259
4351,-5.542577,3.732560,-5.336676,0.108184,-0.106718,-0.033974
4366,-5.413290,2.966416,-4.999093,0.131233,-0.130433,0.020651
4381,-5.327099,3.572149,-4.881777,0.161476,-0.025714,-0.015721
4396,-5.374983,3.232172,-5.106832,0.217300,-0.106052,-0.063551
4411,-5.336676,3.071761,-5.240908,0.254605,-0.134031,-0.095660
4426,-5.334281,2.372654,-5.238513,0.241815,-0.122972,-0.094061
4441,-5.317522,2.296039,-5.216965,0.163475,-0.132165,-0.049029
4456,-5.427655,2.463634,-5.245696,0.118043,-0.111914,-0.040902
4471,-5.552154,2.561796,-5.178658,0.109783,-0.095660,-0.050095
4486,-5.470751,2.592920,-5.231330,0.077940,-0.090730,-0.036905
4501,-5.391742,2.652776,-5.255273,0.058089,-0.040236,-0.028378
4516,-5.370194,2.470816,-5.233725,0.040236,-0.026380,-0.020118
4531,-5.453991,2.676718,-5.291186,0.028778,-0.014522,-0.008926
4546,-5.374983,2.782062,-5.066131,0.021184,-0.010525,-0.012923
4561,-5.437232,2.633622,-5.216965,0.022516,-0.015188,-0.021184
4576,-5.468357,2.521094,-5.190629,0.014789,-0.017986,-0.002265
4591,-5.616797,2.413355,-5.255273,0.007061,-0.015721,0.012257
4606,-5.571307,2.509123,-5.133168,-0.027845,-0.034773,0.041968
4621,-5.458780,2.770091,-5.209783,-0.009859,-0.007061,0.041968
4636,-5.166687,2.837129,-5.049371,0.020518,-0.007461,0.053292
4651,-5.509058,2.863465,-5.116409,0.055957,-0.063285,0.064217
4666,-5.504270,3.004723,-5.106832,0.117110,-0.037838,0.026779
4681,-5.446809,3.150769,-5.284003,0.156147,-0.077141,-0.030910
4696,-5.638345,2.719813,-5.353435,0.209573,-0.019851,-0.083003
4711,-5.746084,2.801216,-4.788404,0.249942,0.015855,-0.094994
4726,-5.458780,3.296816,-5.080496,0.308830,0.032775,-0.160144
4741,-5.602432,2.477999,-4.934450,0.339340,0.015588,-0.203577
4756,-4.728548,3.411737,-5.647922,0.219565,-0.073677,-0.250608
4771,-5.525817,1.611298,-5.319916,0.349998,0.013590,-0.343603
4786,-5.439626,0.418985,-5.281609,0.108051,-0.013323,-0.183859
4801,-5.803545,0.452504,-5.513846,-0.174933,0.142025,0.002931
4816,-5.315128,2.470816,-5.274426,-0.205709,-0.001199,0.046498
4831,-5.336676,1.900996,-5.501875,-0.268727,0.157213,0.001466
4846,-5.341464,2.054225,-5.224148,-0.322153,0.088199,0.011058
4861,-5.274426,2.691083,-5.087678,-0.297239,0.065283,-0.016521
4876,-4.869806,2.252944,-5.262455,-0.338274,0.036505,-0.010259
4891,-5.257667,2.379837,-5.341464,-0.315625,0.103254,-0.021450
4906,-5.360618,2.916138,-5.164293,-0.222230,0.061953,-0.042101
4921,-5.099649,2.659958,-5.334281,-0.079939,0.223562,-0.136296
4936,-5.717353,3.383007,-5.011064,-0.086067,0.063152,-0.111914
4951,-4.613626,3.021482,-5.437232,0.064484,0.223296,-0.226626
4966,-4.331111,2.401384,-5.774815,0.207574,0.429271,-0.300303
4981,-4.814740,1.733402,-5.051765,-0.007727,0.035040,-0.198648
4996,-4.790798,2.209848,-5.585672,0.090198,0.033308,-0.297905
5011,-5.588067,2.497152,-5.585672,-0.083136,-0.148286,-0.241548
5026,-4.326323,2.894590,-5.887342,-0.030910,-0.131366,-0.270326
5041,-4.752491,2.226608,-5.813122,-0.044632,-0.199714,-0.321753
5056,-7.493851,3.055001,-4.774038,0.376511,-0.083403,-0.529461
5071,-6.976704,4.086902,-3.971981,0.176398,-0.500683,-0.437132
5086,-4.201824,1.826776,-5.312734,0.076208,-0.116444,-0.338008
5101,-4.625597,1.936909,-5.238513,0.077541,0.054358,-0.385838
5116,-7.831434,1.709460,-4.821922,0.172934,-0.409686,-0.258868
5131,-6.244078,1.987187,-5.003881,0.170136,0.117776,-0.133897
5146,-5.142745,1.630451,-4.850653,0.013989,-0.132698,-0.018253
5161,-6.145916,2.217031,-4.786009,0.099790,-0.197982,0.002531
5176,-6.964733,2.549825,-4.532224,0.185991,-0.278853,-0.061686
5191,-6.871359,1.924938,-4.675876,0.171335,-0.096459,-0.087666
5206,-6.687005,1.632846,-4.611232,0.132032,-0.099923,-0.100323
5221,-6.466739,1.467646,-4.714183,0.097659,-0.010925,-0.090331
5236,-6.095637,0.667982,-5.236119,-0.007461,-0.057822,0.016254
5251,-5.889736,0.931344,-5.099649,-0.136162,-0.034374,0.151884
5266,-5.628768,1.841141,-5.046977,-0.185325,-0.093795,0.225694
5281,-5.542577,2.408567,-5.073313,-0.147753,-0.100856,0.255671
5296,-5.662287,2.906561,-4.819528,-0.056224,-0.122573,0.225960
5311,-5.726930,2.817975,-5.173870,0.081538,-0.186657,0.133098
5326,-6.150704,1.707066,-5.094861,0.104187,-0.138560,0.108850
5341,-6.009446,1.242591,-5.058948,0.016654,-0.118975,0.151351
5356,-6.196194,1.635240,-4.977545,-0.004530,-0.120175,0.191320
5371,-6.215347,0.991199,-5.049371,-0.015188,-0.064884,0.255005
5386,-6.289568,0.586579,-5.087678,-0.184259,-0.015455,0.381175
5401,-6.512228,0.560243,-5.295974,-0.275123,0.038637,0.522933
5416,-6.282385,0.320823,-5.085284,-0.443127,0.109250,0.795657
5431,-6.354211,1.592144,-4.994305,-0.473770,0.188655,0.888386
5446,-6.208165,1.656788,-4.819528,-0.522266,0.297505,0.954469
5461,-5.882554,2.911349,-4.917690,-0.505346,0.271792,0.924625
5476,-5.066131,4.465186,-4.857835,-0.466976,0.227825,0.802052
5491,-4.757279,4.558560,-5.075707,-0.351198,0.110449,0.593678
5506,-4.922479,3.473987,-5.116409,-0.301902,0.004397,0.502282
5521,-4.874595,3.440468,-4.967968,-0.245145,0.026247,0.437132
5536,-4.558560,3.550601,-4.888960,-0.175998,-0.037838,0.379043
5551,-4.639963,3.440468,-4.821922,-0.129900,-0.110582,0.294708
5566,-5.147533,2.949656,-5.250484,-0.161343,-0.174400,0.282583
5581,-5.365406,2.813187,-4.924873,-0.161343,-0.115378,0.261933
5596,-5.133168,2.762909,-5.070919,-0.177730,-0.201712,0.254205
5611,-5.451597,2.810793,-5.102044,-0.272858,-0.234753,0.296972
5626,-5.204994,3.100491,-4.587290,-0.265397,-0.229424,0.281384
5641,-5.647922,2.901772,-4.738125,-0.293642,-0.328681,0.344403
5656,-5.406107,3.069366,-4.848258,-0.388502,-0.344136,0.455784
5671,-5.099649,3.150769,-4.623203,-0.355594,-0.450588,0.518003
5686,-5.896919,3.172317,-5.070919,-0.409953,-0.478966,0.606069
5701,-5.351041,3.205836,-4.367024,-0.452720,-0.461113,0.704127
5716,-6.217741,3.995923,-4.704606,-0.388502,-0.500949,0.682144
5731,-5.588067,4.144363,-4.331111,-0.378643,-0.361989,0.627786
5746,-5.535394,4.220977,-4.364630,-0.216634,-0.365986,0.534790
5761,-5.319916,5.063736,-4.601655,-0.181461,-0.236086,0.436732
5776,-5.264850,4.177882,-4.335899,0.048763,-0.242348,0.328681
5791,-5.284003,3.852270,-4.455609,0.134430,-0.181594,0.278187
5806,-5.300763,4.022259,-4.395754,0.319489,-0.215835,0.173467
5821,-5.509058,4.944026,-4.606444,0.429538,-0.245279,0.121507
5836,-5.485116,4.979939,-4.649539,0.685475,-0.210772,-0.007328
5851,-5.791574,4.041412,-4.726154,0.727842,-0.170403,-0.017453
5866,-5.643133,4.151546,-4.350265,0.866270,-0.044766,-0.056357
5881,-5.779603,3.933673,-4.333505,0.909303,0.037172,-0.055025
5896,-5.145139,4.151546,-1.577779,1.514439,0.333211,-0.338141
5911,-8.645462,9.950302,-7.912837,0.780202,0.169204,-0.061953
5926,-4.970363,-0.636858,0.126893,2.163542,0.795257,-0.450855
5941,-6.299145,3.265691,-7.062895,1.307265,-0.222230,0.008127
5956,-3.622427,1.309628,-4.362236,-0.705326,0.246877,0.783533
5971,-6.086061,3.485958,-4.982334,0.603404,-0.648703,0.369717
5986,-6.208165,2.552219,-5.130774,0.523199,-0.043433,0.363322
6001,-5.568913,2.501941,-4.838682,0.265930,-0.119908,0.497485
6016,-5.628768,1.731008,-5.434838,0.213436,-0.084602,0.593012
6031,-5.477933,2.686294,-5.061342,-0.018786,-0.053825,0.675616
6046,-5.274426,2.856282,-4.891354,-0.087533,-0.056224,0.684542
6061,-5.659893,3.136404,-4.766856,-0.142691,-0.068881,0.685475
6076,-5.530606,3.361459,-4.795586,-0.141625,0.116311,0.663758
6091,-5.003881,3.646369,-4.661510,-0.183593,-0.038371,0.611531
6106,-5.233725,4.012682,-4.568137,-0.206775,-0.095260,0.547047
6121,-5.209783,4.340688,-4.575319,-0.187323,-0.123639,0.442461
6136,-5.497087,4.046201,-4.695029,-0.172002,-0.097525,0.384239
6151,-5.142745,3.758897,-4.525041,-0.198248,-0.119642,0.372914
6166,-5.384560,4.161122,-4.438850,-0.245012,-0.125104,0.438997
6181,-5.245696,5.121197,-4.347870,-0.138960,-0.091130,0.408753
6196,-5.202600,6.019023,-4.307169,0.095394,-0.092063,0.298038
6211,-5.183446,5.937620,-4.374207,0.391034,-0.149619,0.118975
6226,-5.382165,5.152322,-4.302381,0.499351,-0.098191,-0.004530
6241,-5.444415,4.733336,-4.194641,0.552510,-0.083802,-0.139093
6256,-5.123591,5.197812,-4.642357,0.610066,-0.031309,-0.231289
6271,-5.219359,4.340688,-4.826711,0.799254,-0.065683,-0.335609
6286,-5.398925,3.090914,-4.553771,0.747028,-0.093528,-0.345602
6301,-5.525817,2.683900,-4.599261,0.663492,-0.025314,-0.304433
6316,-5.540183,2.281674,-4.853047,0.553842,0.061819,-0.241681
6331,-5.542577,2.300828,-5.049371,0.499884,0.091930,-0.211172
6346,-5.621585,2.243367,-5.216965,0.348266,0.101655,-0.152683
6361,-5.571307,2.219425,-5.092467,0.299237,0.153882,-0.144556
6376,-5.475539,2.090138,-5.370194,0.160943,0.119242,-0.081271
6391,-5.849035,2.185906,-5.226542,0.084735,0.086600,-0.038770
6406,-6.021417,2.238579,-5.025429,0.031443,0.170536,-0.030110
6421,-5.674258,2.576161,-4.917690,0.024781,0.141492,-0.039303
6436,-5.621585,2.377442,-5.123591,-0.071145,0.162809,-0.020518
6451,-5.458780,2.643199,-4.927267,-0.153616,0.155348,-0.010126
6466,-5.808333,2.061408,-5.025429,-0.283250,0.147887,0.008527
6481,-5.504270,2.614468,-4.910508,-0.340939,0.186391,0.031709
6496,-5.370194,2.899378,-5.020641,-0.434734,0.213570,0.041835
6511,-5.822699,2.664747,-5.415684,-0.425407,0.230090,0.015188
6526,-5.324705,3.675100,-4.793192,-0.470706,0.316291,-0.064084
6541,-4.910508,4.345476,-4.666299,-0.358525,0.281784,-0.192786
6556,-5.104438,4.084508,-5.073313,-0.349599,0.237418,-0.241548
6571,-4.656722,3.955221,-4.836287,-0.275522,0.139493,-0.302302
6586,-4.951209,3.782839,-5.243302,-0.170802,-0.034240,-0.347067
6601,-5.365406,3.093308,-5.003881,-0.178663,0.015988,-0.339740
6616,-5.276821,2.899378,-5.233725,-0.179196,0.016920,-0.293375
6631,-5.655104,2.291251,-5.525817,-0.160410,0.030377,-0.244879
6646,-5.805939,2.181118,-5.035006,-0.342138,0.097259,-0.153482
6661,-5.410896,4.173093,-5.080496,-0.286047,0.102855,-0.166806
6676,-5.377377,4.431667,-5.137957,-0.050628,0.114179,-0.289911
6691,-5.523423,3.323152,-4.939238,0.024914,0.154015,-0.387037
6706,-5.114015,2.647987,-4.793192,0.025980,0.091263,-0.357593
6721,-5.942409,2.573767,-5.080496,-0.087933,0.065683,-0.257136
6736,-5.427655,2.966416,-5.109226,-0.055824,0.154015,-0.254205
6751,-5.209783,2.446874,-5.109226,-0.187723,0.220498,-0.246877
6766,-5.310339,2.806004,-5.073313,-0.227292,0.177597,-0.239017
6781,-5.085284,3.050213,-5.159504,-0.235553,0.290844,-0.245812
6796,-5.070919,2.499547,-5.310339,-0.262466,0.225560,-0.220897
6811,-4.900931,2.437297,-5.188235,-0.301236,0.256603,-0.187456
6826,-5.063736,2.810793,-5.149928,-0.289645,0.204243,-0.164274
6841,-5.054160,2.676718,-5.023035,-0.302168,0.210239,-0.131100
6856,-4.908113,3.078943,-5.035006,-0.268994,0.185458,-0.130833
6871,-5.042189,3.655946,-5.149928,-0.224228,0.235153,-0.158279
6886,-5.233725,3.244143,-5.056554,-0.130300,0.216368,-0.182260
6901,-5.106832,3.335123,-5.073313,-0.052626,0.182394,-0.196783
6916,-5.114015,3.380613,-5.133168,-0.062352,0.276055,-0.182926
6931,-4.888960,3.588908,-5.137957,-0.032242,0.272591,-0.178130
6946,-5.054160,3.641581,-5.097255,0.061686,0.272058,-0.206775
6961,-4.817134,2.916138,-5.159504,-0.002798,0.174400,-0.180528
6976,-4.041412,3.859453,-5.054160,-0.222363,0.107651,-0.108583
6991,-5.434838,3.280056,-5.420473,0.050095,-0.173201,-0.229557
7006,-5.025429,3.792415,-5.389348,0.251407,0.182926,-0.381441
7021,-5.398925,2.564190,-5.463568,0.238351,-0.155881,-0.348133
7036,-5.657498,2.262521,-5.576096,0.229424,0.018253,-0.324951
7051,-5.377377,2.044648,-5.183446,0.102455,0.058888,-0.239683
7066,-5.250484,2.485181,-5.372589,0.045432,0.053159,-0.160943
7081,-5.506664,2.492364,-5.207388,0.035839,0.080605,-0.129368
7096,-5.741296,2.477999,-5.169081,-0.002265,0.120175,-0.083936
7111,-5.518635,2.588132,-4.915296,-0.084602,0.154415,-0.019452
7126,-5.348647,2.971204,-5.243302,-0.098858,0.140159,-0.031576
7141,-5.580884,3.406949,-4.809951,-0.152017,0.257936,-0.028378
7156,-5.288792,4.481946,-4.390966,-0.118443,0.254738,-0.073277
7171,-4.582502,3.754108,-5.568913,0.072478,0.160677,-0.174799
7186,-4.896142,3.205836,-5.159504,0.068081,0.079539,-0.130433
7201,-6.473921,1.651999,-5.477933,-0.010525,0.159478,-0.044499
7216,-7.218518,2.454057,-4.613626,-0.061420,0.256204,0.020917
7231,-3.605668,3.924097,-5.422867,-0.038237,0.177597,0.049429
7246,-6.426037,3.045424,-5.128380,-0.002398,0.393432,-0.034374
7261,-5.537788,2.801216,-5.066131,-0.096859,0.306299,0.050894
7276,-5.078102,3.483563,-5.087678,-0.099257,0.386104,0.092063
7291,-4.874595,3.112462,-5.224148,-0.072211,0.238351,0.070746
7306,-5.149928,3.722984,-4.934450,-0.065283,0.478034,0.009726
7321,-5.284003,3.107674,-5.147533,-0.048096,0.373580,-0.085002
7336,-4.757279,3.363853,-5.142745,0.008793,0.364387,-0.075276
7351,-4.328717,3.339911,-5.573701,0.159345,0.179862,-0.197848
7366,-5.085284,2.430115,-5.425261,0.056490,0.142158,-0.142557
7381,-4.551377,2.738967,-5.379771,0.022916,0.169603,-0.072211
7396,-4.580108,2.803610,-5.439626,-0.060354,0.120041,-0.008527
7411,-4.647145,2.327164,-5.544971,-0.148953,0.194118,0.040636
7426,-3.782839,2.918532,-5.307945,-0.076608,-0.000799,-0.056757
7441,-5.109226,2.092532,-6.277597,-0.088332,0.163208,-0.121640
7456,-4.481946,2.375048,-6.177040,-0.086201,0.073144,-0.181994
7471,-4.776433,1.592144,-5.956774,-0.123772,0.173067,-0.210639
7486,-3.995923,1.654393,-6.191405,-0.125637,0.177464,-0.230224
7501,-3.845088,1.470040,-6.325481,-0.120974,0.076208,-0.220364
7516,-3.579331,1.632846,-6.347029,-0.108184,0.026913,-0.185458
7531,-3.485958,1.323994,-6.481104,-0.159611,-0.024515,-0.098591
7546,-3.567360,1.812411,-6.560112,-0.149485,-0.114312,-0.023582
7561,-3.667917,2.015918,-6.464345,-0.166806,-0.128035,0.069147
7576,-3.469198,2.834735,-6.404490,-0.150285,-0.275123,0.115645
7591,-3.009511,2.509123,-6.416461,-0.115911,-0.240749,0.102855
7606,-3.864241,3.292027,-6.442797,0.021450,-0.312161,-0.031443
7621,-4.352659,3.160346,-5.422867,0.164541,-0.302168,-0.165873
7636,-4.376601,2.911349,-5.449203,0.158412,-0.319489,-0.189855
7651,-4.936844,2.892196,-5.743690,0.192119,-0.326550,-0.220098
7666,-5.003881,2.415750,-5.671864,0.201312,-0.305499,-0.241015
7681,-5.286397,2.152387,-5.549759,0.137628,-0.283916,-0.206508
7696,-5.171475,2.039860,-5.700594,0.069014,-0.244213,-0.175199
7711,-5.147533,1.891419,-5.731719,0.013057,-0.225294,-0.161610
7726,-5.054160,2.109292,-5.681440,-0.057822,-0.203311,-0.148286
7741,-5.209783,2.133234,-5.726930,-0.127369,-0.161343,-0.116178
7756,-5.353435,2.238579,-5.635951,-0.168404,-0.087266,-0.109516
7771,-5.164293,2.439692,-5.604826,-0.186257,-0.073810,-0.112181
7786,-5.094861,2.588132,-5.533000,-0.174533,-0.037838,-0.116577
7801,-5.216965,2.645593,-5.537788,-0.145355,0.001466,-0.110449
7816,-5.267244,2.913743,-5.463568,-0.116711,0.028778,-0.103787
7831,-5.018247,2.600103,-5.549759,-0.106985,0.036772,-0.080205
7846,-5.082890,2.679112,-5.319916,-0.090730,0.044233,-0.055957
7861,-5.164293,2.755726,-5.544971,-0.065150,0.043966,-0.016121
7876,-5.240908,2.652776,-5.458780,-0.057689,0.043167,0.020917
7891,-5.070919,2.655170,-5.389348,-0.048363,0.063152,0.061020
7906,-4.826711,2.851494,-5.523423,-0.024515,0.023449,0.033175
7921,-4.845864,2.789245,-5.485116,0.028112,-0.044766,-0.006395
7936,-4.975151,2.798822,-5.511452,0.054625,-0.055025,-0.029311
7951,-4.917690,2.870648,-5.363012,0.113513,-0.112314,-0.063551
7966,-5.066131,2.691083,-5.453991,0.159345,-0.116044,-0.077940
7981,-5.056554,2.530671,-5.669469,0.199980,-0.115245,-0.081937
7996,-5.267244,2.308010,-5.511452,0.212371,-0.109916,-0.062352
8011,-5.190629,2.274492,-5.501875,0.195317,-0.057156,-0.023182
8026,-5.219359,2.075773,-5.391742,0.156813,-0.062485,0.030510
8041,-5.303157,2.367865,-5.489904,0.110848,-0.013057,0.062752
8056,-5.267244,2.437297,-5.473145,0.063951,0.012524,0.074210
8071,-4.958392,2.616862,-5.609614,0.112447,-0.006795,0.031709
8086,-5.027823,2.133234,-5.612009,0.091530,-0.020917,0.031309
8101,-5.128380,2.157176,-5.638345,0.123772,-0.031842,-0.013190
8116,-5.382165,2.001553,-5.473145,0.062086,0.000266,0.000533
8131,-5.118803,2.205060,-5.619191,0.058622,-0.007861,-0.000133
8146,-5.130774,1.786074,-5.597643,-0.026913,0.033041,0.063418
8161,-4.963180,2.061408,-5.650316,-0.070346,0.052493,0.087400
8176,-4.977545,2.226608,-5.645527,-0.068214,0.081138,0.100190
8191,-4.922479,2.454057,-5.872977,-0.049962,0.028911,0.077674
8206,-5.051765,2.760514,-5.121197,0.007194,0.035573,0.074343
8221,-5.173870,2.633622,-5.331887,-0.003997,0.037838,0.062885
8236,-5.580884,2.461239,-5.023035,0.034107,0.058888,-0.008527
8251,-5.664681,2.224213,-5.147533,-0.000933,0.049695,-0.020118
8266,-5.303157,2.161964,-5.470751,-0.012923,0.059421,-0.026913
8281,-5.322310,1.448492,-5.734113,-0.109383,0.044632,0.029577
8296,-5.125986,1.841141,-5.501875,-0.148153,0.061153,0.064750
8311,-5.152322,2.463634,-5.485116,-0.127636,0.080472,0.054625
8326,-4.967968,2.592920,-5.432444,-0.082603,0.053026,0.041035
8341,-4.996699,2.504335,-5.406107,-0.053159,0.055291,0.020784
8356,-5.128380,2.336741,-5.415684,-0.027446,0.018919,0.010392
8371,-5.066131,2.451663,-5.513846,-0.013989,0.018386,0.003997
8386,-4.860229,2.276886,-5.518635,-0.030377,-0.017986,0.012257
8401,-5.025429,2.446874,-5.513846,-0.003198,-0.019185,0.003331
8416,-5.130774,2.319981,-5.537788,0.011591,-0.029178,0.001732
8431,-5.195417,2.410961,-5.418078,0.011991,-0.037704,0.008527
8446,-5.027823,2.518700,-5.585672,0.031975,-0.031576,0.006395
8461,-5.087678,2.308010,-5.533000,0.041302,-0.025980,0.009459
8476,-5.176264,2.207454,-5.592855,0.035306,-0.010259,0.010259
8491,-5.255273,2.116474,-5.449203,0.028378,-0.004263,0.006395
8506,-5.245696,2.250550,-5.561730,0.006795,0.016387,0.011724
8521,-5.128380,2.001553,-5.499481,-0.035573,0.007328,0.033308
8536,-5.181052,2.183512,-5.497087,-0.048763,0.027579,0.038637
8551,-5.202600,2.082955,-5.489904,-0.033708,0.026113,0.037571
8566,-5.106832,2.173935,-5.552154,-0.074609,0.026247,0.061819
8581,-4.984728,2.439692,-5.473145,-0.062485,0.024381,0.046098
8596,-5.118803,2.293645,-5.535394,-0.065816,0.028911,0.031576
8611,-5.164293,2.470816,-5.367800,-0.075542,0.023848,0.011858
8626,-5.085284,2.401384,-5.494693,-0.054358,0.031176,-0.030910
8641,-5.178658,2.104503,-5.494693,-0.079273,0.030243,-0.032242
8656,-5.274426,2.011129,-5.595249,-0.122706,0.054225,-0.015721
8671,-5.209783,2.106897,-5.518635,-0.148819,0.059421,-0.001066
8686,-5.123591,2.372654,-5.487510,-0.154681,0.058222,0.007194
8701,-5.037400,2.355894,-5.482722,-0.164807,0.049828,0.024648
8716,-5.078102,2.408567,-5.384560,-0.150152,0.061553,0.054092
8731,-5.152322,2.638410,-5.497087,-0.121507,0.053825,0.041568
8746,-4.970363,2.758120,-5.492299,-0.078207,-0.004796,0.016121
8761,-5.006276,2.710236,-5.425261,-0.056623,0.004663,0.011858
8776,-5.063736,2.619257,-5.461174,-0.027712,-0.009060,-0.003864
8791,-5.219359,2.418144,-5.489904,-0.021184,0.003730,-0.001998
8806,-5.142745,2.363077,-5.509058,-0.023582,0.001732,0.011991
8821,-5.039794,2.430115,-5.432444,-0.029711,0.003597,0.025847
8836,-5.044583,2.585738,-5.494693,-0.022250,0.009593,0.022649
8851,-5.111620,2.571373,-5.521029,0.003597,-0.007194,0.010658
8866,-5.070919,2.545036,-5.434838,0.015322,-0.007994,-0.004796
8881,-4.975151,2.619257,-5.456386,0.028112,-0.011591,-0.020384
8896,-5.087678,2.442086,-5.540183,0.039570,-0.022916,-0.039836
8911,-5.149928,2.358289,-5.449203,0.047297,-0.040902,-0.045698
8926,-5.087678,2.401384,-5.489904,0.052760,-0.061420,-0.038904
8941,-5.001487,2.501941,-5.470751,0.073943,-0.076208,-0.036106
8956,-5.058948,2.750938,-5.408502,0.151217,-0.079139,-0.056357
8971,-5.233725,2.387019,-5.509058,0.140959,-0.077407,-0.033175
8986,-5.097255,2.636016,-5.430049,0.177864,-0.064084,-0.044632
9001,-5.037400,2.607285,-5.432444,0.218366,-0.069413,-0.061286
9016,-5.102044,2.221819,-5.430049,0.219165,-0.091397,-0.052626
9031,-5.487510,2.070984,-5.549759,0.207041,-0.083536,-0.045032
9046,-5.396531,1.975216,-5.485116,0.164008,-0.051560,-0.025181
9061,-5.327099,1.900996,-5.487510,0.121107,-0.020118,-0.011058
9076,-5.288792,1.798045,-5.439626,0.057423,0.015988,0.010792
9091,-5.430049,1.862689,-5.451597,0.002531,0.049562,0.012524
9106,-5.288792,1.857901,-5.477933,-0.040103,0.062885,0.003331
9121,-5.193023,1.745373,-5.430049,-0.100323,0.065150,0.004530
9136,-5.343858,1.558625,-5.453991,-0.181994,0.081671,0.021051
9151,-5.331887,1.642422,-5.540183,-0.260201,0.098991,0.046498
9166,-5.322310,1.948880,-5.626374,-0.299104,0.110715,0.059155
9181,-5.157110,2.401384,-5.556942,-0.287913,0.107118,0.072345
9196,-5.054160,2.554613,-5.552154,-0.245545,0.114712,0.074343
9211,-5.080496,2.885013,-5.444415,-0.189055,0.092329,0.065283
9226,-5.006276,2.856282,-5.384560,-0.120974,0.074609,0.034507
9241,-4.917690,2.868254,-5.389348,-0.049429,0.067282,-0.016920
9256,-4.991910,2.463634,-5.468357,-0.020118,0.036372,-0.044499
9271,-5.147533,2.138022,-5.580884,-0.018652,0.007594,-0.049029
9286,-5.154716,2.343923,-5.564125,-0.019718,-0.031309,-0.039170
9301,-4.948815,2.671929,-5.451597,0.010925,-0.073277,-0.036905
9316,-4.888960,2.779668,-5.470751,0.082070,-0.101922,-0.063685
9331,-5.025429,2.691083,-5.420473,0.154282,-0.146021,-0.082337
9346,-5.145139,2.489970,-5.331887,0.215302,-0.156946,-0.079273
9361,-5.149928,2.403779,-5.480328,0.251807,-0.162009,-0.066482
9376,-5.116409,2.609680,-5.272032,0.286181,-0.144556,-0.063152
9391,-5.327099,2.035071,-5.580884,0.300969,-0.166539,-0.061553
9406,-5.288792,2.018312,-5.530606,0.298571,-0.152150,-0.068348
9421,-5.324705,1.757344,-5.420473,0.265397,-0.139760,-0.069147
9436,-5.391742,1.716643,-5.504270,0.224894,-0.133364,-0.072611
9451,-5.463568,1.661576,-5.418078,0.173067,-0.099524,-0.079406
9466,-5.623980,1.635240,-5.372589,0.133364,-0.096326,-0.080472
9481,-5.477933,1.613692,-5.461174,0.088998,-0.064884,-0.061819
9496,-5.463568,1.584962,-5.425261,0.046897,-0.035306,-0.043300
9511,-5.561730,1.546654,-5.477933,-0.028245,-0.002265,-0.028245
9526,-5.614403,1.527501,-5.394136,-0.090730,0.031975,-0.005862
9541,-5.506664,1.606509,-5.489904,-0.142424,0.073810,0.008527
9556,-5.444415,1.592144,-5.396531,-0.197582,0.101256,0.029044
9571,-5.463568,1.790863,-5.465962,-0.237285,0.119775,0.036772
9586,-5.430049,1.994370,-5.442020,-0.243014,0.140159,0.026247
9601,-5.233725,2.214637,-5.427655,-0.231556,0.133897,0.010259
9616,-5.262455,2.135628,-5.406107,-0.205576,0.120574,-0.003064
9631,-5.346252,2.051831,-5.442020,-0.186391,0.107118,0.003864
9646,-5.406107,2.037466,-5.331887,-0.175998,0.100456,0.011325
9661,-5.181052,2.130840,-5.401319,-0.175199,0.094061,0.029577
9676,-5.221754,2.183512,-5.544971,-0.160810,0.089398,0.046231
9691,-5.181052,2.164358,-5.446809,-0.151217,0.084868,0.059288
9706,-5.365406,2.166753,-5.425261,-0.138427,0.075942,0.064884
9721,-5.202600,2.312799,-5.432444,-0.126037,0.081671,0.058355
9736,-5.111620,2.303222,-5.403713,-0.112580,0.067015,0.046631
9751,-5.236119,2.128445,-5.401319,-0.111914,0.068214,0.044899
9766,-5.310339,2.212242,-5.547365,-0.114179,0.061020,0.043300
9781,-5.202600,2.315193,-5.434838,-0.098991,0.059155,0.028645
9796,-5.121197,2.339135,-5.442020,-0.101789,0.052227,0.028245
9811,-5.207388,2.382231,-5.449203,-0.086467,0.054891,0.018786
9826,-5.264850,2.205060,-5.401319,-0.081404,0.058755,0.010925
9841,-5.319916,2.078167,-5.377377,-0.093795,0.064617,0.016787
9856,-5.214571,2.092532,-5.602432,-0.097259,0.070213,0.016121
9871,-5.200206,2.030283,-5.432444,-0.126570,0.070613,0.028778
9886,-5.257667,2.188300,-5.523423,-0.138560,0.077940,0.038237
9901,-5.133168,2.298434,-5.592855,-0.138960,0.074476,0.035706
9916,-4.996699,2.391808,-5.386954,-0.136695,0.077674,0.024248
9931,-5.085284,2.578555,-5.403713,-0.093129,0.060087,-0.007328
9946,-5.319916,2.396596,-5.509058,-0.100057,0.056890,0.001466
9961,-5.128380,2.224213,-5.384560,-0.104853,0.074343,0.034374
9976,-5.051765,2.576161,-5.513846,-0.086734,0.064351,0.013989
9991,-5.061342,2.513912,-5.485116,-0.055291,0.015188,-0.004796
10006,-5.114015,2.525883,-5.394136,-0.041435,0.017986,-0.013989
10021,-5.202600,2.367865,-5.303157,-0.021583,-0.000266,-0.018919
10036,-5.130774,2.308010,-5.554548,-0.023582,-0.003331,-0.001466
10051,-5.102044,2.389413,-5.516241,-0.016654,-0.012923,-0.002531
10066,-5.185841,2.422932,-5.430049,-0.011191,-0.012391,-0.002665
10081,-5.164293,2.432509,-5.458780,0.002132,-0.019718,-0.010392
10096,-5.109226,2.430115,-5.343858,0.012524,-0.023582,-0.010658
10111,-5.111620,2.240973,-5.468357,0.013190,-0.025181,0.002132
10126,-5.193023,2.315193,-5.489904,0.016920,-0.028511,0.012391
10141,-5.178658,2.358289,-5.442020,0.023449,-0.033974,0.018919
10156,-5.118803,2.339135,-5.365406,0.027046,-0.035440,0.033441
10171,-5.181052,2.346318,-5.456386,0.037438,-0.031309,0.041835
10186,-5.226542,2.408567,-5.540183,0.046098,-0.031709,0.035573
10201,-5.224148,2.214637,-5.568913,0.076075,-0.026646,0.015988
10216,-5.147533,2.169147,-5.535394,0.060620,-0.034107,0.011325
10231,-5.116409,2.267309,-5.391742,0.056890,-0.037838,-0.002531
10246,-5.269638,2.164358,-5.463568,0.057023,-0.041302,-0.007194
10261,-5.298368,2.106897,-5.461174,0.053026,-0.048496,0.005196
10276,-5.164293,2.195483,-5.465962,0.061553,-0.054891,0.015588
10291,-5.236119,2.339135,-5.444415,0.047830,-0.057689,0.046764
10306,-5.274426,2.315193,-5.480328,0.072877,-0.065150,0.050495
10321,-5.068525,2.391808,-5.439626,0.080338,-0.060221,0.055824
10336,-5.195417,2.485181,-5.403713,0.100590,-0.067015,0.031842
10351,-5.250484,2.346318,-5.437232,0.108983,-0.065816,0.008127
10366,-5.276821,2.291251,-5.463568,0.114312,-0.066216,-0.027179
10381,-5.209783,2.056619,-5.480328,0.115911,-0.061953,-0.054758
10396,-5.255273,1.953669,-5.535394,0.100456,-0.058888,-0.059021
10411,-5.446809,1.893813,-5.451597,0.088066,-0.053559,-0.053825
10426,-5.386954,2.123657,-5.453991,0.078606,-0.047430,-0.046231
10441,-5.286397,2.025495,-5.477933,0.082870,-0.042634,-0.046764
10456,-5.260061,2.243367,-5.401319,0.096060,-0.038637,-0.053426
10471,-5.386954,2.047042,-5.501875,0.101789,-0.045165,-0.059821
10486,-5.363012,2.128445,-5.470751,0.105786,-0.043567,-0.066482
10501,-5.286397,2.037466,-5.367800,0.101389,-0.038637,-0.070613
10516,-5.293580,2.001553,-5.461174,0.100057,-0.035306,-0.070746
10531,-5.379771,1.836353,-5.444415,0.087933,-0.030510,-0.055557
10546,-5.477933,1.960851,-5.401319,0.081404,-0.015588,-0.049562
10561,-5.482722,2.171541,-5.209783,0.149219,-0.022916,-0.074476
10576,-5.384560,1.941698,-5.214571,0.089265,-0.015721,-0.044899
10591,-5.518635,2.099715,-5.307945,0.109649,-0.029844,-0.060487
10606,-5.451597,1.853112,-5.372589,0.077274,-0.029977,-0.050095
10621,-5.475539,1.604115,-5.358223,0.079939,-0.015188,-0.048363
10636,-5.303157,1.877054,-5.592855,0.063018,-0.022116,-0.040502
10651,-5.501875,1.563414,-5.535394,0.065150,-0.010658,-0.050361
10666,-5.453991,1.953669,-5.647922,0.071812,-0.035040,-0.054358
10681,-5.327099,1.630451,-5.379771,0.030910,-0.005196,-0.038637
10696,-5.573701,1.541866,-5.360618,0.030643,0.013856,-0.035573
10711,-5.415684,1.723825,-5.547365,0.018652,-0.001998,-0.035972
10726,-5.470751,1.546654,-5.386954,-0.016920,0.025580,-0.025580
10741,-5.547365,1.345541,-5.626374,-0.012657,0.059288,-0.048230
10756,-5.458780,1.467646,-5.281609,-0.052093,0.100323,-0.035040
10771,-5.394136,1.750161,-5.475539,-0.097659,0.063418,-0.026247
10786,-5.530606,1.520318,-5.571307,-0.136429,0.091397,-0.005729
10801,-5.430049,1.429338,-5.595249,-0.152017,0.087400,0.011058
10816,-5.353435,1.752556,-5.219359,-0.188389,0.110315,0.041701
10831,-5.458780,1.929726,-5.461174,-0.178663,0.104453,0.051161
10846,-5.336676,2.092532,-5.403713,-0.152816,0.089665,0.049296
10861,-5.250484,2.219425,-5.382165,-0.109649,0.070479,0.040369
10876,-5.128380,2.138022,-5.370194,-0.067815,0.049296,0.027046
10891,-5.386954,2.063802,-5.561730,-0.034107,0.040236,0.016254
10906,-5.358223,2.001553,-5.370194,-0.017187,0.015455,0.011191
10921,-5.374983,1.783680,-5.348647,-0.022516,0.045432,0.020784
10936,-5.523423,1.580173,-5.281609,-0.037438,0.025447,0.072744
10951,-5.578490,1.620875,-5.425261,-0.060221,0.024381,0.141758
10966,-5.477933,1.517924,-5.329493,-0.110848,0.041168,0.227026
10981,-5.293580,1.781286,-5.456386,-0.148420,0.008660,0.302968
10996,-5.312734,1.833959,-5.556942,-0.194784,0.031043,0.361323
11011,-5.544971,1.939303,-5.753267,-0.169337,0.096992,0.351064
11026,-5.178658,1.896208,-5.851429,-0.166006,0.100057,0.301502
11041,-5.207388,2.300828,-5.597643,-0.170669,0.122573,0.237285
11056,-5.025429,2.240973,-5.681440,-0.188922,0.141225,0.179862
11071,-5.056554,2.209848,-5.530606,-0.176265,0.141492,0.112447
11086,-5.097255,2.078167,-5.420473,-0.172002,0.112181,0.065417
11101,-5.142745,2.166753,-5.528212,-0.181061,0.095394,0.033308
11116,-5.013458,2.279280,-5.513846,-0.178796,0.078473,0.007994
11131,-5.006276,2.260126,-5.537788,-0.159611,0.057156,-0.005862
11146,-5.178658,2.252944,-5.525817,-0.156413,0.079806,-0.000799
11161,-5.015852,2.398990,-5.633556,-0.142424,0.031176,-0.031443
11176,-5.015852,2.475605,-5.556942,-0.101123,0.009726,-0.042767
11191,-5.154716,2.341529,-5.521029,-0.090997,0.029044,-0.030776
11206,-5.185841,2.303222,-5.420473,-0.060221,0.006928,-0.027845
11221,-5.161899,2.403779,-5.379771,-0.041435,0.010792,-0.010792
11236,-5.030218,2.549825,-5.389348,-0.019452,-0.007994,0.004397
11251,-5.030218,2.676718,-5.444415,0.038104,-0.016387,-0.016254
11266,-5.209783,2.535460,-5.489904,0.079806,-0.047830,-0.032242
11281,-5.075707,2.413355,-5.413290,0.115911,-0.055957,-0.038770
11296,-5.154716,2.303222,-5.530606,0.129101,-0.065949,-0.036239
11311,-5.049371,2.176329,-5.518635,0.142691,-0.096593,-0.043700
11326,-5.178658,2.104503,-5.461174,0.148020,-0.124704,-0.044233
11341,-5.207388,2.377442,-5.197812,0.177198,-0.137761,-0.047830
11356,-5.276821,2.303222,-5.317522,0.193052,-0.141358,-0.026913
11371,-5.104438,1.663970,-5.351041,0.155747,-0.181994,0.046897
11386,-5.592855,2.068590,-5.652710,0.191853,-0.152816,0.041968
11401,-5.453991,2.128445,-5.410896,0.194651,-0.113779,0.046098
11416,-5.281609,1.989582,-5.422867,0.154681,-0.093129,0.056224
11431,-5.238513,2.099715,-5.403713,0.158945,-0.048496,0.011058
11446,-5.420473,1.927332,-5.504270,0.155614,-0.009593,-0.030776
11461,-5.413290,1.750161,-5.422867,0.133364,0.000000,-0.075276
11476,-5.252879,1.805228,-5.504270,0.115645,-0.021717,-0.110449
11491,-5.197812,1.793257,-5.489904,0.101256,-0.032242,-0.125237
11506,-5.358223,2.123657,-5.434838,0.150951,-0.095660,-0.152150
11521,-5.434838,2.183512,-5.276821,0.149752,-0.089665,-0.121907
11536,-5.240908,2.530671,-5.360618,0.256870,-0.139760,-0.126170
11551,-5.240908,2.281674,-5.384560,0.349998,-0.191320,-0.088599
11566,-5.324705,2.284068,-5.353435,0.441395,-0.207041,-0.076741
11581,-5.324705,2.133234,-5.415684,0.450855,-0.267395,-0.091930
11596,-5.348647,1.752556,-5.389348,0.511874,-0.297772,-0.137894
11611,-5.595249,1.529895,-5.377377,0.503348,-0.251274,-0.154149
11626,-5.628768,1.486799,-5.410896,0.546914,-0.221297,-0.165074
11641,-5.585672,1.367089,-5.518635,0.543983,-0.244479,-0.209706
11656,-5.597643,1.082179,-5.260061,0.501482,-0.263798,-0.240216
11671,-5.640739,0.804452,-5.121197,0.497485,-0.282983,-0.229158
11686,-5.987898,0.969652,-5.305551,0.455917,-0.272458,-0.233155
11701,-6.002264,0.833182,-5.195417,0.439663,-0.277920,-0.199580
11716,-5.896919,0.993594,-5.219359,0.451787,-0.214636,-0.185325
11731,-5.841852,0.395043,-5.324705,0.363455,-0.222629,-0.119775
11746,-5.844246,0.488417,-5.238513,0.320421,-0.173600,-0.112580
11761,-5.899313,0.330400,-5.228936,0.300436,-0.165606,-0.107118
11776,-6.014235,0.636858,-5.250484,0.241948,-0.131499,-0.086467
11791,-5.963956,0.383072,-5.279215,0.199047,-0.084335,-0.068747
11806,-6.052542,0.311246,-5.274426,0.108317,-0.040236,-0.062485
11821,-6.035782,0.320823,-5.319916,0.050361,-0.000133,-0.060887
11836,-5.920861,0.617704,-5.250484,-0.015055,0.033175,-0.058622
11851,-5.872977,0.641646,-5.334281,-0.045698,0.027845,-0.063152
11866,-6.007052,0.878672,-5.360618,0.019185,0.022516,-0.119109
11881,-5.896919,0.940921,-5.185841,0.008793,0.014123,-0.123106
11896,-5.846641,0.873884,-5.133168,0.075276,0.019851,-0.155747
11911,-5.844246,0.574608,-5.145139,0.085401,-0.007727,-0.156280
11926,-6.009446,0.359130,-4.967968,0.084735,0.009193,-0.115511
11941,-6.227318,0.088585,-5.001487,0.011458,0.068214,-0.056757
11956,-6.100426,-0.055067,-5.056554,-0.034773,0.072478,-0.020518
11971,-6.167463,-0.095768,-5.195417,-0.132032,0.138827,0.020251
11986,-5.959168,-0.023942,-5.334281,-0.206242,0.186524,0.049828
12001,-6.059724,0.062249,-5.427655,-0.292709,0.223429,0.064084
12016,-5.870583,0.325611,-5.336676,-0.343470,0.251541,0.060887
12031,-5.719748,0.545878,-5.341464,-0.421943,0.278320,0.093262
12046,-5.705382,0.447716,-5.231330,-0.467508,0.300969,0.156680
12061,-5.779603,0.967257,-5.535394,-0.436732,0.280052,0.151617
12076,-5.700594,0.936133,-5.291186,-0.407155,0.197715,0.130966
12091,-5.521029,1.292869,-5.319916,-0.342005,0.210905,0.121240
12106,-5.755661,0.787692,-5.427655,-0.381308,0.219832,0.146021
12121,-5.571307,1.127669,-5.420473,-0.344669,0.219832,0.148686
12136,-5.590461,1.350330,-5.487510,-0.324818,0.206375,0.107651
12151,-5.176264,1.422156,-5.559336,-0.238617,0.134564,0.045032
12166,-5.810728,0.785298,-5.343858,-0.251141,0.126969,0.056090
12181,-5.528212,1.338359,-5.334281,-0.258868,0.181061,0.050628
12196,-5.571307,1.103727,-5.645527,-0.268061,0.148686,0.030643
12211,-5.413290,1.000776,-5.465962,-0.255271,0.143890,0.007727
12226,-5.604826,1.046266,-5.449203,-0.308430,0.109250,0.029977
12241,-5.638345,1.314417,-5.410896,-0.309629,0.190787,0.036639
12256,-5.470751,1.338359,-5.413290,-0.290311,0.150285,0.024781
12271,-5.516241,1.271321,-5.518635,-0.294841,0.146288,0.033041
12286,-5.401319,1.304840,-5.442020,-0.310695,0.157879,0.049429
12301,-5.516241,1.276109,-5.391742,-0.334943,0.172135,0.086067
12316,-5.506664,1.237802,-5.513846,-0.342138,0.198381,0.104853
12331,-5.334281,1.529895,-5.465962,-0.381841,0.221963,0.112980
12346,-5.336676,1.446098,-5.597643,-0.381707,0.204643,0.108051
12361,-5.394136,1.458069,-5.602432,-0.394098,0.209173,0.101256
12376,-5.453991,1.321599,-5.554548,-0.412084,0.222096,0.109116
12391,-5.365406,1.386243,-5.497087,-0.423675,0.191587,0.093262
12406,-4.960786,1.740585,-5.588067,-0.359858,0.177464,0.049429
12421,-5.449203,1.386243,-5.578490,-0.405289,0.103121,0.108317
12436,-5.391742,1.833959,-5.592855,-0.413550,0.160277,0.190787
12451,-5.339070,1.776498,-5.161899,-0.435933,0.132299,0.267662
12466,-5.027823,2.683900,-5.561730,-0.329348,0.143224,0.269660
12481,-4.977545,2.935291,-5.540183,-0.226893,0.099391,0.242747
12496,-4.855441,2.942474,-5.537788,-0.111781,0.049828,0.136962
12511,-4.824317,2.789245,-5.647922,0.000266,0.038104,0.045965
12526,-4.855441,2.331952,-5.470751,0.076075,0.038237,-0.043966
12541,-5.274426,1.685518,-5.614403,0.060354,0.026113,-0.086067
12556,-5.355829,1.309628,-5.623980,-0.019185,0.028778,-0.071678
12571,-5.480328,1.233014,-5.631162,-0.127769,0.036639,-0.021184
12586,-5.233725,1.558625,-5.561730,-0.218899,0.066482,0.004130
12601,-5.133168,2.056619,-5.621585,-0.252606,0.088199,-0.018919
12616,-4.747702,2.703054,-5.461174,-0.081804,0.016254,-0.182793
12631,-5.418078,2.118868,-5.571307,-0.174933,0.092329,-0.144956
12646,-5.011064,2.470816,-5.621585,-0.153349,0.075542,-0.158012
12661,-5.370194,1.632846,-5.657498,-0.234221,0.104853,-0.079406
12676,-5.212177,2.075773,-5.537788,-0.287113,0.152816,0.000133
12691,-5.082890,2.353500,-5.425261,-0.303767,0.159478,0.012657
12706,-4.824317,2.849100,-5.418078,-0.226227,0.154415,-0.034374
12721,-5.020641,2.712631,-5.556942,-0.157213,0.133631,-0.076608
12736,-5.044583,2.080561,-5.439626,-0.178663,0.140292,-0.092329
12751,-5.166687,1.867477,-5.571307,-0.180129,0.106851,-0.041035
12766,-4.862624,2.518700,-5.473145,-0.140426,0.073011,-0.030377
12781,-5.078102,2.193089,-5.851429,-0.134297,0.065150,-0.004663
12796,-4.972757,1.948880,-5.528212,-0.163608,0.073277,0.004930
12811,-5.094861,2.693477,-5.623980,-0.134564,0.116311,-0.016254
12826,-4.848258,2.229002,-5.547365,-0.114179,0.087266,-0.028112
12841,-5.020641,2.193089,-5.341464,-0.104587,0.039037,-0.019985
12856,-5.202600,2.133234,-5.664681,-0.192519,0.112847,0.065550
12871,-4.977545,1.328782,-5.839458,-0.272458,0.038637,0.115645
12886,-4.831499,2.401384,-5.748478,-0.204243,0.152283,0.109916
12901,-4.879383,2.652776,-5.614403,-0.208240,0.112181,0.099124
12916,-4.805163,4.022259,-5.614403,-0.024248,0.090997,-0.024914
12931,-4.836287,2.640805,-5.904101,-0.065683,0.057423,-0.010392
12946,-4.915296,2.389413,-5.679046,-0.143090,0.091796,0.039303
12961,-4.951209,2.437297,-5.535394,-0.136828,0.050361,0.045032
12976,-4.927267,1.702277,-5.295974,-0.192253,0.031309,0.073144
12991,-4.845864,2.686294,-5.530606,-0.104453,0.056224,0.037038
13006,-4.838682,2.801216,-5.659893,-0.094328,0.017587,0.017453
13021,-4.781221,2.568978,-5.475539,-0.064351,0.006662,-0.006528
13036,-5.073313,2.382231,-5.571307,-0.068081,0.017720,-0.005862
13051,-5.006276,2.451663,-5.487510,-0.078207,0.008260,0.004130
13066,-4.893748,2.449268,-5.602432,-0.089265,0.007594,0.024115
13081,-4.802769,2.554613,-5.511452,-0.071678,0.001199,0.025847
13096,-4.917690,2.765303,-5.595249,-0.032508,-0.003730,0.023715
13111,-4.884171,2.825158,-5.549759,0.004796,-0.024515,0.003730
13126,-4.757279,2.772485,-5.544971,0.041035,-0.036372,-0.016254
13141,-4.862624,2.456451,-5.612009,0.057956,-0.050761,-0.030776
13156,-5.046977,2.334347,-5.612009,0.048629,-0.053426,-0.028911
13171,-4.955997,2.458845,-5.623980,0.040769,-0.063018,-0.026646
13186,-4.948815,2.446874,-5.597643,0.038637,-0.053292,-0.036372
13201,-5.015852,2.274492,-5.537788,0.008793,-0.055158,-0.027312
13216,-5.106832,2.291251,-5.535394,-0.001732,-0.041035,-0.013590
13231,-4.984728,2.413355,-5.556942,-0.007727,-0.037438,-0.008394
13246,-4.905719,2.511518,-5.583278,-0.000933,-0.030110,-0.005196
13261,-4.941632,2.604891,-5.614403,0.021717,-0.036905,-0.008660
13276,-5.042189,2.528277,-5.566519,0.044899,-0.039836,-0.018386
13291,-5.027823,2.607285,-5.549759,0.069413,-0.052360,-0.021717
13306,-4.886566,2.600103,-5.652710,0.103521,-0.070879,-0.030510
13321,-4.910508,2.422932,-5.509058,0.119109,-0.096193,-0.019718
13336,-5.027823,2.528277,-5.540183,0.146421,-0.113646,-0.005729
13351,-5.027823,2.626439,-5.461174,0.185458,-0.123239,-0.012790
13366,-4.946421,2.518700,-5.604826,0.219565,-0.141625,-0.023582
13381,-4.989516,2.382231,-5.518635,0.238084,-0.153882,-0.020917
13396,-5.183446,2.152387,-5.549759,0.236752,-0.145755,-0.023449
13411,-5.255273,2.051831,-5.568913,0.230090,-0.145355,-0.025047
13426,-5.195417,2.049437,-5.499481,0.209306,-0.118309,-0.023982
13441,-5.243302,1.924938,-5.542577,0.166672,-0.098858,-0.007727
13456,-5.284003,1.862689,-5.554548,0.127103,-0.081937,0.001332
13471,-5.336676,1.946486,-5.552154,0.106718,-0.072744,0.006129
13486,-5.178658,2.111686,-5.475539,0.122306,-0.052227,-0.020784
13501,-5.228936,1.927332,-5.518635,0.089265,-0.047297,-0.021317
13516,-5.293580,2.027889,-5.480328,0.071279,-0.023182,-0.031842
13531,-5.319916,1.948880,-5.511452,0.056623,-0.017453,-0.037305
13546,-5.214571,2.013524,-5.518635,0.039170,-0.013856,-0.034907
13561,-5.149928,1.900996,-5.489904,0.031975,-0.012124,-0.037571
13576,-5.240908,2.008735,-5.451597,0.028378,-0.010525,-0.044899
13591,-5.286397,1.948880,-5.568913,0.035306,-0.017054,-0.049296
13606,-5.092467,2.006341,-5.468357,0.030377,-0.007861,-0.042900
13621,-5.183446,1.958457,-5.449203,0.025447,-0.009859,-0.037838
13636,-5.312734,1.975216,-5.564125,0.038637,-0.012257,-0.038504
13651,-5.327099,2.013524,-5.607220,0.043700,-0.013190,-0.031309
13666,-5.190629,1.984793,-5.506664,0.063152,-0.011191,-0.030643
13681,-5.166687,1.671153,-5.791574,0.064484,-0.047031,-0.015588
13696,-5.207388,1.893813,-5.434838,0.056890,-0.025314,-0.004530
13711,-5.329493,2.027889,-5.576096,0.073144,-0.032508,-0.012790
13726,-5.276821,1.900996,-5.504270,0.072345,-0.030776,-0.015988
13741,-5.284003,1.798045,-5.482722,0.067948,-0.027845,-0.014389
13756,-5.315128,1.774103,-5.573701,0.056890,-0.018919,-0.014522
13771,-5.456386,1.721431,-5.573701,0.045432,-0.017720,-0.007328
13786,-5.343858,1.831564,-5.501875,0.032775,-0.009326,-0.003331
13801,-5.329493,1.754950,-5.501875,0.015455,-0.007461,0.004930
13816,-5.319916,1.663970,-5.530606,-0.002798,0.010658,0.013590
13831,-5.403713,1.699883,-5.544971,-0.022916,0.020784,0.028245
13846,-5.300763,1.709460,-5.489904,-0.041168,0.034374,0.035173
13861,-5.204994,1.714248,-5.525817,-0.067149,0.043034,0.046897
13876,-5.377377,1.632846,-5.566519,-0.090331,0.056357,0.063285
13891,-5.542577,1.517924,-5.528212,-0.134297,0.077407,0.091530
13906,-5.382165,1.742979,-5.408502,-0.168538,0.100323,0.116044
13921,-5.317522,1.740585,-5.480328,-0.184392,0.106319,0.144156
13936,-5.379771,1.934515,-5.410896,-0.203311,0.117910,0.171602
13951,-5.260061,1.783680,-5.597643,-0.189988,0.108051,0.195983
13966,-5.243302,2.087744,-5.482722,-0.187190,0.107384,0.211172
13981,-4.977545,2.109292,-5.544971,-0.172934,0.089398,0.223828
13996,-5.204994,2.116474,-5.607220,-0.158678,0.093395,0.228625
14011,-5.171475,1.956063,-5.695806,-0.194118,0.097925,0.237152
14026,-5.142745,2.190695,-5.755661,-0.169470,0.097659,0.193052
14041,-4.903325,2.183512,-5.614403,-0.168804,0.097259,0.162409
14056,-5.018247,2.408567,-5.470751,-0.153882,0.095793,0.108717
14071,-4.927267,2.449268,-5.616797,-0.148953,0.080338,0.072478
14086,-5.001487,2.375048,-5.499481,-0.113646,0.087133,0.029577
14101,-4.979939,2.343923,-5.597643,-0.112181,0.064351,0.015588
14116,-5.090073,2.188300,-5.501875,-0.114712,0.062219,0.014789
14131,-5.293580,2.161964,-5.619191,-0.108717,0.051827,0.016121
14146,-5.001487,2.291251,-5.614403,-0.130433,0.044100,0.033841
14161,-4.948815,2.418144,-5.547365,-0.126570,0.051960,0.035173
14176,-5.018247,2.360683,-5.461174,-0.122839,0.041302,0.038371
14191,-5.063736,2.389413,-5.461174,-0.109649,0.057556,0.035040
14206,-5.056554,2.387019,-5.525817,-0.105119,0.056623,0.028911
14221,-4.936844,2.456451,-5.549759,-0.092729,0.067681,0.026380
14236,-4.979939,2.312799,-5.609614,-0.094994,0.069014,0.024115
14251,-5.080496,2.355894,-5.607220,-0.104853,0.078606,0.016121
14266,-5.121197,2.281674,-5.638345,-0.114712,0.091663,0.006928
14281,-4.977545,2.327164,-5.540183,-0.132698,0.090198,0.009859
14296,-4.929661,2.312799,-5.607220,-0.137628,0.106319,0.010792
14311,-5.030218,2.308010,-5.578490,-0.164674,0.108850,0.028911
14326,-4.991910,2.408567,-5.568913,-0.168404,0.106718,0.034107
14341,-4.958392,2.485181,-5.528212,-0.167738,0.126570,0.051161
14356,-5.075707,2.652776,-5.535394,-0.154948,0.119375,0.024515
14371,-4.903325,2.571373,-5.619191,-0.131766,0.113646,0.008660
14386,-4.812346,2.616862,-5.679046,-0.128302,0.129501,-0.000266
14401,-4.893748,2.470816,-5.619191,-0.109783,0.105652,-0.005596
14416,-5.008670,2.384625,-5.638345,-0.115911,0.092862,0.005862
14431,-4.872200,2.446874,-5.578490,-0.119642,0.081937,0.017587
14446,-4.788404,2.470816,-5.626374,-0.148286,0.098058,0.055824
14461,-4.814740,2.590526,-5.494693,-0.155747,0.085002,0.054758
14476,-4.817134,2.667141,-5.770026,-0.162675,0.062885,0.063951
14491,-4.857835,2.688689,-5.552154,-0.143224,0.120841,0.038237
14506,-4.704606,2.770091,-5.616797,-0.116844,0.095260,-0.008127
14521,-4.833893,2.628834,-5.621585,-0.118975,0.124838,-0.021184
14536,-5.035006,1.958457,-5.647922,-0.164541,0.090864,-0.007328
14551,-4.695029,2.698265,-5.623980,-0.131766,0.116178,-0.022250
14566,-4.752491,2.937685,-5.652710,-0.106851,0.104853,-0.038904
14581,-4.608838,2.774880,-5.662287,-0.147487,0.088865,0.009859
14596,-4.910508,3.208230,-5.667075,-0.105652,0.089931,0.023715
14611,-4.618415,2.992752,-5.413290,-0.091663,0.056757,0.038237
14626,-4.534618,3.232172,-5.487510,-0.063685,0.020651,0.039170
14641,-4.438850,2.944868,-5.549759,-0.025847,-0.007328,0.028778
14656,-4.745308,2.525883,-5.487510,-0.020384,-0.011458,0.028112
14671,-4.623203,2.896984,-5.702988,0.033175,-0.051161,0.009326
14686,-4.446033,2.892196,-5.585672,0.053559,-0.074476,0.011191
14701,-4.616021,3.131616,-5.604826,0.103121,-0.110982,-0.011191
14716,-4.704606,3.201048,-5.552154,0.182394,-0.133764,-0.039570
14731,-4.675876,3.110068,-5.556942,0.253273,-0.154681,-0.079006
14746,-4.635174,2.798822,-5.628768,0.290844,-0.157479,-0.111381
14761,-4.788404,2.434903,-5.635951,0.276988,-0.135629,-0.131499
14776,-5.035006,1.884237,-5.760449,0.208907,-0.107518,-0.134297
14791,-5.204994,1.630451,-5.700594,0.109516,-0.073544,-0.115511
14806,-5.164293,1.460463,-5.798757,-0.021850,-0.038770,-0.062219
14821,-5.130774,1.668759,-5.635951,-0.146155,-0.027712,-0.000266
14836,-5.183446,2.367865,-5.509058,-0.193718,-0.009060,0.019585
14851,-4.800375,2.841917,-5.418078,-0.170936,-0.018786,-0.014655
14866,-4.592079,2.971204,-5.214571,-0.074077,-0.015988,-0.059288
14881,-5.037400,2.877831,-5.887342,-0.032109,-0.077141,-0.064084
14896,-4.673481,2.583344,-5.233725,0.010126,-0.095527,-0.055957
14911,-5.087678,2.592920,-5.767632,0.043567,-0.058222,-0.056623
14926,-4.759673,2.712631,-5.348647,0.074609,-0.136962,-0.058888
14941,-4.850653,2.726996,-5.542577,0.137894,-0.104720,-0.086067
14956,-4.853047,2.597709,-5.609614,0.204243,-0.187456,-0.114312
14971,-5.207388,2.319981,-5.406107,0.182527,-0.133098,-0.099257
14986,-5.118803,2.324770,-5.604826,0.177198,-0.132965,-0.095394
15001,-5.070919,2.111686,-5.556942,0.166273,-0.137495,-0.075142
15016,-5.319916,1.989582,-5.597643,0.134564,-0.117510,-0.033974
15031,-5.224148,2.207454,-5.477933,0.103654,-0.096193,-0.014256
15046,-5.054160,2.427721,-5.382165,0.111781,-0.076475,-0.012524
15061,-5.157110,2.422932,-5.513846,0.123772,-0.055291,-0.023848
15076,-5.288792,2.011129,-5.561730,0.097392,-0.079806,-0.015588
15091,-5.176264,2.082955,-5.487510,0.098991,-0.021583,-0.024248
15106,-5.250484,1.989582,-5.564125,0.050228,-0.026779,-0.017187
15121,-5.121197,2.075773,-5.468357,0.035306,-0.001732,-0.026513
15136,-5.458780,2.047042,-5.540183,0.010792,0.022116,-0.035306
15151,-5.233725,1.944092,-5.468357,-0.023315,0.022649,-0.028511
15166,-5.197812,1.924938,-5.499481,-0.045299,0.050761,-0.021850
15181,-5.209783,2.063802,-5.547365,-0.079273,0.062086,-0.011858
15196,-5.214571,2.133234,-5.449203,-0.088332,0.087400,-0.013190
15211,-5.279215,2.161964,-5.576096,-0.096726,0.089798,-0.018519
15226,-5.190629,2.219425,-5.418078,-0.101655,0.105786,-0.021850
15241,-5.178658,2.209848,-5.540183,-0.105253,0.115778,-0.026779
15256,-5.078102,2.080561,-5.509058,-0.117510,0.112047,-0.028511
15271,-5.197812,2.080561,-5.628768,-0.123372,0.136029,-0.025314
15286,-5.178658,1.994370,-5.645527,-0.149619,0.140959,-0.013590
15301,-5.092467,2.082955,-5.556942,-0.177064,0.162276,-0.002265
15316,-5.178658,2.082955,-5.576096,-0.202911,0.183326,0.003331
15331,-5.231330,2.047042,-5.554548,-0.225827,0.194917,0.014655
15346,-5.104438,2.260126,-5.566519,-0.236485,0.199314,0.028112
15361,-4.903325,2.217031,-5.643133,-0.236885,0.177597,0.039436
15376,-4.987122,2.300828,-5.640739,-0.234487,0.158678,0.062752
15391,-4.955997,2.480393,-5.461174,-0.231156,0.148286,0.085002
15406,-4.764462,2.726996,-5.607220,-0.196783,0.116044,0.080738
15421,-4.699818,2.719813,-5.530606,-0.142691,0.083936,0.060487
15436,-4.764462,2.676718,-5.583278,-0.098325,0.064084,0.051694
15451,-4.910508,2.535460,-5.688623,-0.061286,0.043167,0.046631
15466,-4.915296,2.564190,-5.664681,-0.036905,0.035440,0.041168
15481,-4.783615,2.497152,-5.664681,-0.029711,0.026913,0.041835
15496,-4.876989,2.470816,-5.518635,-0.031443,0.027979,0.038637
15511,-4.910508,2.525883,-5.640739,-0.023715,0.020651,0.027179
15526,-4.874595,2.506729,-5.643133,-0.018386,0.010658,0.009060
15541,-4.797980,2.504335,-5.623980,-0.025714,-0.002665,0.003597
15556,-4.936844,2.485181,-5.602432,-0.014655,-0.011058,-0.004796
15571,-5.025429,2.456451,-5.662287,-0.019718,-0.025181,-0.001466
15586,-4.900931,2.523489,-5.604826,-0.009859,-0.035972,0.001998
15601,-4.855441,2.626439,-5.535394,0.009193,-0.045432,0.001732
15616,-4.874595,2.731784,-5.576096,0.037704,-0.049429,-0.003064
15631,-4.958392,2.554613,-5.602432,0.071545,-0.045965,-0.011458
15646,-4.987122,2.427721,-5.674258,0.077807,-0.044899,-0.013856
15661,-4.872200,2.322376,-5.628768,0.065017,-0.034507,-0.011058
15676,-5.003881,2.193089,-5.623980,0.035839,-0.025580,-0.016787
15691,-5.082890,2.296039,-5.645527,0.009326,-0.005329,-0.023315
15706,-5.073313,2.205060,-5.616797,-0.016254,-0.003198,-0.024648
15721,-4.984728,2.243367,-5.585672,-0.047697,0.004263,-0.016254
15736,-4.982334,2.257732,-5.638345,-0.071279,0.023449,-0.008926
15751,-5.106832,2.312799,-5.614403,-0.086201,0.033708,-0.010525
15766,-5.015852,2.331952,-5.652710,-0.094861,0.045965,0.000133
15781,-4.905719,2.533065,-5.612009,-0.085401,0.051560,0.000799
15796,-4.848258,2.576161,-5.473145,-0.073544,0.041835,0.002665
15811,-4.972757,2.636016,-5.602432,-0.043833,0.036772,0.001466
15826,-4.903325,2.568978,-5.607220,-0.014655,0.015721,-0.004796
15841,-4.797980,2.494758,-5.561730,0.001732,-0.006129,-0.010792
15856,-4.927267,2.446874,-5.633556,0.014123,-0.013590,-0.015188
15871,-5.011064,2.257732,-5.590461,0.001732,-0.020784,-0.008660
15886,-4.984728,2.365471,-5.655104,-0.004263,-0.020251,0.000000
15901,-4.908113,2.489970,-5.547365,0.001732,-0.019319,-0.001332
15916,-4.924873,2.511518,-5.561730,0.020784,-0.017187,-0.005196
15931,-5.025429,2.466028,-5.499481,0.034107,-0.015055,-0.007061
15946,-5.015852,2.394202,-5.635951,0.043433,-0.010259,0.000266
15961,-4.936844,2.324770,-5.602432,0.043034,-0.008527,0.011724
15976,-4.920084,2.334347,-5.645527,0.039969,-0.009726,0.017054
15991,-5.032612,2.183512,-5.631162,0.020518,-0.015188,0.022116
16006,-5.085284,2.126051,-5.600038,-0.001599,-0.014922,0.029844
16021,-4.975151,2.202666,-5.552154,-0.027046,-0.009193,0.035839
16036,-4.951209,2.398990,-5.655104,-0.038104,-0.000266,0.027046
16051,-5.066131,2.403779,-5.559336,-0.037571,0.011858,0.010392
16066,-5.142745,2.327164,-5.650316,-0.034907,0.017187,0.009992
16081,-5.020641,2.212242,-5.592855,-0.054625,0.023715,0.027446
16096,-4.972757,2.252944,-5.609614,-0.065816,0.035972,0.043034
16111,-5.068525,2.305616,-5.621585,-0.081271,0.030110,0.060087
16126,-5.128380,2.401384,-5.628768,-0.070080,0.036239,0.066616
16141,-4.955997,2.549825,-5.346252,-0.090597,0.026113,0.085401
16156,-4.958392,2.511518,-5.482722,-0.085401,0.011458,0.090064
16171,-4.944026,2.576161,-5.497087,-0.068481,-0.003864,0.082470
16186,-4.876989,2.667141,-5.537788,-0.041701,-0.000666,0.049429
16201,-4.872200,2.595315,-5.623980,-0.005729,0.010792,-0.000400
16216,-4.932055,2.236184,-5.530606,-0.004663,0.019052,-0.017453
16231,-5.070919,2.047042,-5.626374,-0.047430,0.021317,0.003597
16246,-5.090073,2.221819,-5.681440,-0.078473,0.035972,0.018652
16261,-5.037400,2.310405,-5.564125,-0.104187,0.039969,0.023582
16276,-4.884171,2.408567,-5.580884,-0.104587,0.036905,0.029711
16291,-4.987122,2.413355,-5.542577,-0.108450,0.037438,0.035040
16306,-4.948815,2.456451,-5.497087,-0.108450,0.035573,0.038637
16321,-4.929661,2.583344,-5.521029,-0.093395,0.037305,0.030243
16336,-4.884171,2.628834,-5.547365,-0.082870,0.041568,0.013456
16351,-4.963180,2.497152,-5.542577,-0.080338,0.046498,0.017720
16366,-5.094861,2.319981,-5.540183,-0.097659,0.053426,0.034240
16381,-5.058948,2.444480,-5.717353,-0.111914,0.055424,0.053959
16396,-4.860229,2.456451,-5.528212,-0.120974,0.060087,0.073410
16411,-4.881777,2.600103,-5.645527,-0.115245,0.050495,0.080738
16426,-4.848258,2.638410,-5.580884,-0.100590,0.046631,0.069680
16441,-4.809951,2.770091,-5.638345,-0.065150,0.038637,0.044499
16456,-4.711789,2.738967,-5.482722,-0.040103,0.029977,0.017187
16471,-4.833893,2.564190,-5.647922,-0.027845,0.033574,-0.001332
16486,-4.951209,2.387019,-5.588067,-0.043567,0.032109,0.003064
16501,-5.015852,2.427721,-5.523423,-0.066482,0.041035,0.009459
16516,-4.893748,2.588132,-5.578490,-0.080738,0.041835,0.013590
16531,-4.817134,2.590526,-5.597643,-0.080871,0.050894,0.005995
16546,-4.958392,2.631228,-5.597643,-0.076874,0.049562,0.004397
16561,-4.905719,2.643199,-5.595249,-0.075675,0.052626,0.006662
16576,-4.783615,2.638410,-5.628768,-0.068081,0.068614,0.001199
16591,-4.888960,2.590526,-5.561730,-0.073943,0.077407,-0.004263
16606,-5.023035,2.494758,-5.602432,-0.082737,0.094994,0.008260
16621,-4.991910,2.528277,-5.643133,-0.099391,0.109649,0.023982
16636,-4.786009,2.698265,-5.559336,-0.104453,0.114446,0.030910
16651,-4.833893,2.667141,-5.609614,-0.110449,0.120708,0.029044
16666,-4.896142,2.633622,-5.633556,-0.108184,0.117776,0.026646
16681,-4.876989,2.554613,-5.659893,-0.125770,0.119908,0.037305
16696,-4.776433,2.643199,-5.683835,-0.116844,0.109116,0.034640
16711,-4.707000,2.681506,-5.655104,-0.120308,0.116977,0.038770
16726,-4.778827,2.913743,-5.607220,-0.080871,0.094861,0.019851
16741,-4.829105,2.794033,-5.726930,-0.092329,0.095127,0.040636
16756,-4.750096,2.856282,-5.588067,-0.064617,0.104587,0.039303
16771,-4.692635,2.817975,-5.657498,-0.050894,0.109916,0.044632
16786,-4.771644,2.688689,-5.674258,-0.042767,0.118443,0.042634
16801,-4.759673,2.652776,-5.691017,-0.041035,0.122040,0.041168
16816,-4.663905,2.734178,-5.647922,-0.044766,0.127369,0.035839
16831,-4.642357,2.750938,-5.679046,-0.035040,0.130833,0.015455
16846,-4.572925,2.710236,-5.693411,-0.025447,0.107118,-0.005329
16861,-4.673481,2.545036,-5.801151,-0.041701,0.101123,-0.003198
16876,-4.467580,2.655170,-5.839458,-0.067149,0.077940,0.000000
16891,-4.374207,2.935291,-5.681440,-0.052093,0.068348,-0.027446
16906,-4.632780,3.062184,-5.726930,-0.040502,0.073011,-0.058355
16921,-4.462792,2.336741,-5.540183,-0.029977,-0.005729,-0.103920
16936,-4.417302,3.071761,-5.731719,-0.000266,0.020251,-0.129101
16951,-4.343082,1.987187,-5.521029,-0.048896,-0.082470,-0.135230
16966,-4.984728,2.382231,-5.714959,-0.091663,0.039037,-0.075009
16981,-4.668693,2.940080,-5.640739,-0.054625,-0.056890,-0.053159
16996,-4.405331,3.220201,-5.623980,-0.049162,-0.032242,-0.043433
17011,-4.560954,2.990358,-5.702988,-0.002931,-0.038904,-0.042634
17026,-4.596867,2.808398,-5.719748,0.009060,-0.062219,-0.045832
17041,-4.702212,2.834735,-5.803545,0.037305,-0.070746,-0.059155
17056,-4.649539,2.817975,-5.638345,0.050361,-0.084335,-0.064217
17071,-4.568137,2.719813,-5.540183,0.061686,-0.098325,-0.072744
17086,-4.695029,2.576161,-5.674258,0.063685,-0.120441,-0.080871
17101,-4.733336,2.585738,-5.626374,0.053426,-0.134697,-0.079273
17116,-4.714183,2.662352,-5.635951,0.053159,-0.150951,-0.094328
17131,-4.735731,2.624045,-5.688623,0.061553,-0.161210,-0.107251
17146,-4.865018,2.535460,-5.542577,0.067948,-0.155481,-0.103920
17161,-5.097255,2.659958,-5.556942,0.087400,-0.137894,-0.108184
17176,-4.829105,2.650381,-5.712565,0.089665,-0.115378,-0.093262
17191,-4.924873,2.619257,-5.662287,0.088998,-0.096859,-0.070613
17206,-4.965574,2.518700,-5.540183,0.109250,-0.084335,-0.062885
17221,-4.975151,2.554613,-5.580884,0.112580,-0.098724,-0.055025
17236,-4.802769,2.628834,-5.556942,0.136695,-0.103121,-0.067681
17251,-4.754885,2.554613,-5.568913,0.154415,-0.128701,-0.087666
17266,-4.836287,2.506729,-5.652710,0.165873,-0.147620,-0.116444
17281,-4.951209,2.293645,-5.463568,0.188256,-0.185058,-0.142824
17296,-5.099649,2.138022,-5.559336,0.173867,-0.195850,-0.120974
17311,-5.111620,2.138022,-5.638345,0.159211,-0.168271,-0.072877
17326,-5.255273,2.049437,-5.631162,0.132165,-0.133764,-0.023449
17341,-5.331887,2.123657,-5.578490,0.098058,-0.091263,0.023049
17356,-5.178658,2.126051,-5.585672,0.061553,-0.070479,0.049029
17371,-5.221754,2.015918,-5.537788,0.010792,-0.039836,0.080205
17386,-5.207388,2.042254,-5.537788,-0.015588,-0.014522,0.086467
17401,-5.394136,2.035071,-5.547365,-0.052093,0.011458,0.103654
17416,-5.276821,2.020706,-5.580884,-0.079006,0.023982,0.116711
17431,-5.154716,2.145205,-5.525817,-0.085135,0.071279,0.113513
17446,-5.245696,1.972822,-5.580884,-0.121240,0.071279,0.132965
17461,-5.231330,1.900996,-5.566519,-0.158412,0.099391,0.156147
17476,-5.276821,2.092532,-5.485116,-0.187057,0.130034,0.165873
17491,-5.147533,2.205060,-5.714959,-0.230890,0.140292,0.191453
17506,-5.068525,2.221819,-5.659893,-0.252340,0.169737,0.201845
17521,-5.027823,2.372654,-5.614403,-0.268727,0.194784,0.202378
17536,-4.975151,2.703054,-5.516241,-0.262332,0.204776,0.181194
17551,-4.836287,2.645593,-5.525817,-0.267662,0.225560,0.167738
17566,-4.994305,2.738967,-5.705382,-0.251674,0.245678,0.149219
17581,-5.035006,2.698265,-5.588067,-0.234620,0.303368,0.124038
17596,-4.833893,2.743755,-5.726930,-0.224628,0.324152,0.103387
17611,-4.711789,2.722207,-5.516241,-0.207708,0.338274,0.067948
17626,-4.750096,2.772485,-5.590461,-0.181194,0.335210,0.033574
17641,-4.730942,2.621651,-5.753267,-0.125637,0.296439,-0.023182
17656,-4.635174,2.643199,-5.679046,-0.087000,0.258735,-0.075142
17671,-4.814740,2.171541,-5.607220,-0.181727,0.260734,-0.015721
17686,-4.424485,2.899378,-5.770026,-0.151484,0.215435,-0.046631
17701,-4.505888,3.562572,-5.401319,0.119242,0.291110,-0.289112
17716,-5.054160,2.889802,-5.901707,-0.085934,0.146155,-0.164141
17731,-4.206612,2.777274,-5.796362,-0.080605,0.206375,-0.129368
17746,-4.606444,2.487576,-5.904101,-0.134164,0.144689,-0.082337
17761,-4.479551,2.779668,-5.341464,-0.090064,0.160277,-0.098458
17776,-4.458004,2.882619,-6.071695,-0.118842,0.140426,-0.074343
17791,-4.376601,2.983175,-5.614403,-0.122306,0.112980,-0.054891
17806,-4.632780,2.600103,-5.825093,-0.095793,0.087133,-0.037838
17821,-4.474763,3.114856,-5.695806,-0.115778,0.030643,0.011591
17836,-4.175488,3.239355,-5.604826,-0.084202,-0.009326,0.042501
17851,-3.926491,3.790021,-5.834670,0.012524,-0.069280,-0.003997
17866,-4.077325,3.414132,-5.691017,0.179462,-0.166672,-0.108850
17881,-4.182670,2.837129,-5.564125,0.215701,-0.209972,-0.113380
17896,-4.441244,2.801216,-5.643133,0.247277,-0.276721,-0.126703
17911,-4.505888,2.624045,-5.631162,0.250342,-0.313493,-0.108317
17926,-4.501099,2.537854,-5.779603,0.243813,-0.360124,-0.088199
17941,-4.644751,2.281674,-5.724536,0.214369,-0.352663,-0.037438
17956,-4.862624,2.475605,-5.626374,0.211571,-0.336142,-0.026646
17971,-4.831499,2.717419,-5.628768,0.248609,-0.349998,-0.070346
17986,-4.970363,2.391808,-5.772420,0.300836,-0.328681,-0.124172
18001,-5.003881,2.238579,-5.841852,0.306032,-0.310828,-0.132832
18016,-5.331887,2.070984,-5.702988,0.288312,-0.284449,-0.128968
18031,-5.118803,1.903390,-5.698200,0.304167,-0.275389,-0.144822
18046,-5.090073,1.728614,-5.597643,0.257536,-0.231822,-0.130567
18061,-5.149928,1.994370,-5.521029,0.223562,-0.219432,-0.138827
18076,-5.410896,1.924938,-5.576096,0.188123,-0.181061,-0.154415
18091,-5.363012,1.877054,-5.499481,0.153083,-0.170003,-0.154815
18106,-5.272032,1.731008,-5.509058,0.095660,-0.156680,-0.125371
18121,-5.336676,1.783680,-5.580884,0.059021,-0.136296,-0.098191
18136,-5.329493,1.867477,-5.492299,0.035706,-0.104320,-0.062219
18151,-5.317522,1.941698,-5.588067,0.016521,-0.085534,-0.027845
18166,-5.209783,2.047042,-5.604826,0.017054,-0.065949,-0.009326
18181,-5.274426,2.047042,-5.533000,0.016521,-0.054758,-0.003198
18196,-5.341464,2.078167,-5.463568,0.014522,-0.035706,-0.005729
18211,-5.279215,2.195483,-5.408502,0.037305,-0.039969,-0.031842
18226,-5.178658,2.018312,-5.554548,0.031443,-0.043300,-0.043567
18241,-5.324705,1.754950,-5.509058,0.020118,-0.048763,-0.020917
18256,-5.418078,1.793257,-5.528212,-0.000799,-0.027046,0.013057
18271,-5.339070,1.958457,-5.465962,-0.013989,-0.002931,0.023449
18286,-5.212177,1.922544,-5.513846,-0.026113,0.018519,0.015721
18301,-5.257667,1.889025,-5.442020,-0.043433,0.040236,0.014522
18316,-5.518635,1.644817,-5.453991,-0.074876,0.066616,0.026646
18331,-5.410896,1.508347,-5.523423,-0.140292,0.090198,0.051294
18346,-5.396531,1.513135,-5.511452,-0.205309,0.116044,0.086867
18361,-5.370194,1.821988,-5.568913,-0.256737,0.134430,0.117510
18376,-5.276821,2.056619,-5.461174,-0.272191,0.153616,0.120308
18391,-5.152322,2.221819,-5.573701,-0.266329,0.164541,0.105519
18406,-5.161899,2.114080,-5.640739,-0.266063,0.173734,0.095260
18421,-5.291186,2.183512,-5.643133,-0.261533,0.182127,0.092196
18436,-5.195417,2.070984,-5.521029,-0.266995,0.186657,0.096726
18451,-5.078102,2.169147,-5.588067,-0.280585,0.197315,0.100723
18466,-5.118803,2.207454,-5.566519,-0.282450,0.203844,0.102988
18481,-5.291186,1.910573,-5.861006,-0.295374,0.185191,0.136695
18496,-5.123591,2.511518,-5.451597,-0.317490,0.232888,0.145888
18511,-4.939238,2.621651,-5.513846,-0.303900,0.242214,0.135230
18526,-5.161899,2.470816,-5.554548,-0.278187,0.242348,0.134164
18541,-5.173870,2.281674,-5.669469,-0.329214,0.294841,0.170136
18556,-5.118803,2.317587,-5.667075,-0.345868,0.355594,0.243413
18571,-4.735731,2.827552,-5.741296,-0.295107,0.340539,0.177198
18586,-4.865018,2.628834,-5.525817,-0.258735,0.266729,0.132165
18601,-4.771644,3.009511,-5.590461,-0.179063,0.320421,0.073810
18616,-4.972757,2.858677,-5.674258,-0.167738,0.296306,0.062485
18631,-4.589684,2.686294,-5.765238,-0.143224,0.322153,0.045565
18646,-4.630386,2.384625,-5.846641,-0.142158,0.276322,0.026247
18661,-4.774038,2.331952,-5.755661,-0.154948,0.311894,0.039703
18676,-4.560954,2.545036,-5.659893,-0.192386,0.328282,0.053559
18691,-4.321534,2.987964,-5.669469,-0.140559,0.302968,0.008127
18706,-3.921702,2.882619,-5.863400,-0.102721,0.260734,-0.036505
18721,-4.405331,2.602497,-5.801151,-0.105652,0.264864,-0.073544
18736,-4.283227,2.638410,-5.504270,-0.094061,0.251807,-0.094461
18751,-4.288015,2.566584,-5.865794,-0.094727,0.193319,-0.114979
18766,-4.168305,2.525883,-5.786786,-0.135763,0.173600,-0.102721
18781,-4.450821,2.518700,-6.030994,-0.121240,0.142691,-0.101922
18796,-4.206612,3.093308,-5.607220,-0.093395,0.087666,-0.103121
18811,-4.060566,2.849100,-6.045359,-0.075542,0.098858,-0.100323
18826,-4.060566,3.119645,-5.655104,-0.054225,0.047430,-0.091930
18841,-4.060566,3.105279,-5.748478,-0.036505,0.017720,-0.090331
18856,-4.206612,3.095703,-5.853823,-0.026113,0.021850,-0.069547
18871,-4.216189,2.985569,-5.803545,0.000799,-0.014922,-0.064884
18886,-4.120421,3.102885,-5.698200,0.028378,-0.032375,-0.053559
18901,-4.326323,2.997540,-5.868188,0.087799,-0.060087,-0.084335
18916,-4.331111,2.882619,-5.791574,0.109116,-0.100057,-0.101522
18931,-4.261679,2.691083,-5.741296,0.105652,-0.134031,-0.092862
18946,-4.259285,2.640805,-5.851429,0.103787,-0.173867,-0.087133
18961,-4.297592,2.724602,-5.765238,0.108983,-0.207708,-0.079672
18976,-4.362236,2.636016,-5.863400,0.154015,-0.275522,-0.097525
18991,-4.053383,2.571373,-5.681440,0.161343,-0.317224,-0.103387
19006,-4.151546,2.631228,-5.698200,0.193452,-0.379576,-0.127502
19021,-4.469975,2.578555,-5.674258,0.198248,-0.433801,-0.131233
19036,-4.917690,2.638410,-5.635951,0.173734,-0.429671,-0.099524
19051,-4.979939,2.377442,-5.789180,0.165473,-0.426473,-0.100989
19066,-4.948815,2.597709,-5.760449,0.182527,-0.364787,-0.123106
19081,-5.176264,2.197877,-5.717353,0.152417,-0.358259,-0.130300
19096,-5.250484,2.142811,-5.717353,0.148153,-0.311628,-0.132299
19111,-5.269638,2.171541,-5.647922,0.135096,-0.266596,-0.122306
19126,-5.137957,2.348712,-5.571307,0.126436,-0.192786,-0.122040
19141,-5.272032,2.169147,-5.556942,0.105519,-0.162142,-0.103254
19156,-5.212177,2.293645,-5.580884,0.092596,-0.130966,-0.085401
19171,-5.078102,2.188300,-5.628768,0.080605,-0.111115,-0.070080
19186,-5.061342,1.877054,-5.559336,0.058355,-0.100723,-0.055291
19201,-5.068525,2.114080,-5.580884,0.019718,-0.076608,-0.037704
19216,-5.207388,2.185906,-5.497087,0.036905,-0.081404,-0.056490
19231,-5.329493,1.972822,-5.473145,-0.040636,-0.067815,-0.009459
19246,-5.212177,2.346318,-5.612009,-0.027179,-0.017720,0.001865
19261,-5.125986,2.214637,-5.552154,-0.033974,-0.006528,0.018519
19276,-5.228936,2.262521,-5.588067,-0.021051,0.016387,0.023715
19291,-5.188235,2.099715,-5.518635,-0.033974,0.039436,0.037438
19306,-5.142745,2.159570,-5.604826,-0.048230,0.047031,0.040769
19321,-5.202600,2.121263,-5.643133,-0.060487,0.064351,0.046364
19336,-5.245696,2.037466,-5.659893,-0.089132,0.071945,0.051827
19351,-5.169081,2.068590,-5.511452,-0.107651,0.087533,0.059821
19366,-5.090073,2.157176,-5.458780,-0.136695,0.093662,0.068747
19381,-5.154716,2.152387,-5.511452,-0.152949,0.107118,0.077407
19396,-5.228936,2.116474,-5.427655,-0.169737,0.132832,0.083136
19411,-5.183446,2.279280,-5.544971,-0.188655,0.144423,0.093528
19426,-5.169081,2.310405,-5.544971,-0.202112,0.185591,0.108051
19441,-5.219359,2.126051,-5.695806,-0.224228,0.213703,0.150152
19456,-5.415684,2.140416,-5.626374,-0.236086,0.286314,0.173867
19471,-5.161899,2.339135,-5.705382,-0.268328,0.294574,0.203044
19486,-5.011064,2.482787,-5.674258,-0.257136,0.347334,0.200513
19501,-4.829105,2.698265,-5.600038,-0.232888,0.364654,0.174666
19516,-4.934450,2.762909,-5.612009,-0.187190,0.366253,0.119109
19531,-4.675876,2.885013,-5.521029,-0.147087,0.378776,0.056623
19546,-4.577713,2.619257,-5.616797,-0.135629,0.355727,0.013057
19561,-4.594473,2.547431,-5.781997,-0.093928,0.315092,-0.023715
19576,-4.644751,2.451663,-5.765238,-0.081937,0.300170,-0.039703
19591,-4.685452,2.343923,-5.789180,-0.114312,0.260467,-0.037305
19606,-4.644751,2.537854,-5.743690,-0.130433,0.277521,-0.035972
19621,-4.331111,2.614468,-5.858612,-0.126703,0.222230,-0.053292
19636,-4.611232,2.274492,-5.612009,-0.113913,0.236219,-0.060487
19651,-4.390966,2.576161,-5.669469,-0.170802,0.191587,-0.043167
19666,-4.355053,2.499547,-5.695806,-0.123372,0.169204,-0.069413
19681,-4.201824,2.588132,-5.906496,-0.136962,0.141758,-0.065283
19696,-4.323928,2.688689,-6.002264,-0.135363,0.144023,-0.064351
19711,-4.376601,2.803610,-5.899313,-0.080338,0.083136,-0.083669
19726,-4.137180,2.695871,-5.810728,-0.103654,0.112181,-0.046498
19741,-4.587290,2.990358,-5.923255,-0.112314,0.103521,-0.008926
19756,-4.402937,2.609680,-5.810728,-0.118043,0.082737,0.015055
19771,-4.237737,3.217807,-5.894525,-0.037571,0.076075,-0.017320
19786,-4.340688,2.705448,-5.808333,-0.059821,0.089531,0.039570
19801,-4.192247,2.978387,-5.868188,-0.048096,0.064884,0.055691
19816,-4.127604,3.172317,-5.829881,0.005196,0.038770,0.031043
19831,-4.185064,2.832340,-5.743690,0.052227,0.009459,0.009726
19846,-4.180276,2.942474,-5.777209,0.070213,-0.016387,-0.005995
19861,-4.012682,2.171541,-6.035782,0.072078,-0.059155,-0.008793
19876,-4.364630,2.442086,-5.951985,0.035440,-0.061020,0.012657
19891,-4.455609,2.698265,-5.851429,0.051560,-0.079672,-0.014123
19906,-4.443638,2.312799,-6.033388,-0.014256,-0.065683,0.014256
19921,-4.580108,2.525883,-5.872977,-0.011191,-0.063685,0.005329
19936,-4.517859,2.554613,-5.894525,-0.014123,-0.059288,0.000933
19951,-4.477157,2.698265,-5.786786,-0.011858,-0.056623,-0.008127
19966,-4.223372,3.141193,-5.853823,0.021317,-0.032908,-0.025447
19981,-4.412514,2.834735,-5.849035,0.064484,-0.048230,-0.050361
19996,-4.357447,2.674323,-5.827487,0.080338,-0.091796,-0.072478
20011,-4.402937,2.511518,-5.796362,0.089665,-0.103654,-0.087133
20026,-4.611232,2.312799,-5.815516,0.088998,-0.150685,-0.088199
20041,-4.429273,2.401384,-5.784391,0.046231,-0.141492,-0.063951
20056,-4.766856,2.360683,-5.726930,0.012790,-0.142424,-0.055691
20071,-4.699818,2.401384,-5.779603,-0.010925,-0.147620,-0.056490
20086,-4.608838,2.528277,-5.760449,-0.015988,-0.136695,-0.058622
20101,-4.582502,2.525883,-5.717353,-0.021983,-0.126969,-0.053559
20116,-4.537012,2.645593,-5.765238,-0.011591,-0.135363,-0.059688
20131,-4.625597,2.334347,-5.801151,0.017587,-0.164407,-0.068481
20146,-4.620809,2.588132,-5.595249,0.003997,-0.146688,-0.053825
20161,-4.728548,2.645593,-5.734113,0.020651,-0.143890,-0.053292
20176,-4.762067,2.451663,-5.734113,0.027712,-0.138294,-0.050628
20191,-4.797980,2.413355,-5.669469,0.024914,-0.145222,-0.049828
20206,-4.702212,2.612074,-5.710171,0.033441,-0.127769,-0.049162
20221,-4.685452,2.403779,-5.712565,0.048096,-0.149352,-0.047697
20236,-4.759673,2.482787,-5.619191,0.056890,-0.155614,-0.057156
20251,-4.888960,2.454057,-5.604826,0.049962,-0.152816,-0.062086
20266,-4.917690,2.442086,-5.633556,0.058622,-0.159478,-0.064217
20281,-4.764462,2.300828,-5.693411,0.044766,-0.142824,-0.072211
20296,-4.845864,2.391808,-5.808333,0.043034,-0.159611,-0.070479
20311,-5.058948,2.044648,-5.803545,0.015721,-0.109916,-0.056890
20326,-5.142745,2.066196,-5.726930,-0.005063,-0.104054,-0.056490
20341,-5.039794,2.130840,-5.679046,-0.031176,-0.068214,-0.041035
20356,-5.121197,2.279280,-5.681440,-0.066216,-0.047963,-0.021450
20371,-5.245696,2.126051,-5.475539,-0.107518,0.003864,0.025181
20386,-5.097255,2.049437,-5.518635,-0.151750,0.016387,0.038237
20401,-4.924873,2.703054,-5.595249,-0.103387,0.053159,0.038504
20416,-5.204994,2.396596,-5.588067,-0.099524,0.052093,0.044233
20431,-5.037400,2.679112,-5.573701,-0.059155,0.022916,0.018652
20446,-4.939238,2.384625,-5.578490,-0.048363,0.054358,0.007461
20461,-4.891354,2.348712,-5.628768,-0.069014,0.060221,0.019718
20476,-4.872200,2.410961,-5.564125,-0.070213,0.067681,0.018253
20491,-5.035006,2.324770,-5.571307,-0.075542,0.078207,0.011458
20506,-5.056554,2.296039,-5.578490,-0.079672,0.076608,0.017320
20521,-5.011064,2.296039,-5.623980,-0.100723,0.093928,0.032109
20536,-4.941632,2.300828,-5.722142,-0.128835,0.110182,0.052360
20551,-5.023035,2.336741,-5.729324,-0.146021,0.120041,0.065150
20566,-5.032612,2.454057,-5.561730,-0.154681,0.153749,0.073277
20581,-4.881777,2.650381,-5.650316,-0.130700,0.163342,0.061286
20596,-4.841076,2.406173,-5.667075,-0.120441,0.175066,0.060354
20611,-4.941632,2.334347,-5.702988,-0.138960,0.195184,0.072744
20626,-4.963180,2.315193,-5.834670,-0.148020,0.208107,0.076475
20641,-4.896142,2.420538,-5.353435,-0.128302,0.234087,0.070746
20656,-4.654328,2.681506,-5.762844,-0.183459,0.204243,0.070080
20671,-4.534618,3.040636,-5.851429,-0.134031,0.286447,0.017187
20686,-4.766856,2.288857,-5.942409,-0.114046,0.192919,-0.017986
20701,-4.484340,2.449268,-5.786786,-0.071412,0.206109,-0.049695
20716,-4.836287,2.166753,-5.724536,-0.138294,0.219965,-0.007328
20731,-4.692635,2.602497,-5.741296,-0.115245,0.197715,-0.021850
20746,-4.417302,2.980781,-5.935226,-0.107118,0.171735,-0.027312
20761,-4.556166,2.624045,-5.597643,-0.088732,0.172668,-0.016787
20776,-4.249708,3.201048,-5.604826,-0.052493,0.133364,-0.029977
20791,-4.491522,2.908955,-5.760449,-0.070746,0.094194,-0.008394
20806,-4.180276,3.145981,-5.841852,-0.085801,0.063551,0.013989
20821,-4.345476,2.928109,-5.784391,-0.087933,0.080338,0.025714
20836,-4.132392,3.272874,-5.623980,-0.027979,0.035306,-0.012657
20851,-4.419696,3.131616,-5.810728,-0.043433,0.061020,-0.004796
20866,-4.491522,3.059790,-5.805939,-0.005862,0.027312,-0.019985
20881,-4.400543,2.837129,-5.805939,0.034240,0.003331,-0.023582
20896,-4.405331,2.676718,-5.762844,0.046098,-0.023582,-0.011191
20911,-4.393360,2.624045,-5.746084,0.051028,-0.049562,0.000266
20926,-4.448427,2.679112,-5.772420,0.057423,-0.079539,-0.000666
20941,-4.383783,2.719813,-5.707777,0.069946,-0.100856,-0.016387
20956,-4.484340,2.643199,-5.863400,0.069413,-0.099524,-0.023315
20971,-4.539406,2.336741,-5.884948,0.046231,-0.108717,-0.011325
20986,-4.558560,2.449268,-5.808333,0.050228,-0.124172,-0.017587
21001,-4.661510,2.473210,-5.789180,0.027979,-0.128968,-0.021850
21016,-4.436456,2.547431,-5.743690,0.013456,-0.125904,-0.022916
21031,-4.481946,2.636016,-5.705382,0.016787,-0.138960,-0.043700
21046,-4.671087,2.647987,-5.679046,0.043167,-0.142557,-0.068481
21061,-4.764462,2.535460,-5.688623,0.056357,-0.141758,-0.086600
21076,-4.786009,2.274492,-5.712565,0.037172,-0.141492,-0.079672
21091,-4.582502,2.355894,-5.827487,0.009060,-0.149619,-0.048363
21106,-4.879383,2.260126,-5.779603,-0.027712,-0.107118,-0.029311
21121,-4.766856,2.628834,-5.710171,-0.034107,-0.111115,-0.020251
21136,-4.582502,2.861071,-5.736507,0.025314,-0.132032,-0.048363
21151,-4.699818,2.616862,-5.647922,0.031576,-0.108317,-0.041968
21166,-4.814740,2.530671,-5.631162,0.024381,-0.115911,-0.028112
21181,-4.955997,2.475605,-5.645527,0.051827,-0.128968,-0.026380
21196,-5.125986,2.375048,-5.736507,0.047830,-0.100323,0.001199
21211,-5.102044,2.207454,-5.602432,-0.010925,-0.040636,0.055691
21226,-5.190629,2.585738,-5.700594,-0.018119,-0.035573,0.089798
21241,-5.169081,2.422932,-5.683835,-0.036372,0.026513,0.142824
21256,-4.778827,2.772485,-5.592855,-0.010259,0.066482,0.132965
21271,-5.250484,2.229002,-5.667075,-0.109250,0.130167,0.211305
21286,-4.826711,2.466028,-5.576096,-0.068614,0.095527,0.166672
21301,-4.733336,2.798822,-5.638345,0.012124,0.120175,0.087400
21316,-4.776433,2.432509,-5.688623,0.005196,0.120308,0.061286
21331,-4.651934,2.319981,-5.590461,0.008660,0.101922,0.019985
21346,-4.721365,2.430115,-5.667075,-0.025580,0.113380,0.013723
21361,-4.912902,2.324770,-5.686229,-0.052893,0.114979,0.017986
21376,-4.714183,2.178724,-5.758055,-0.088466,0.122706,0.033175
21391,-4.728548,2.279280,-5.777209,-0.132565,0.111381,0.053692
21406,-4.692635,2.504335,-5.741296,-0.127769,0.119508,0.041035
21421,-4.766856,2.475605,-5.846641,-0.127769,0.106452,0.034374
21436,-4.568137,2.619257,-5.686229,-0.104054,0.095527,0.018919
21451,-4.434062,2.657564,-5.705382,-0.095127,0.061686,0.016387
21466,-4.537012,2.686294,-5.671864,-0.085268,0.036905,0.007328
21481,-4.575319,2.647987,-5.650316,-0.083936,0.020651,0.000133
21496,-4.532224,2.710236,-5.691017,-0.079139,0.006262,-0.012124
21511,-4.580108,2.592920,-5.640739,-0.074077,-0.005995,-0.014256
21526,-4.680664,2.566584,-5.705382,-0.091130,0.002265,-0.000266
21541,-4.857835,2.782062,-5.726930,-0.076475,-0.009193,0.005329
21556,-4.728548,2.595315,-5.762844,-0.071545,-0.008260,0.031309
21571,-4.649539,2.681506,-5.621585,-0.085401,-0.002398,0.051028
21586,-4.659116,2.767697,-5.717353,-0.065816,0.002665,0.052093
21601,-4.905719,2.624045,-5.386954,-0.049429,0.025181,0.035306
21616,-4.707000,2.841917,-5.796362,-0.066882,0.008926,0.043966
21631,-4.606444,2.518700,-5.827487,-0.015855,0.026380,0.024515
21646,-4.759673,2.501941,-5.592855,-0.058222,0.048230,0.041302
21661,-4.790798,2.645593,-5.667075,-0.074077,0.040103,0.031842
21676,-4.687847,2.518700,-5.805939,-0.084469,0.069280,0.033974
21691,-4.697423,2.695871,-5.691017,-0.108184,0.087933,0.039969
21706,-4.704606,2.688689,-5.681440,-0.074743,0.088732,0.006528
21721,-4.742914,2.726996,-5.710171,-0.073544,0.103121,-0.006129
21736,-4.616021,2.703054,-5.805939,-0.058888,0.109116,-0.020784
21751,-4.589684,2.966416,-5.736507,-0.034240,0.119642,-0.032775
21766,-4.788404,2.578555,-5.707777,-0.071412,0.132965,-0.001466
21781,-4.750096,2.466028,-5.789180,-0.066616,0.127636,0.015322
21796,-4.690241,2.834735,-5.434838,-0.055957,0.121640,0.010925
21811,-4.577713,3.069366,-5.705382,-0.080072,0.105119,0.029577
21826,-4.472369,2.267309,-5.592855,-0.030243,0.099923,0.010925
21841,-4.541800,3.086126,-5.813122,-0.100590,0.108583,0.046897
21856,-4.714183,2.200271,-5.521029,-0.031176,0.101389,0.000266
21871,-4.496311,3.385401,-5.858612,-0.075809,0.110449,0.023049
21886,-4.357447,2.497152,-6.050148,-0.059421,0.113113,0.010259
21901,-4.582502,2.817975,-5.765238,-0.058355,0.123639,-0.001865
21916,-4.601655,2.695871,-5.571307,-0.063285,0.146288,-0.009992
21931,-4.462792,3.303998,-5.829881,-0.043167,0.166806,-0.028378
21946,-4.364630,2.643199,-5.803545,-0.035173,0.173867,-0.033175
21961,-4.484340,2.794033,-5.892130,-0.055025,0.174266,-0.021450
21976,-4.369418,2.640805,-5.940014,-0.034240,0.162142,-0.033574
21991,-4.151546,2.480393,-6.165069,-0.047430,0.155747,-0.034107
22006,-4.426879,2.492364,-5.968745,-0.077141,0.138694,-0.000533
22021,-4.410120,2.755726,-5.499481,-0.043567,0.132698,-0.029844
22036,-4.410120,3.016694,-5.774815,-0.074743,0.123905,-0.001066
22051,-4.237737,2.200271,-5.521029,-0.096326,0.118576,0.012790
22066,-4.240131,3.303998,-5.758055,-0.054758,0.091530,-0.006528
22081,-4.096479,2.612074,-6.074090,-0.069147,0.057023,0.007461
22096,-4.295198,2.636016,-5.465962,-0.019985,0.063685,-0.030243
22111,-4.003105,3.315969,-5.959168,-0.045032,0.013323,-0.002665
22126,-3.900155,2.715025,-5.980716,-0.039037,-0.030110,0.017986
22141,-4.355053,2.815581,-5.549759,-0.021717,-0.018652,0.009859
22156,-4.118027,3.464410,-5.846641,-0.013856,-0.038104,0.015721
22171,-4.000711,2.592920,-6.385336,-0.039969,-0.042234,0.042900
22186,-4.103662,3.124433,-5.908890,0.045299,-0.068214,-0.011325
22201,-4.235343,2.825158,-5.925649,0.018253,-0.061420,-0.001199
22216,-4.398149,2.853888,-5.877765,0.031975,-0.063418,-0.016787
22231,-4.254497,2.837129,-5.803545,0.047430,-0.077674,-0.030243
22246,-4.237737,2.738967,-5.861006,0.038104,-0.082737,-0.023449
22261,-4.383783,2.844311,-5.872977,0.044366,-0.088199,-0.019585
22276,-4.405331,2.992752,-5.702988,0.052760,-0.085668,-0.023182
22291,-4.362236,2.631228,-5.822699,0.048230,-0.119775,-0.012923
22306,-4.146757,2.726996,-5.705382,0.045698,-0.135629,-0.020384
22321,-4.276044,2.650381,-5.916072,0.059954,-0.157080,-0.043833
22336,-4.417302,2.731784,-5.865794,0.061819,-0.165074,-0.061819
22351,-4.398149,2.482787,-5.755661,0.048096,-0.189588,-0.072611
22366,-4.479551,2.647987,-5.770026,0.055824,-0.194118,-0.108583
22381,-4.472369,2.554613,-5.853823,0.061953,-0.214636,-0.129501
22396,-4.462792,2.482787,-5.676652,0.044766,-0.217167,-0.127369
22411,-4.505888,2.667141,-5.748478,0.036106,-0.212504,-0.115112
22426,-4.841076,2.700660,-5.762844,0.050095,-0.209573,-0.111381
22441,-4.903325,2.619257,-5.808333,0.040103,-0.176931,-0.092995
22456,-5.020641,2.568978,-5.707777,0.031176,-0.138960,-0.080605
22471,-4.975151,2.631228,-5.813122,0.019452,-0.096193,-0.055691
22486,-5.003881,2.497152,-5.880159,0.012391,-0.057023,-0.033974
22501,-4.932055,2.442086,-5.793968,0.001998,-0.041701,-0.016121
22516,-4.740520,2.616862,-5.726930,0.000666,-0.017853,-0.013590
22531,-4.728548,2.700660,-5.719748,0.027579,-0.007061,-0.032375
22546,-4.783615,2.377442,-5.734113,0.036106,-0.000799,-0.044233
22561,-4.865018,2.229002,-5.702988,-0.000666,0.010792,-0.026913
22576,-4.795586,2.310405,-5.784391,-0.027446,0.027312,-0.015721
22591,-4.716577,2.248155,-5.810728,-0.051560,0.037038,-0.015322
22606,-4.850653,2.226608,-5.693411,-0.076342,0.047297,-0.002665
22621,-4.848258,2.288857,-5.535394,-0.116311,0.055025,0.028911
22636,-4.654328,2.657564,-5.588067,-0.139227,0.072345,0.024914
22651,-4.666299,2.408567,-5.765238,-0.132565,0.072078,0.029711
22666,-4.826711,2.813187,-5.506664,-0.135896,0.087666,0.023049
22681,-4.788404,2.700660,-5.695806,-0.090997,0.098858,-0.009193
22696,-4.685452,2.521094,-5.688623,-0.081404,0.097925,-0.013856
22711,-4.709394,2.415750,-5.777209,-0.098724,0.108051,0.004663
22726,-4.747702,2.463634,-5.698200,-0.114712,0.114979,0.022250
22741,-4.774038,2.552219,-5.695806,-0.105919,0.121507,0.012790
22756,-4.616021,2.686294,-5.746084,-0.077807,0.105919,0.000666
22771,-4.551377,2.573767,-5.779603,-0.078606,0.096992,-0.000533
22786,-4.580108,2.592920,-5.784391,-0.086867,0.101389,0.003864
22801,-4.659116,2.590526,-5.894525,-0.053959,0.074210,-0.018519
22816,-4.678270,2.588132,-5.772420,-0.087266,0.096326,0.001599
22831,-4.556166,2.676718,-5.829881,-0.086067,0.093262,0.014789
22846,-4.637568,2.568978,-5.791574,-0.078207,0.089531,0.003597
22861,-4.570531,2.655170,-5.698200,-0.077541,0.095260,0.008127
22876,-4.548983,2.621651,-5.748478,-0.070346,0.085135,0.000533
22891,-4.616021,2.226608,-5.813122,-0.087933,0.081538,0.009726
22906,-4.596867,2.607285,-5.765238,-0.084069,0.085801,0.007328
22921,-4.742914,2.324770,-5.777209,-0.105519,0.090331,0.025714
22936,-4.575319,2.736573,-5.825093,-0.085668,0.096726,0.017320
22951,-4.539406,2.636016,-5.779603,-0.100723,0.083936,0.041568
22966,-4.556166,2.554613,-5.779603,-0.110315,0.082870,0.057156
22981,-4.469975,2.995146,-5.767632,-0.075675,0.083003,0.044632
22996,-4.474763,2.825158,-5.657498,-0.084202,0.075942,0.038904
23011,-4.489128,2.669535,-5.777209,-0.081404,0.086734,0.033441
23026,-4.577713,2.552219,-5.877765,-0.085401,0.093528,0.032642
23041,-4.671087,2.492364,-5.875371,-0.077141,0.107651,0.022250
23056,-4.618415,2.619257,-5.851429,-0.061953,0.110982,0.009726
23071,-4.455609,2.679112,-5.849035,-0.088199,0.153083,0.026247
23086,-4.393360,2.676718,-5.954380,-0.070479,0.134164,0.010792
23101,-4.515464,2.784456,-5.947197,-0.061953,0.160277,0.003997
23116,-4.280833,2.509123,-6.019023,-0.072611,0.144289,0.013456
23131,-4.443638,2.770091,-5.837064,-0.059821,0.146021,0.016521
23146,-4.297592,2.973598,-5.738902,-0.059421,0.143224,0.024115
23161,-4.357447,2.748544,-5.894525,-0.056623,0.128835,0.027979
23176,-4.539406,2.537854,-5.525817,-0.101789,0.171202,0.043167
23191,-4.050989,3.768473,-5.904101,-0.052227,0.101789,0.000133
23206,-4.462792,2.020706,-5.858612,-0.069946,0.113646,0.050361
23221,-4.271256,2.978387,-5.935226,-0.083270,0.087133,0.057956
23236,-4.132392,3.088520,-5.961562,-0.045432,0.096459,0.042234
23251,-4.062960,2.975993,-5.863400,-0.036505,0.092596,0.035839
23266,-4.134786,3.126827,-5.968745,0.008127,0.091796,0.013590
23281,-4.165911,2.885013,-5.808333,0.020118,0.084735,0.010658
23296,-4.350265,2.877831,-5.956774,0.036639,0.093662,0.019319
23311,-4.355053,2.873042,-6.095637,0.018519,0.062885,0.043167
23326,-4.106056,2.899378,-6.054936,0.013323,0.049828,0.070879
23341,-3.916914,3.021482,-5.916072,0.097392,0.024515,0.044233
23356,-4.237737,2.600103,-6.107608,0.069147,0.065417,0.090198
23371,-3.904943,3.184288,-5.942409,0.152949,0.021717,0.064484
23386,-3.727772,3.023877,-5.904101,0.169470,-0.040769,0.079406
23401,-3.833117,3.050213,-5.956774,0.167472,-0.018652,0.081937
23416,-4.120421,3.074155,-6.253655,0.226093,0.018919,0.032109
23431,-3.960010,2.734178,-6.114791,0.263132,-0.005196,0.000266
23446,-4.017470,2.638410,-5.779603,0.224095,-0.051161,0.009060
23461,-4.264073,2.489970,-5.765238,0.181061,-0.050495,0.024248
23476,-4.333505,2.487576,-5.815516,0.142957,-0.052893,0.029977
23491,-4.199430,2.394202,-5.767632,0.144689,-0.111115,0.013723
23506,-3.842694,2.334347,-6.392519,0.086867,-0.138560,0.042234
23521,-4.371812,2.102109,-5.770026,0.048363,-0.087933,0.063951
23536,-4.314352,2.384625,-5.968745,0.011325,-0.146688,0.088998
23551,-4.204218,2.056619,-5.542577,0.010925,-0.186124,0.070479
23566,-3.715801,2.408567,-5.509058,0.014123,-0.227026,0.046897
23581,-3.715801,2.243367,-5.652710,-0.008926,-0.284315,0.030377
23596,-3.916914,2.410961,-5.628768,-0.012257,-0.347334,-0.012124
23611,-4.438850,2.688689,-5.822699,0.129767,-0.339207,-0.185058
23626,-4.905719,2.260126,-6.414066,0.135363,-0.434734,-0.200113
23641,-5.252879,2.135628,-6.356606,0.011058,-0.274723,-0.118842
23656,-5.430049,2.138022,-6.236896,-0.054891,-0.212637,-0.055291
23671,-4.984728,2.341529,-6.014235,-0.060887,-0.208374,-0.023315
23686,-4.797980,2.528277,-5.817910,-0.077141,-0.152150,0.030110
23701,-4.632780,2.925714,-5.829881,-0.004397,-0.128835,0.017853
23716,-4.491522,2.997540,-5.777209,0.086334,-0.104453,-0.032775
23731,-4.807557,2.331952,-5.748478,0.097659,-0.103654,-0.030910
23746,-4.817134,2.195483,-5.791574,0.062752,-0.103521,-0.007461
23761,-4.647145,2.794033,-5.595249,0.045832,-0.035839,-0.039303
23776,-4.879383,2.346318,-5.784391,0.077940,-0.057423,-0.071279
23791,-4.757279,2.018312,-5.825093,0.050228,-0.063818,-0.071412
23806,-4.702212,2.049437,-5.657498,0.002665,-0.066083,-0.043300
23821,-4.733336,1.886631,-5.597643,-0.017320,-0.094727,-0.004663
23836,-4.836287,1.620875,-6.066907,-0.098325,-0.093528,0.082470
23851,-4.560954,2.767697,-5.621585,-0.148286,-0.077008,0.074609
23866,-4.618415,2.947262,-6.076484,-0.048496,-0.082070,0.040369
23881,-4.544195,2.995146,-5.779603,-0.018919,-0.073410,-0.012124
23896,-4.841076,2.700660,-5.734113,0.023049,-0.023049,-0.044899
23911,-5.042189,2.343923,-5.657498,0.045032,-0.054225,-0.052493
23926,-4.604050,2.327164,-5.724536,0.058888,-0.065283,-0.057023
23941,-4.797980,2.200271,-5.712565,0.036905,-0.045432,-0.039436
23956,-4.886566,2.341529,-5.600038,0.017986,-0.069014,-0.026913
23971,-4.908113,2.200271,-5.676652,0.019585,-0.056490,-0.029311
23986,-4.814740,2.224213,-5.707777,0.002931,-0.062219,-0.019185
24001,-4.812346,2.331952,-5.664681,0.000133,-0.061819,-0.023582
24016,-4.920084,2.219425,-5.705382,-0.013456,-0.056623,-0.019718
24031,-4.948815,2.233790,-5.729324,-0.016121,-0.063951,-0.016920
24046,-4.788404,2.293645,-5.722142,-0.017587,-0.067415,-0.006928
24061,-4.876989,2.317587,-5.667075,-0.017986,-0.073810,0.011858
24076,-4.965574,2.384625,-5.612009,-0.009193,-0.083270,0.021450
24091,-4.960786,2.410961,-5.585672,0.007194,-0.082603,0.032508
24106,-4.757279,2.451663,-5.628768,0.035173,-0.092063,0.017986
24121,-4.867412,2.521094,-5.679046,0.048096,-0.066882,0.011058
24136,-4.991910,2.245761,-5.633556,0.057556,-0.092462,-0.009193
24151,-4.927267,2.126051,-5.652710,0.066482,-0.098058,-0.024781
24166,-4.924873,2.224213,-5.679046,0.043567,-0.086067,-0.015588
24181,-5.082890,1.929726,-5.652710,0.005063,-0.102721,0.010392
24196,-5.087678,2.070984,-5.635951,-0.022649,-0.082070,0.021983
24211,-4.967968,2.238579,-5.571307,-0.017320,-0.077940,0.007994
24226,-4.929661,2.387019,-5.585672,-0.022516,-0.057423,0.013190
24241,-5.035006,2.382231,-5.621585,-0.006662,-0.063951,0.000933
24256,-5.173870,2.324770,-5.619191,-0.011858,-0.033308,0.006129
24271,-5.154716,2.281674,-5.571307,-0.001466,-0.033974,-0.000266
24286,-5.018247,2.319981,-5.573701,0.005596,-0.015188,-0.001998
24301,-5.018247,2.260126,-5.616797,0.001599,-0.018652,-0.003064
24316,-5.066131,2.140416,-5.657498,-0.004263,-0.013456,-0.015055
24331,-5.080496,2.209848,-5.566519,-0.005196,-0.015455,-0.020384
24346,-5.039794,2.197877,-5.559336,-0.001599,-0.017054,-0.030643
24361,-5.056554,2.149993,-5.609614,-0.011058,-0.027579,-0.032508
24376,-5.140351,2.042254,-5.511452,-0.024381,-0.029577,-0.025847
24391,-5.197812,2.059013,-5.585672,-0.042767,-0.025181,-0.010126
24406,-5.109226,2.269703,-5.544971,-0.054358,-0.026779,-0.000266
24421,-5.025429,2.389413,-5.468357,-0.038371,-0.027845,0.003597
24436,-5.164293,2.197877,-5.571307,-0.024781,-0.032242,0.000666
24451,-5.111620,2.284068,-5.523423,-0.011058,-0.030243,0.007594
24466,-5.145139,2.202666,-5.568913,-0.003597,-0.016920,0.008660
24481,-5.056554,2.240973,-5.521029,-0.012790,-0.019052,0.020917
24496,-5.130774,2.159570,-5.576096,-0.018386,-0.014256,0.033708
24511,-5.216965,2.195483,-5.528212,-0.017986,0.003597,0.032642
24526,-5.169081,2.274492,-5.504270,-0.020118,0.019985,0.035573
24541,-5.066131,2.233790,-5.607220,-0.019585,-0.002132,0.034773
24556,-4.977545,2.212242,-5.612009,0.000666,0.022916,0.021983
24571,-5.212177,2.250550,-5.561730,-0.012790,0.016787,0.017853
24586,-5.018247,2.217031,-5.554548,-0.010259,0.005063,0.004796
24601,-5.075707,2.166753,-5.597643,-0.017720,0.015322,-0.005462
24616,-5.094861,2.094926,-5.518635,-0.029311,0.006795,-0.002398
24631,-5.195417,2.123657,-5.614403,-0.037704,0.009459,-0.001732
24646,-5.114015,2.193089,-5.535394,-0.047564,0.011325,0.000400
24661,-5.027823,2.202666,-5.549759,-0.054758,0.010392,0.005329
24676,-5.106832,2.224213,-5.482722,-0.054492,0.019851,0.006395
24691,-5.173870,2.171541,-5.556942,-0.057023,0.019319,0.010392
24706,-5.190629,2.188300,-5.489904,-0.059688,0.026779,0.009060
24721,-5.058948,2.190695,-5.556942,-0.061153,0.035573,0.010792
24736,-5.039794,2.116474,-5.552154,-0.073144,0.036772,0.012524
24751,-5.226542,2.185906,-5.645527,-0.081804,0.040369,0.010792
24766,-5.135562,2.200271,-5.477933,-0.082337,0.034107,0.018386
24781,-5.044583,2.353500,-5.564125,-0.078606,0.029711,0.022516
24796,-5.032612,2.339135,-5.564125,-0.056224,0.016387,0.015055
24811,-5.094861,2.382231,-5.566519,-0.036239,0.012124,0.010658
24826,-5.111620,2.317587,-5.523423,-0.019052,0.004930,0.004263
24841,-5.008670,2.317587,-5.580884,-0.003864,-0.000933,-0.004663
24856,-5.066131,2.238579,-5.549759,-0.003198,-0.002398,-0.007994
24871,-5.145139,2.212242,-5.623980,-0.007194,0.000933,-0.009326
24886,-5.197812,2.178724,-5.542577,-0.025181,0.006928,-0.005329
24901,-5.092467,2.188300,-5.533000,-0.035972,0.011591,0.000266
24916,-5.104438,2.183512,-5.528212,-0.050228,0.016254,0.008660
24931,-5.193023,2.183512,-5.523423,-0.046231,0.028378,0.013190
24946,-5.176264,2.262521,-5.588067,-0.051694,0.034240,0.017054
24961,-5.054160,2.264915,-5.561730,-0.048629,0.041568,0.017187
24976,-4.977545,2.240973,-5.568913,-0.051827,0.042767,0.013456
24991,-5.087678,2.226608,-5.540183,-0.049429,0.042900,0.010126
25006,-5.116409,2.185906,-5.592855,-0.059688,0.039570,0.010925
25021,-5.044583,2.178724,-5.602432,-0.065017,0.041835,0.007328
25036,-5.023035,2.195483,-5.533000,-0.083536,0.043300,0.016787
25051,-5.152322,2.269703,-5.521029,-0.087533,0.043300,0.021450
25066,-5.137957,2.334347,-5.439626,-0.083003,0.042900,0.024381
25081,-5.001487,2.391808,-5.497087,-0.076608,0.040236,0.019985
25096,-4.953603,2.336741,-5.544971,-0.070080,0.031309,0.019851
25111,-5.114015,2.365471,-5.547365,-0.065150,0.031309,0.020917
25126,-5.092467,2.324770,-5.509058,-0.056757,0.025714,0.018386
25141,-4.967968,2.322376,-5.461174,-0.059421,0.028645,0.020118
25156,-4.965574,2.341529,-5.521029,-0.059688,0.034240,0.022783
25171,-5.056554,2.293645,-5.542577,-0.059554,0.037038,0.025314
25186,-5.121197,2.339135,-5.590461,-0.061420,0.037838,0.028112
25201,-5.013458,2.363077,-5.513846,-0.063551,0.040502,0.031443
25216,-5.035006,2.394202,-5.571307,-0.061686,0.042368,0.030243
25231,-5.092467,2.403779,-5.655104,-0.055424,0.048496,0.029844
25246,-5.114015,2.353500,-5.473145,-0.050628,0.054358,0.025980
25261,-5.011064,2.389413,-5.595249,-0.044632,0.051827,0.026913
25276,-4.922479,2.398990,-5.544971,-0.040902,0.055158,0.024248
25291,-4.979939,2.403779,-5.669469,-0.037038,0.051960,0.020118
25306,-4.977545,2.343923,-5.542577,-0.032109,0.045432,0.016654
25321,-5.020641,2.418144,-5.540183,-0.033441,0.041835,0.009060
25336,-4.855441,2.355894,-5.614403,-0.039969,0.030110,0.003464
25351,-4.946421,2.252944,-5.576096,-0.045432,0.017187,0.002931
25366,-5.087678,2.339135,-5.595249,-0.051827,0.008527,0.000666
25381,-4.953603,2.379837,-5.556942,-0.056890,0.001998,-0.004663
25396,-4.934450,2.456451,-5.583278,-0.054358,-0.001998,-0.005995
25411,-5.015852,2.334347,-5.681440,-0.064351,-0.002798,0.001732
25426,-5.200206,2.217031,-5.398925,-0.067015,0.019319,0.016787
25441,-5.037400,2.578555,-5.499481,-0.067548,-0.000533,0.017453
25456,-4.987122,2.604891,-5.494693,-0.026646,-0.005063,0.002531
25471,-5.049371,2.571373,-5.477933,0.018519,-0.005596,-0.004663
25486,-5.164293,2.578555,-5.367800,0.057822,-0.005196,0.007727
25501,-5.037400,2.322376,-5.518635,0.052626,-0.018919,0.050228
25516,-5.729324,2.384625,-5.046977,0.037305,-0.000400,0.094861
25531,-4.733336,2.152387,-5.614403,0.044100,-0.093928,0.146954
25546,-4.987122,2.636016,-5.667075,0.097925,0.031842,0.127769
25561,-6.064513,0.811634,-5.815516,-0.163075,0.182394,0.207041
25576,-4.407725,3.404555,-5.401319,0.166406,-0.014655,0.009726
25591,-4.611232,2.291251,-5.635951,0.237951,0.000133,-0.159877
25606,-5.140351,1.599327,-5.698200,0.173867,0.012524,-0.146821
25621,-5.372589,1.254562,-5.758055,0.052360,-0.001066,-0.053026
25636,-5.125986,1.699883,-5.717353,-0.066616,0.021184,0.047430
25651,-4.862624,2.336741,-5.544971,-0.100190,0.017720,0.066083
25666,-4.987122,2.640805,-5.712565,-0.050228,-0.010658,0.012257
25681,-4.800375,2.535460,-5.442020,-0.008926,-0.016787,-0.034240
25696,-4.817134,2.384625,-5.667075,0.033708,-0.044899,-0.057556
25711,-4.905719,2.276886,-5.492299,0.055691,-0.065417,-0.066482
25726,-5.008670,2.121263,-5.662287,0.066749,-0.076075,-0.061020
25741,-5.161899,2.197877,-5.602432,0.052626,-0.094461,-0.050361
25756,-5.075707,2.303222,-5.580884,0.070479,-0.083802,-0.047830
25771,-5.068525,2.317587,-5.592855,0.078873,-0.099657,-0.048096
25786,-5.159504,2.398990,-5.276821,0.055957,-0.069413,-0.036106
25801,-5.173870,2.286463,-5.518635,0.099257,-0.089398,-0.053292
25816,-4.876989,2.243367,-5.643133,0.115245,-0.095127,-0.073410
25831,-4.991910,2.140416,-5.609614,0.128035,-0.088599,-0.102855
25846,-5.123591,2.118868,-5.535394,0.132299,-0.102188,-0.131766
25861,-5.240908,1.920150,-5.561730,0.124704,-0.112714,-0.141092
25876,-5.293580,1.790863,-5.535394,0.098458,-0.115645,-0.128968
25891,-5.202600,1.824382,-5.528212,0.069014,-0.108983,-0.093928
25906,-5.355829,1.831564,-5.533000,0.052626,-0.099790,-0.068081
25921,-5.324705,2.042254,-5.671864,0.057822,-0.092596,-0.055691
25936,-5.164293,2.142811,-5.425261,0.069680,-0.100456,-0.055158
25951,-5.164293,2.233790,-5.485116,0.121640,-0.107118,-0.094727
25966,-5.181052,2.049437,-5.451597,0.143357,-0.123905,-0.124838
25981,-5.377377,1.769315,-5.722142,0.151750,-0.119642,-0.144956
25996,-5.482722,1.663970,-5.549759,0.120175,-0.093662,-0.146821
26011,-5.288792,1.556231,-5.607220,0.080605,-0.045565,-0.131899
26026,-5.477933,1.582567,-5.535394,0.033175,-0.032375,-0.115511
26041,-5.432444,1.606509,-5.559336,-0.003464,-0.000533,-0.106585
26056,-5.360618,1.716643,-5.468357,-0.017587,0.006262,-0.098591
26071,-5.343858,1.872266,-5.382165,-0.008260,-0.011724,-0.117243
26086,-5.389348,1.810017,-5.439626,0.007727,-0.000266,-0.085268
26101,-5.461174,1.824382,-5.477933,0.012657,-0.005196,-0.065683
26116,-5.300763,2.018312,-5.262455,0.047430,0.016521,-0.077940
26131,-5.420473,1.826776,-5.315128,0.066882,-0.006795,-0.085135
26146,-5.437232,1.577779,-5.580884,0.082337,-0.026779,-0.084868
26161,-5.396531,1.568202,-5.367800,0.082070,-0.012257,-0.079406
26176,-5.511452,1.618480,-5.544971,0.059021,-0.013323,-0.066349
26191,-5.394136,1.517924,-5.516241,0.052626,-0.013723,-0.066882
26206,-5.533000,1.438915,-5.374983,0.027312,-0.019452,-0.038504
26221,-5.583278,1.285686,-5.463568,0.003464,-0.008127,-0.007328
26236,-5.537788,1.539472,-5.547365,-0.008394,-0.004130,0.015721
26251,-5.322310,1.735796,-5.458780,0.006662,-0.016387,0.022783
26266,-5.322310,1.790863,-5.444415,0.043833,-0.025714,0.013989
26281,-5.355829,1.841141,-5.511452,0.085934,-0.036505,-0.016121
26296,-5.413290,1.802834,-5.544971,0.135096,-0.041168,-0.061420
26311,-5.216965,1.781286,-5.635951,0.162009,-0.069813,-0.106985
26326,-5.360618,1.565808,-5.446809,0.179063,-0.083536,-0.150818
26341,-5.571307,1.213860,-5.425261,0.158545,-0.075542,-0.150685
26356,-5.671864,1.156399,-5.281609,0.119109,-0.020118,-0.106585
26371,-5.592855,0.842759,-5.453991,0.052360,-0.021184,-0.034240
26386,-5.822699,0.809240,-5.463568,-0.027579,0.056357,0.028511
26401,-5.640739,0.936133,-5.339070,-0.107384,0.070080,0.092596
26416,-5.705382,1.101333,-5.444415,-0.168138,0.109516,0.128968
26431,-5.578490,1.213860,-5.468357,-0.203044,0.118443,0.145222
26446,-5.592855,1.450886,-5.554548,-0.211838,0.138560,0.138827
26461,-5.463568,1.572991,-5.523423,-0.209306,0.148153,0.114979
26476,-5.274426,1.561020,-5.535394,-0.213037,0.158012,0.091397
26491,-5.432444,1.448492,-5.542577,-0.232622,0.168671,0.078074
26506,-5.463568,1.347936,-5.537788,-0.260734,0.187989,0.067282
26521,-5.322310,1.383849,-5.497087,-0.296040,0.195450,0.063152
26536,-5.279215,1.410185,-5.561730,-0.337741,0.205709,0.069680
26551,-5.281609,1.496376,-5.537788,-0.365986,0.203577,0.077274
26566,-5.331887,1.750161,-5.535394,-0.375046,0.214103,0.069147
26581,-5.291186,1.845930,-5.564125,-0.367319,0.199181,0.052493
26596,-5.293580,1.857901,-5.494693,-0.358658,0.200513,0.048230
26611,-5.319916,1.733402,-5.446809,-0.339606,0.251407,0.085002
26626,-5.343858,1.922544,-5.509058,-0.385305,0.310296,0.104986
26641,-5.097255,2.109292,-5.592855,-0.352796,0.223962,0.057423
26656,-5.023035,2.018312,-5.547365,-0.353196,0.218632,0.056757
26671,-5.030218,2.217031,-5.528212,-0.339873,0.226893,0.041035
26686,-5.037400,2.456451,-5.513846,-0.281384,0.170536,0.010792
26701,-4.903325,2.473210,-5.588067,-0.228358,0.139493,-0.012124
26716,-4.707000,2.427721,-5.580884,-0.158412,0.084735,-0.040902
26731,-4.982334,2.276886,-5.659893,-0.163475,0.073544,-0.015721
26746,-4.936844,2.233790,-5.623980,-0.157479,0.066749,-0.013456
26761,-4.838682,2.226608,-5.535394,-0.125770,0.029044,-0.037305
26776,-4.860229,2.353500,-5.664681,-0.118576,0.013856,-0.044766
26791,-4.872200,2.346318,-5.674258,-0.108717,-0.002665,-0.061953
26806,-5.085284,2.315193,-5.609614,-0.081804,-0.008793,-0.074609
26821,-5.030218,2.293645,-5.619191,-0.073277,-0.011858,-0.075942
26836,-4.984728,2.205060,-5.621585,-0.079672,-0.010126,-0.064750
26851,-5.099649,2.149993,-5.602432,-0.072078,-0.003464,-0.062885
26866,-5.209783,1.977611,-5.623980,-0.089665,0.017720,-0.057689
26881,-5.147533,2.109292,-5.621585,-0.114446,0.027312,-0.045832
26896,-5.102044,1.922544,-5.638345,-0.131233,0.040902,-0.045698
26911,-5.003881,2.140416,-5.691017,-0.150551,0.047963,-0.043167
26926,-5.106832,2.080561,-5.664681,-0.163342,0.029311,-0.052093
26941,-5.102044,2.181118,-5.485116,-0.174000,0.019185,-0.055025
26956,-5.032612,2.250550,-5.655104,-0.167072,0.010525,-0.074210
26971,-4.869806,2.336741,-5.659893,-0.156547,-0.003864,-0.077807
26986,-5.104438,2.214637,-5.681440,-0.182926,0.009193,-0.071678
27001,-5.090073,2.128445,-5.600038,-0.213836,0.025181,-0.057956
27016,-5.037400,2.118868,-5.482722,-0.205443,0.055424,-0.073277
27031,-5.056554,2.387019,-5.633556,-0.192119,0.040902,-0.071945
27046,-5.075707,2.243367,-5.590461,-0.171069,0.045032,-0.083802
27061,-5.116409,2.147599,-5.410896,-0.183060,0.025847,-0.057956
27076,-5.025429,2.530671,-5.482722,-0.125504,0.002931,-0.058222
27091,-4.922479,2.497152,-5.588067,-0.143757,-0.000666,0.006928
27106,-5.039794,2.516306,-5.535394,-0.123772,-0.002665,0.025580
27121,-5.013458,2.705448,-5.494693,-0.084469,-0.010925,0.023449
27136,-4.855441,2.758120,-5.487510,-0.037571,-0.025047,0.010392
27151,-4.876989,2.650381,-5.509058,0.005596,-0.048896,-0.010792
27166,-5.063736,2.494758,-5.523423,0.040902,-0.064884,-0.029178
27181,-5.121197,2.351106,-5.542577,0.054625,-0.087266,-0.030110
27196,-5.111620,2.439692,-5.449203,0.074743,-0.093395,-0.028511
27211,-5.123591,2.406173,-5.451597,0.086467,-0.093662,-0.025447
27226,-5.099649,2.415750,-5.540183,0.108583,-0.108184,-0.030243
27241,-5.245696,2.159570,-5.487510,0.103521,-0.104187,-0.019452
27256,-5.128380,2.276886,-5.494693,0.088599,-0.091263,-0.004263
27271,-5.123591,2.463634,-5.329493,0.098591,-0.082337,-0.005329
27286,-5.116409,2.559402,-5.341464,0.117643,-0.067548,-0.027845
27301,-5.240908,2.329558,-5.535394,0.119242,-0.078606,-0.044499
27316,-5.145139,2.092532,-5.595249,0.117510,-0.063551,-0.045698
27331,-5.178658,1.936909,-5.449203,0.113513,-0.072345,-0.034240
27346,-5.291186,2.011129,-5.482722,0.108051,-0.050361,-0.015055
27361,-5.312734,2.149993,-5.430049,0.101389,-0.045032,-0.010792
27376,-5.262455,2.154782,-5.434838,0.095127,-0.048763,-0.004397
27391,-5.104438,2.341529,-5.477933,0.102988,-0.063551,0.004130
27406,-5.209783,2.243367,-5.559336,0.134430,-0.070080,0.000000
27421,-5.245696,2.221819,-5.516241,0.152150,-0.076874,-0.006662
27436,-5.140351,2.408567,-5.458780,0.174133,-0.078207,-0.032508
27451,-5.082890,2.231396,-5.442020,0.205043,-0.080871,-0.051960
27466,-5.298368,2.070984,-5.530606,0.205709,-0.084735,-0.065417
27481,-5.367800,1.793257,-5.511452,0.197315,-0.069413,-0.072611
27496,-5.394136,1.649605,-5.595249,0.159211,-0.075942,-0.071145
27511,-5.377377,1.651999,-5.487510,0.124571,-0.064884,-0.047164
27526,-5.379771,1.733402,-5.482722,0.106985,-0.057822,-0.037704
27541,-5.451597,1.948880,-5.470751,0.107784,-0.060620,-0.037172
27556,-5.260061,2.061408,-5.444415,0.115245,-0.055424,-0.045165
27571,-5.245696,2.037466,-5.439626,0.133098,-0.065150,-0.047564
27586,-5.272032,1.948880,-5.449203,0.154149,-0.060620,-0.059554
27601,-5.358223,1.917755,-5.576096,0.183992,-0.071012,-0.076741
27616,-5.264850,2.099715,-5.770026,0.220897,-0.073410,-0.094861
27631,-5.061342,1.845930,-5.595249,0.274989,-0.081671,-0.120974
27646,-5.449203,1.752556,-5.499481,0.297639,-0.123505,-0.113913
27661,-5.535394,1.551443,-5.365406,0.312427,-0.118576,-0.080738
27676,-5.583278,1.561020,-5.255273,0.304167,-0.148420,-0.033308
27691,-5.492299,1.482011,-5.238513,0.283250,-0.139893,0.001865
27706,-5.480328,1.680730,-5.300763,0.273524,-0.244879,-0.031709
27721,-5.834670,1.328782,-5.348647,0.240616,-0.166672,0.044499
27736,-5.535394,1.410185,-5.485116,0.235819,-0.102322,0.049828
27751,-5.403713,1.582567,-5.425261,0.239683,-0.100057,0.032508
27766,-5.485116,1.623269,-5.537788,0.226760,-0.107784,-0.047164
27781,-5.662287,1.335965,-5.638345,0.258735,-0.122306,-0.113913
27796,-5.729324,1.187524,-5.597643,0.258069,-0.139360,-0.119775
27811,-5.556942,0.984017,-5.178658,0.216234,-0.093129,-0.116044
27826,-5.861006,0.792481,-5.267244,0.133231,-0.084868,-0.071412
27841,-5.880159,0.840365,-5.295974,0.069014,-0.011191,-0.039170
27856,-5.803545,0.914585,-5.365406,0.009459,-0.008926,-0.019452
27871,-5.631162,1.074997,-5.410896,-0.017187,0.016387,-0.025447
27886,-5.667075,1.113304,-5.477933,-0.039969,0.022516,-0.036106
27901,-5.741296,1.139640,-5.461174,-0.058222,0.033708,-0.049162
27916,-5.714959,1.271321,-5.583278,-0.052760,0.015721,-0.066349
27931,-5.549759,1.139640,-5.430049,-0.065816,0.021583,-0.073810
27946,-5.626374,1.192312,-5.434838,-0.070346,0.035440,-0.069680
27961,-5.700594,1.115698,-5.396531,-0.066882,0.025447,-0.066216
27976,-5.614403,1.197101,-5.329493,-0.070613,0.028911,-0.053692
27991,-5.554548,1.369483,-5.635951,-0.003864,-0.036905,-0.059155
28006,-5.513846,1.223437,-5.030218,-0.055824,0.072345,-0.057289
28021,-5.753267,1.223437,-5.149928,-0.070080,0.023449,-0.029044
28036,-5.841852,1.000776,-5.238513,-0.053692,0.044499,-0.018786
28051,-5.681440,1.110910,-5.224148,-0.091663,0.079806,0.004663
28066,-5.604826,1.122881,-5.293580,-0.106185,0.084735,0.015188
28081,-5.681440,1.098939,-5.418078,-0.115911,0.115112,0.012923
28096,-5.602432,1.027112,-5.418078,-0.135363,0.112447,0.012923
28111,-5.578490,1.161188,-5.446809,-0.144023,0.123505,0.011724
28126,-5.602432,1.113304,-5.463568,-0.158279,0.134430,0.002798
28141,-5.635951,1.199495,-5.513846,-0.156413,0.110848,0.003198
28156,-5.647922,1.244985,-5.329493,-0.136029,0.122573,0.012124
28171,-5.521029,1.405396,-5.322310,-0.133364,0.116044,0.027046
28186,-5.482722,1.455675,-5.363012,-0.114446,0.102322,0.037704
28201,-5.516241,1.431733,-5.461174,-0.088466,0.085934,0.043433
28216,-5.499481,1.527501,-5.408502,-0.061020,0.071945,0.041701
28231,-5.456386,1.522712,-5.425261,-0.036239,0.062885,0.039303
28246,-5.255273,1.551443,-5.453991,-0.024781,0.056224,0.016121
28261,-5.580884,1.434127,-5.521029,-0.019185,0.052227,-0.006528
28276,-5.533000,1.278504,-5.556942,-0.025980,0.053559,-0.026247
28291,-5.530606,1.089362,-5.468357,-0.061819,0.074343,-0.031443
28306,-5.482722,0.950498,-5.571307,-0.108317,0.091663,-0.033175
28321,-5.595249,1.039083,-5.420473,-0.151884,0.121374,-0.022649
28336,-5.592855,1.082179,-5.523423,-0.190654,0.130433,-0.012657
28351,-5.348647,1.364695,-5.580884,-0.194251,0.160810,-0.024115
28366,-5.401319,1.213860,-5.504270,-0.180395,0.118043,-0.047031
28381,-5.329493,1.611298,-5.552154,-0.143357,0.077674,-0.063418
28396,-5.456386,1.628057,-5.291186,-0.113113,0.111648,-0.066482
28411,-5.554548,1.331176,-5.482722,-0.159078,0.097259,-0.043567
28426,-5.370194,0.797269,-5.892130,-0.154015,0.063951,-0.017320
28441,-5.470751,1.726219,-5.262455,-0.198115,0.160943,-0.002265
28456,-5.430049,1.170765,-5.566519,-0.190521,0.078473,0.008260
28471,-5.535394,1.422156,-5.398925,-0.240216,0.189855,0.034374
28486,-5.245696,1.182736,-5.394136,-0.254738,0.120841,0.043300
28501,-5.353435,1.364695,-5.791574,-0.273391,0.209173,0.050628
