T,AX,AY,AZ,GX,GY,GZ
46,-4.029441,-1.345541,-6.495469,-0.049429,0.021317,-0.012391
61,-3.988740,-1.321599,-6.476315,-0.057956,0.033841,-0.009060
76,-3.928885,-1.187524,-6.555324,-0.063018,0.049429,0.000133
91,-3.964798,-1.036689,-6.600814,-0.075276,0.061420,0.005063
106,-4.019865,-1.125275,-6.581660,-0.048629,0.072744,-0.005995
121,-3.837905,-1.261744,-6.629544,-0.029178,0.080738,-0.013057
136,-3.734955,-1.347936,-6.540959,-0.050228,0.077407,0.002798
151,-3.739743,-1.254562,-6.610391,-0.068881,0.082870,0.009859
166,-3.892972,-1.309628,-6.612785,-0.078207,0.056224,0.006129
181,-3.916914,-1.221043,-6.567295,-0.081804,0.072345,0.010925
196,-3.809175,-1.096544,-6.622362,-0.078873,0.065283,0.008926
211,-3.813963,-1.103727,-6.552930,-0.063018,0.081404,0.005596
226,-3.854665,-1.151611,-6.567295,-0.051294,0.086467,0.003730
241,-3.806781,-0.955286,-6.497863,-0.047697,0.072744,-0.008926
256,-3.801992,-1.180341,-6.567295,-0.040902,0.061020,-0.022383
271,-3.763685,-1.297657,-6.538565,-0.035173,0.055158,-0.029844
286,-3.864241,-1.312023,-6.548141,-0.059821,0.040769,-0.027579
301,-3.792415,-1.161188,-6.598420,-0.067548,0.047963,-0.027979
316,-3.809175,-1.151611,-6.540959,-0.065949,0.037172,-0.035306
331,-3.742137,-1.142034,-6.574478,-0.064884,0.056490,-0.032642
346,-3.864241,-1.209072,-6.639121,-0.060887,0.056490,-0.034240
361,-3.830723,-1.108515,-6.667851,-0.045698,0.071279,-0.036106
376,-3.581726,-1.163582,-6.727706,-0.043034,0.044766,-0.040502
391,-3.564966,-1.206678,-6.655880,-0.042101,0.035040,-0.036772
406,-3.687071,-1.256956,-6.572083,-0.051028,0.017986,-0.033308
421,-3.696647,-0.866701,-6.584054,-0.055025,0.009726,-0.034107
436,-3.758897,-1.067814,-6.622362,-0.052093,0.003064,-0.038104
451,-3.811569,-1.132457,-6.528988,-0.037571,0.027312,-0.034640
466,-3.914520,-1.237802,-6.634333,-0.041435,0.020518,-0.027046
481,-3.842694,-1.180341,-6.588843,-0.037438,0.026513,-0.025447
496,-3.773262,-1.204283,-6.550536,-0.045565,0.015721,-0.020651
511,-3.658340,-1.074997,-6.646304,-0.031576,0.012124,-0.024648
526,-3.632004,-1.094150,-6.667851,-0.030643,-0.000133,-0.019851
541,-3.737349,-1.187524,-6.596025,-0.015855,0.009593,-0.008793
556,-3.732560,-1.120486,-6.528988,-0.011724,0.016254,0.003064
571,-3.617639,-1.144428,-6.538565,-0.007194,0.018786,0.000666
586,-3.679888,-1.139640,-6.576872,-0.006129,0.012923,0.001998
601,-3.804386,-1.127669,-6.646304,-0.006795,-0.000533,0.002265
616,-3.699042,-1.115698,-6.562507,-0.000400,-0.010259,-0.005462
631,-3.617639,-1.108515,-6.631938,0.016121,-0.019985,0.000000
646,-3.639187,-1.029507,-6.538565,0.039037,-0.043966,0.001066
661,-3.845088,-1.120486,-6.629544,0.062885,-0.060354,-0.004796
676,-3.782839,-1.209072,-6.596025,0.071678,-0.070479,-0.008527
691,-3.758897,-1.252167,-6.572083,0.064351,-0.065417,-0.005729
706,-3.799598,-1.400608,-6.641515,0.049695,-0.056224,-0.004663
721,-4.039018,-1.398214,-6.562507,0.028645,-0.035972,-0.002265
736,-3.926491,-1.280898,-6.567295,0.019985,-0.027046,-0.002398
751,-3.828328,-1.235408,-6.540959,0.027179,-0.012923,-0.008926
766,-3.873818,-1.271321,-6.588843,0.029977,-0.005063,-0.013723
781,-3.936068,-1.376666,-6.560112,0.020518,0.009326,-0.005462
796,-3.864241,-1.374272,-6.574478,0.013057,0.012524,0.002265
811,-3.703830,-1.278504,-6.454768,0.004796,0.005462,0.004130
826,-3.694253,-1.383849,-6.531382,-0.001599,-0.001466,0.001732
841,-3.861847,-1.472434,-6.579266,-0.020917,-0.012124,0.011991
856,-3.804386,-1.359907,-6.517017,-0.034107,-0.013590,0.011191
871,-3.785233,-1.326388,-6.593631,-0.037704,-0.015055,0.016521
886,-3.857059,-1.393425,-6.610391,-0.047430,-0.003331,0.019185
901,-3.916914,-1.247379,-6.572083,-0.035306,0.001998,0.014655
916,-3.948039,-1.244985,-6.555324,-0.019851,0.003997,-0.002265
931,-3.881001,-1.333570,-6.502652,-0.020251,0.009193,-0.015188
946,-3.912126,-1.450886,-6.536170,-0.038504,0.021184,-0.012790
961,-3.995923,-1.424550,-6.560112,-0.056890,0.027179,-0.005063
976,-3.900155,-1.259350,-6.540959,-0.056623,0.039303,-0.008660
991,-3.792415,-1.218649,-6.507440,-0.052493,0.040769,-0.011325
1006,-3.711013,-1.266533,-6.552930,-0.051827,0.047564,-0.008926
1021,-3.801992,-1.288080,-6.512228,-0.050495,0.041168,-0.003198
1036,-3.849876,-1.347936,-6.521805,-0.039836,0.029178,-0.011991
1051,-3.794810,-1.331176,-6.545747,-0.052227,0.018119,-0.006662
1066,-3.737349,-1.388637,-6.567295,-0.074876,0.020651,0.006662
1081,-3.864241,-1.285686,-6.648698,-0.072078,0.009859,0.005462
1096,-3.936068,-1.225831,-6.555324,-0.066749,0.021184,0.005596
1111,-3.943250,-1.223437,-6.591237,-0.064484,0.022116,0.000666
1126,-3.857059,-1.206678,-6.569689,-0.056090,0.034374,0.002265
1141,-3.849876,-1.211466,-6.497863,-0.052760,0.030643,0.005063
1156,-3.950433,-1.197101,-6.679822,-0.041435,0.038371,0.003198
1171,-3.869030,-1.197101,-6.521805,-0.031043,0.045432,0.002931
1186,-3.744531,-1.185130,-6.572083,-0.023182,0.039037,0.013057
1201,-3.833117,-1.108515,-6.476315,-0.011591,0.038904,0.008527
1216,-3.955221,-1.328782,-6.572083,-0.004263,0.041035,0.005995
1231,-3.821146,-1.431733,-6.490681,-0.019319,0.054891,0.017986
1246,-3.677494,-1.108515,-6.557718,-0.011991,0.045032,0.012790
1261,-3.847482,-1.312023,-6.586449,-0.011058,0.041568,-0.001599
1276,-3.904943,-1.520318,-6.507440,-0.037038,0.060221,0.014123
1291,-3.857059,-1.252167,-6.581660,-0.053159,0.077541,0.019851
1306,-3.725378,-1.242591,-6.581660,-0.039969,0.079139,0.004130
1321,-3.675100,-1.261744,-6.536170,-0.037971,0.070613,-0.000400
1336,-3.722984,-1.434127,-6.607996,-0.045565,0.042767,0.006662
1351,-3.730166,-1.218649,-6.536170,-0.053159,0.032375,0.014522
1366,-3.703830,-1.249773,-6.591237,-0.040103,0.019718,0.009459
1381,-3.809175,-1.268927,-6.641515,-0.034773,0.027579,0.004796
1396,-3.801992,-1.292869,-6.605602,-0.036639,0.024115,0.006662
1411,-3.847482,-1.343147,-6.617573,-0.040636,0.038237,0.007727
1426,-3.763685,-1.230620,-6.622362,-0.047031,0.038237,0.014256
1441,-3.756502,-1.249773,-6.584054,-0.057556,0.051294,0.024115
1456,-3.897760,-1.359907,-6.643909,-0.071012,0.068747,0.039436
1471,-3.971981,-1.364695,-6.696582,-0.108583,0.093129,0.069813
1486,-4.005499,-1.374272,-6.751649,-0.144956,0.142557,0.116311
1501,-4.106056,-1.288080,-6.811504,-0.181061,0.206508,0.168138
1516,-3.806781,-1.022324,-7.115567,-0.199314,0.291776,0.205176
1531,-4.187459,-0.897826,-6.629544,-0.122440,0.306698,0.190654
1546,-3.371036,-0.854730,-6.584054,-0.104187,0.253672,0.198115
1561,-3.605668,-0.986411,-6.761226,-0.088599,0.278587,0.217433
1576,-3.988740,-1.101333,-6.770802,-0.102455,0.292576,0.249409
1591,-3.739743,-0.881066,-6.933608,-0.121374,0.324951,0.261266
1606,-3.342305,-0.778116,-7.053318,-0.115112,0.362123,0.247544
1621,-3.363853,-0.928950,-6.701370,-0.113380,0.359991,0.217833
1636,-3.301604,-0.986411,-6.722918,-0.112580,0.351331,0.199980
1651,-3.536236,-0.926556,-6.888118,-0.138427,0.362256,0.201446
1666,-3.593697,-1.022324,-7.115567,-0.212637,0.395697,0.239017
1681,-3.450045,-1.063026,-7.673416,-0.341472,0.492556,0.288046
1696,-3.720589,-0.818817,-7.448361,-0.536789,0.506012,0.351730
1711,-3.679888,-0.699107,-7.627926,-0.708657,0.547447,0.404623
1726,-3.909731,-1.130063,-8.034941,-0.893982,0.602072,0.472838
1741,-4.118027,-1.041478,-8.106767,-1.086234,0.604870,0.562369
1756,-3.418920,-0.806846,-9.148245,-1.334577,0.563568,0.718783
1771,-4.180276,-1.711854,-10.058042,-1.698565,0.562369,0.940613
1786,-3.593697,-0.670376,-9.246407,-1.907472,0.542251,1.106885
1801,-3.090914,0.648829,-9.339781,-1.824868,0.530793,1.134864
1816,-3.009511,1.697489,-9.287108,-1.378011,0.416614,0.982314
1831,-2.863465,2.367865,-9.373300,-0.862273,0.485095,0.641642
1846,-2.920926,1.671153,-8.511387,-0.449655,0.489758,0.435400
1861,-2.554613,1.575385,-8.094796,-0.164940,0.560104,0.121640
1876,-2.279280,0.385466,-7.795521,0.035972,0.394631,0.092462
1891,-2.734178,0.442927,-7.208941,-0.128835,0.343337,0.062885
1906,-2.935291,0.890643,-7.805098,-0.193985,0.361456,0.107518
1921,-2.001553,0.861913,-7.426814,-0.058489,0.395830,0.188256
1936,-1.893813,1.738190,-7.249643,-0.218100,0.337075,0.055424
1951,-1.879448,1.498770,-7.563283,-0.417680,0.403691,-0.044233
1966,-1.987187,1.316811,-5.853823,-0.168937,0.082603,0.189721
1981,-1.079785,1.742979,-6.718130,-0.330680,-0.459515,0.075809
1996,-2.102109,1.414973,-6.698976,-0.355328,-0.826167,0.111115
2011,-2.535460,0.845153,-6.794744,-0.415815,-0.814576,0.180795
2026,-2.837129,1.297657,-6.967127,-0.551311,-0.608867,0.211971
2041,-2.248155,1.283292,-6.845023,-0.483763,-0.927556,0.366519
2056,-2.834735,1.173159,-6.339846,-0.308031,-0.964727,0.478966
2071,-1.910573,1.872266,-6.756437,-0.311761,-1.065583,0.221697
2086,-3.658340,1.709460,-6.299145,-0.228758,-0.759018,0.162009
2101,-1.790863,1.537077,-6.392519,-0.174400,-0.795124,0.171335
2116,-2.604891,1.206678,-6.150704,-0.161343,-0.870666,0.177198
2131,-2.104503,1.180341,-6.172252,-0.297372,-0.911701,0.159078
2146,-3.160346,1.398214,-5.566519,-0.402625,-1.071446,0.217300
2161,-2.839523,1.812411,-5.736507,-0.357193,-0.918896,0.193319
2176,-2.822764,2.152387,-5.631162,-0.277654,-0.932619,0.156014
2191,-3.026271,2.317587,-5.334281,-0.082204,-0.864138,0.036106
2206,-2.966416,1.759738,-5.051765,-0.006262,-0.851081,0.036639
2221,-3.124433,1.601721,-5.341464,-0.078740,-0.710789,0.054891
2236,-3.567360,1.510741,-5.458780,-0.137228,-0.748227,0.112447
2251,-3.598485,1.929726,-5.808333,-0.191453,-0.593279,0.102322
2266,-3.730166,2.849100,-5.904101,-0.107651,-0.443394,0.022250
2281,-3.651158,2.942474,-5.509058,0.110582,-0.565433,-0.083936
2296,-3.756502,2.480393,-5.746084,0.210505,-0.452453,-0.184658
2311,-3.421314,2.557007,-5.928043,0.239550,-0.459248,-0.270060
2326,-3.347094,2.580949,-5.774815,0.294041,-0.454452,-0.352130
2341,-3.622427,2.236184,-5.820304,0.344802,-0.426740,-0.397828
2356,-3.689465,1.867477,-5.702988,0.335743,-0.411018,-0.387436
2371,-4.096479,1.640028,-5.655104,0.208507,-0.402225,-0.269660
2386,-4.273650,1.448492,-6.069301,0.054092,-0.347067,-0.130966
2401,-4.115633,2.054225,-5.846641,-0.068348,-0.397296,-0.026247
2416,-4.144363,2.626439,-5.578490,-0.031176,-0.433002,-0.027179
2431,-4.185064,2.671929,-5.434838,0.046764,-0.458848,-0.052493
2446,-4.424485,2.305616,-5.679046,0.087000,-0.430337,-0.076075
2461,-4.707000,2.164358,-5.506664,0.024781,-0.381707,-0.075675
2476,-5.049371,1.963245,-5.432444,-0.025580,-0.273657,-0.096992
2491,-5.001487,2.252944,-5.401319,-0.039703,-0.222629,-0.121907
2506,-4.838682,2.422932,-5.415684,0.014922,-0.171735,-0.162009
2521,-4.920084,2.334347,-5.243302,0.114845,-0.156413,-0.208240
2536,-5.097255,2.111686,-5.238513,0.179729,-0.108583,-0.241815
2551,-5.207388,1.237802,-4.845864,0.105253,-0.050495,-0.241415
2566,-5.245696,1.027112,-5.154716,-0.173734,-0.036905,-0.125104
2581,-5.341464,1.577779,-5.310339,-0.308031,-0.001066,-0.080338
2596,-5.341464,1.742979,-5.549759,-0.327616,-0.004130,-0.061020
2611,-5.212177,1.936909,-5.614403,-0.257270,-0.005329,-0.061286
2626,-4.898537,1.735796,-5.849035,-0.158145,-0.000933,-0.068614
2641,-4.797980,1.515530,-6.009446,-0.091930,-0.014522,-0.051694
2656,-4.843470,1.410185,-6.086061,-0.047963,-0.014256,-0.017187
2671,-4.831499,1.805228,-6.095637,0.042900,-0.009859,-0.008127
2686,-4.630386,2.047042,-6.009446,0.208773,0.000799,-0.013856
2701,-4.469975,2.161964,-5.525817,0.422343,-0.008394,-0.146954
2716,-4.563348,0.670376,-5.358223,0.339207,0.031176,-0.148819
2731,-4.879383,0.275333,-5.585672,-0.015322,0.019851,-0.026247
2746,-4.680664,1.194707,-5.657498,-0.258335,0.041701,0.028378
2761,-4.460398,1.912967,-5.415684,-0.240482,-0.098991,0.020251
2776,-4.649539,2.224213,-5.571307,-0.160943,-0.081937,-0.027579
2791,-4.891354,2.092532,-5.667075,-0.003730,-0.105386,-0.079539
2806,-4.934450,1.745373,-5.664681,0.097392,-0.102855,-0.085934
2821,-5.066131,1.556231,-5.695806,0.120308,-0.068747,-0.077807
2836,-5.238513,1.553837,-5.456386,0.185058,-0.014522,-0.100989
2851,-5.171475,1.285686,-5.327099,0.214103,0.039436,-0.137628
2866,-5.035006,0.749385,-5.216965,0.069413,0.077141,-0.093528
2881,-5.149928,0.737414,-5.382165,-0.133098,0.119775,-0.019185
2896,-5.260061,1.173159,-5.415684,-0.269926,0.132165,0.023449
2911,-5.224148,1.754950,-5.463568,-0.279253,0.121907,0.018919
2926,-4.977545,2.233790,-5.427655,-0.181328,0.093528,-0.022383
2941,-5.030218,2.521094,-5.451597,0.009193,0.045698,-0.108051
2956,-5.049371,1.798045,-5.442020,0.129501,0.017320,-0.159611
2971,-5.190629,1.323994,-5.451597,0.114446,0.000266,-0.145622
2986,-5.169081,1.084573,-5.525817,0.033175,0.025047,-0.116311
3001,-5.176264,1.048660,-5.561730,-0.061686,0.063285,-0.076475
3016,-5.228936,1.163582,-5.698200,-0.107251,0.109649,-0.052760
3031,-5.303157,1.297657,-5.746084,-0.106851,0.139093,-0.044632
3046,-5.166687,1.484405,-5.779603,-0.061020,0.156813,-0.067948
3061,-5.073313,1.259350,-5.748478,-0.058622,0.158412,-0.059288
3076,-5.152322,1.295263,-5.920861,-0.050894,0.149885,-0.046364
3091,-4.936844,1.158794,-6.241684,-0.059021,0.165740,-0.089931
3106,-5.367800,1.031901,-6.045359,-0.071145,0.106052,-0.009459
3121,-4.869806,1.213860,-6.093243,-0.093262,0.102055,0.006262
3136,-4.802769,1.477222,-6.086061,-0.060354,0.075809,-0.022916
3151,-4.939238,1.218649,-6.112397,-0.048096,0.040236,-0.022649
3166,-4.951209,1.297657,-6.038177,-0.054625,0.011591,-0.006395
3181,-4.853047,1.383849,-6.131550,-0.035573,-0.005329,0.000933
3196,-4.987122,1.326388,-6.076484,-0.009326,-0.029178,-0.002531
3211,-5.200206,1.285686,-5.896919,-0.010392,-0.030510,0.015855
3226,-5.262455,1.386243,-5.856217,-0.027312,-0.005329,0.029044
3241,-5.164293,1.367089,-5.743690,-0.040636,0.013856,0.029577
3256,-5.104438,1.450886,-5.846641,-0.064884,0.029044,0.036639
3271,-5.121197,1.496376,-5.693411,-0.069946,0.034240,0.020651
3286,-4.977545,1.484405,-5.710171,-0.078873,0.032508,0.012923
3301,-4.783615,1.697489,-5.702988,-0.050761,0.015988,0.000000
3316,-4.860229,1.541866,-5.662287,-0.015988,0.010792,-0.006129
3331,-5.013458,1.400608,-5.702988,0.007061,0.015988,0.000400
3346,-4.927267,1.288080,-5.724536,-0.007861,0.025714,0.013856
3361,-4.841076,1.163582,-5.671864,-0.049296,0.041701,0.044632
3376,-4.896142,1.431733,-5.635951,-0.073277,0.054225,0.053825
3391,-5.013458,1.376666,-5.777209,-0.090198,0.062352,0.048496
3406,-5.044583,1.599327,-5.702988,-0.089132,0.070080,0.038371
3421,-4.946421,1.613692,-5.679046,-0.065949,0.065683,0.022116
3436,-4.857835,1.570596,-5.712565,-0.044233,0.060887,0.011058
3451,-5.068525,1.527501,-5.786786,-0.033308,0.067282,0.017986
3466,-5.046977,1.400608,-5.705382,-0.035972,0.069280,0.023582
3481,-4.886566,1.532289,-5.765238,-0.034640,0.076608,0.026113
3496,-4.853047,1.467646,-5.923255,-0.033175,0.077807,0.030643
3511,-4.996699,1.556231,-5.940014,-0.018386,0.082204,0.026247
3526,-4.948815,1.690306,-5.851429,0.015988,0.065283,0.011458
3541,-4.862624,1.556231,-5.944803,0.033974,0.063551,-0.002265
3556,-4.874595,1.429338,-5.990293,-0.008660,0.047297,0.018652
3571,-5.001487,1.575385,-6.088455,-0.032242,0.054225,0.030776
3586,-5.152322,1.592144,-6.054936,-0.054492,0.049296,0.031842
3601,-4.941632,1.606509,-6.016629,-0.070746,0.053026,0.027446
3616,-4.867412,1.549048,-6.133945,-0.076874,0.057423,0.021983
3631,-4.862624,1.692701,-6.258443,-0.053559,0.047430,0.017054
3646,-4.879383,1.608904,-6.138733,-0.024781,0.030110,0.007727
3661,-4.699818,1.666364,-6.184223,0.000933,0.010525,0.002265
3676,-4.675876,1.733402,-6.196194,0.028511,-0.017986,-0.000799
3691,-4.783615,1.541866,-6.143521,0.012391,-0.035040,-0.002531
3706,-5.008670,1.546654,-6.035782,-0.020518,-0.041835,0.010126
3721,-4.944026,1.731008,-6.100426,-0.041835,-0.043700,0.011724
3736,-4.843470,1.817199,-6.054936,-0.056890,-0.047830,0.006928
3751,-4.979939,1.707066,-6.071695,-0.065683,-0.053159,-0.012657
3766,-5.061342,1.723825,-6.016629,-0.065017,-0.050628,-0.026113
3781,-4.975151,1.735796,-6.057330,-0.060620,-0.039303,-0.040902
3796,-4.807557,1.745373,-6.086061,-0.044766,-0.046764,-0.061686
3811,-4.783615,1.529895,-5.963956,-0.032508,-0.044766,-0.070479
3826,-4.819528,1.450886,-5.808333,-0.035573,-0.055424,-0.064084
3841,-4.790798,1.276109,-5.825093,-0.069280,-0.047164,-0.046498
3856,-4.718971,1.489193,-5.916072,-0.099657,-0.059155,-0.017320
3871,-4.848258,1.714248,-5.899313,-0.073277,-0.064351,-0.020784
3886,-4.948815,1.723825,-5.772420,-0.028911,-0.073011,-0.042101
3901,-4.967968,1.687912,-5.719748,-0.013057,-0.074609,-0.051427
3916,-4.984728,1.532289,-5.707777,-0.024914,-0.063285,-0.057156
3931,-5.109226,1.417367,-5.676652,-0.067282,-0.047164,-0.044499
3946,-5.166687,1.510741,-5.489904,-0.087266,-0.035573,-0.042101
3961,-5.097255,1.448492,-5.544971,-0.085934,-0.026513,-0.047697
3976,-4.893748,1.486799,-5.513846,-0.096459,-0.024914,-0.039303
3991,-4.972757,1.532289,-5.533000,-0.067415,-0.033041,-0.043567
4006,-5.046977,1.517924,-5.449203,-0.024648,-0.040636,-0.053026
4021,-5.035006,1.357512,-5.353435,-0.010259,-0.029311,-0.046631
4036,-4.910508,1.374272,-5.415684,-0.006395,-0.013456,-0.030110
4051,-4.953603,1.271321,-5.312734,-0.004663,0.003064,-0.015855
4066,-5.063736,1.326388,-5.284003,-0.011058,0.027312,-0.006528
4081,-5.185841,1.338359,-5.272032,-0.023315,0.053559,-0.001732
4096,-5.075707,1.453280,-5.281609,-0.060620,0.078473,0.007594
4111,-5.061342,1.668759,-5.295974,-0.056490,0.084069,-0.003464
4126,-5.099649,1.556231,-5.576096,-0.023049,0.086867,-0.026779
4141,-5.066131,1.505953,-5.635951,0.000666,0.081404,-0.044899
4156,-5.046977,1.458069,-5.607220,0.014789,0.078740,-0.041435
4171,-4.944026,1.395820,-5.753267,0.023182,0.078207,-0.035173
4186,-5.114015,1.328782,-5.772420,0.011458,0.079139,-0.023049
4201,-5.154716,1.323994,-5.889736,-0.005995,0.083403,-0.006395
4216,-5.078102,1.441309,-5.743690,-0.026380,0.089398,0.007994
4231,-4.979939,1.376666,-5.918467,-0.037172,0.092063,0.009992
4246,-5.082890,1.472434,-5.882554,-0.040636,0.089665,0.014256
4261,-5.114015,1.551443,-6.057330,-0.019985,0.090331,0.006795
4276,-4.977545,1.498770,-5.951985,-0.009060,0.079139,0.005596
4291,-4.848258,1.501164,-5.999869,-0.012524,0.078740,0.013856
4306,-4.955997,1.446098,-6.193799,-0.010392,0.069547,0.011058
4321,-5.044583,1.321599,-6.181828,-0.035573,0.062752,0.015455
4336,-4.915296,1.503559,-6.086061,-0.046897,0.057822,0.015322
4351,-4.845864,1.496376,-6.169858,-0.051028,0.041435,0.017453
4366,-5.066131,1.467646,-6.251261,-0.055557,0.039170,0.023315
4381,-5.169081,1.606509,-6.215347,-0.041568,0.034374,0.016387
4396,-4.999093,1.678335,-6.162675,-0.024648,0.027446,0.003597
4411,-4.862624,1.546654,-6.220136,-0.010925,0.019052,-0.004130
4426,-4.934450,1.479617,-6.191405,-0.023049,0.010925,-0.006395
4441,-5.006276,1.417367,-6.030994,-0.051827,-0.010126,0.003864
4456,-4.922479,1.532289,-6.071695,-0.067415,-0.025847,0.010925
4471,-4.802769,1.695095,-6.107608,-0.041968,-0.037038,0.002398
4486,-4.896142,1.549048,-5.844246,-0.022783,-0.046231,-0.002132
4501,-5.011064,1.496376,-5.868188,-0.020251,-0.036772,-0.006262
4516,-4.977545,1.455675,-5.827487,-0.039703,-0.023715,0.000266
4531,-4.932055,1.630451,-5.786786,-0.053825,-0.007194,-0.008926
4546,-5.039794,1.517924,-5.647922,-0.063418,0.002531,-0.011991
4561,-5.092467,1.498770,-5.724536,-0.077407,0.018519,-0.013590
4576,-4.989516,1.534683,-5.657498,-0.077541,0.030510,-0.017054
4591,-4.709394,1.527501,-5.698200,-0.075276,0.023848,-0.018786
4606,-4.656722,1.407791,-5.722142,-0.065417,0.020784,-0.015055
4621,-4.704606,1.443704,-5.880159,-0.047830,0.007994,-0.010525
4636,-4.654328,1.618480,-5.712565,-0.012124,-0.007461,-0.011991
4651,-4.671087,1.620875,-5.686229,0.027845,-0.009193,-0.014789
4666,-4.867412,1.505953,-5.693411,0.027579,0.003464,-0.015055
4681,-4.984728,1.434127,-5.578490,-0.013723,0.013590,-0.010925
4696,-4.951209,1.450886,-5.667075,-0.070346,0.026513,0.003864
4711,-4.905719,1.786074,-5.616797,-0.086600,0.029178,0.000133
4726,-5.025429,1.886631,-5.621585,-0.076208,0.033175,-0.020384
4741,-5.102044,1.745373,-5.604826,-0.049429,0.042501,-0.038371
4756,-4.977545,1.620875,-5.621585,-0.043966,0.052493,-0.051960
4771,-4.786009,1.508347,-5.683835,-0.061819,0.066083,-0.052493
4786,-4.740520,1.529895,-5.750873,-0.068481,0.070080,-0.050628
4801,-4.845864,1.613692,-5.770026,-0.039969,0.065283,-0.058222
4816,-4.838682,1.505953,-5.746084,-0.011458,0.053825,-0.063951
4831,-4.884171,1.453280,-5.810728,-0.007328,0.051427,-0.053292
4846,-4.922479,1.326388,-5.889736,-0.025980,0.069014,-0.044366
4861,-5.070919,1.352724,-5.904101,-0.058089,0.080338,-0.034374
4876,-5.020641,1.493982,-5.884948,-0.067681,0.092729,-0.043700
4891,-4.946421,1.508347,-5.861006,-0.062619,0.088199,-0.055691
4906,-4.838682,1.386243,-5.990293,-0.063551,0.084202,-0.057556
4921,-4.984728,1.355118,-5.808333,-0.069014,0.080738,-0.046498
4936,-5.051765,1.414973,-5.913678,-0.067015,0.087133,-0.044366
4951,-4.953603,1.496376,-5.963956,-0.050095,0.086467,-0.044100
4966,-4.888960,1.479617,-6.019023,-0.018119,0.076608,-0.055025
4981,-4.900931,1.288080,-6.019023,-0.001066,0.059021,-0.066083
4996,-4.908113,1.137246,-5.992687,-0.016787,0.052493,-0.055957
5011,-4.800375,1.278504,-6.054936,-0.022916,0.036639,-0.027046
5026,-4.769250,1.395820,-6.007052,-0.001332,0.020118,-0.016254
5041,-4.991910,1.436521,-6.014235,0.031975,0.010658,-0.020651
5056,-5.106832,1.249773,-5.858612,0.033708,0.015055,-0.021717
5071,-5.102044,1.264138,-5.987898,-0.003064,0.026779,-0.013856
5086,-4.972757,1.374272,-5.995081,-0.036639,0.047963,-0.013590
5101,-5.058948,1.407791,-5.928043,-0.054758,0.050095,-0.014789
5116,-5.056554,1.448492,-5.999869,-0.043567,0.048896,-0.009726
5131,-4.908113,1.398214,-6.026206,-0.018519,0.032242,-0.014922
5146,-4.776433,1.173159,-6.126762,-0.028112,0.028778,0.009992
5161,-4.924873,1.244985,-6.062119,-0.037172,0.027979,0.032375
5176,-4.888960,1.271321,-6.040571,-0.020518,0.013456,0.038504
5191,-4.833893,1.400608,-6.102820,0.006262,0.006662,0.036772
5206,-4.733336,1.326388,-6.023811,0.023982,0.016387,0.040769
5221,-4.876989,1.266533,-5.908890,0.016387,0.013190,0.054492
5236,-4.946421,1.182736,-5.992687,-0.006795,0.017853,0.068747
5251,-4.869806,1.474828,-5.916072,-0.022250,0.023449,0.071678
5266,-4.795586,1.572991,-5.947197,-0.030110,0.023715,0.067415
5281,-4.781221,1.680730,-5.951985,-0.008127,0.020784,0.042368
5296,-4.886566,1.558625,-5.973533,-0.004263,0.013323,0.026380
5311,-4.800375,1.618480,-6.007052,-0.017187,0.001332,0.025447
5326,-4.781221,1.618480,-5.971139,-0.024515,-0.005995,0.022383
5341,-4.812346,1.671153,-6.052542,-0.018652,-0.007461,0.012923
5356,-4.917690,1.647211,-5.999869,-0.026380,-0.009726,0.006528
5371,-4.881777,1.719037,-5.935226,-0.015588,-0.008926,-0.004530
5386,-4.805163,1.575385,-5.935226,-0.021450,0.000666,-0.017986
5401,-4.786009,1.489193,-5.853823,-0.044632,0.013856,-0.020251
5416,-4.876989,1.520318,-5.887342,-0.055691,0.020651,-0.019319
5431,-4.707000,1.491588,-5.813122,-0.045299,0.017587,-0.022250
5446,-4.551377,1.484405,-5.829881,-0.038371,0.009726,-0.023449
5461,-4.627992,1.352724,-5.913678,-0.022649,0.006395,-0.017587
5476,-4.673481,1.326388,-5.837064,-0.024914,0.005729,-0.005729
5491,-4.850653,1.493982,-5.827487,-0.022916,0.013989,-0.001865
5506,-4.786009,1.453280,-5.805939,-0.013856,0.025447,-0.008260
5521,-4.896142,1.400608,-5.844246,-0.022116,0.043966,-0.010658
5536,-5.025429,1.362301,-5.901707,-0.056224,0.062352,-0.006662
5551,-5.035006,1.520318,-6.009446,-0.056890,0.070346,-0.010392
5566,-4.795586,1.630451,-5.925649,-0.043433,0.060354,-0.019585
5581,-4.848258,1.450886,-5.861006,-0.027979,0.054092,-0.033841
5596,-4.819528,1.355118,-6.040571,-0.044233,0.035972,-0.023449
5611,-4.865018,1.345541,-5.992687,-0.043300,0.032908,-0.017453
5626,-4.750096,1.386243,-5.904101,-0.037571,0.030110,-0.011858
5641,-4.663905,1.309628,-6.081272,-0.031309,0.031975,-0.004130
5656,-4.793192,1.367089,-5.949591,-0.015721,0.033441,0.000000
5671,-4.869806,1.422156,-6.004658,-0.008660,0.033175,0.003730
5686,-4.795586,1.482011,-5.810728,-0.009459,0.032908,0.000799
5701,-4.786009,1.577779,-6.023811,-0.003730,0.029178,-0.003198
5716,-4.872200,1.477222,-5.920861,-0.002132,0.031842,-0.017054
5731,-4.912902,1.450886,-6.064513,-0.015188,0.036639,-0.022383
5746,-4.800375,1.374272,-6.162675,-0.035706,0.033175,-0.023315
5761,-4.692635,1.364695,-6.184223,-0.050495,0.027579,-0.021983
5776,-4.788404,1.295263,-6.133945,-0.054492,0.032508,-0.019452
5791,-4.778827,1.429338,-6.102820,-0.031842,0.017720,-0.015588
5806,-4.692635,1.446098,-6.100426,-0.009726,0.003864,-0.017187
5821,-4.685452,1.398214,-6.112397,0.007061,0.000799,-0.016787
5836,-4.704606,1.295263,-6.019023,0.006262,-0.003997,-0.019851
5851,-4.826711,1.288080,-6.002264,-0.021450,-0.005329,-0.012524
5866,-4.821922,1.465251,-5.966351,-0.029044,-0.000666,-0.015721
5881,-4.757279,1.479617,-5.942409,-0.035173,-0.004263,-0.019985
5896,-4.879383,1.546654,-5.992687,-0.036505,-0.008127,-0.020384
5911,-4.958392,1.551443,-6.112397,-0.026113,-0.014256,-0.030910
5926,-4.960786,1.537077,-5.968745,-0.019851,-0.021184,-0.033708
5941,-4.781221,1.455675,-5.973533,-0.020251,-0.021983,-0.033574
5956,-4.896142,1.333570,-6.033388,-0.028911,-0.023982,-0.027046
5971,-4.939238,1.323994,-6.028600,-0.036106,-0.015322,-0.025181
5986,-4.872200,1.273715,-5.925649,-0.033308,-0.013190,-0.027446
6001,-4.824317,1.292869,-5.870583,-0.037971,-0.007328,-0.020518
6016,-4.838682,1.288080,-5.956774,-0.031443,-0.007328,-0.011858
6031,-4.843470,1.290475,-5.877765,-0.015188,-0.011458,-0.012391
6046,-4.776433,1.280898,-5.808333,-0.006262,-0.015855,-0.009060
6061,-4.723760,1.242591,-5.846641,-0.021983,-0.015188,0.003464
6076,-4.800375,1.304840,-5.813122,-0.020518,-0.014789,0.006528
6091,-4.862624,1.359907,-5.820304,-0.010525,-0.005596,0.002665
6106,-4.769250,1.328782,-5.856217,-0.009326,0.011058,-0.003864
6121,-4.874595,1.280898,-5.817910,-0.007061,0.006528,-0.012391
6136,-4.920084,1.182736,-5.906496,-0.026646,0.015588,-0.004930
6151,-4.821922,1.309628,-5.884948,-0.039436,0.017187,0.001998
6166,-4.826711,1.386243,-6.021417,-0.029044,0.009726,0.003331
6181,-4.927267,1.513135,-5.901707,-0.010259,0.001466,0.000533
6196,-5.013458,1.307234,-5.920861,-0.001066,-0.001066,-0.006795
6211,-4.915296,1.331176,-5.904101,-0.013456,-0.007061,-0.006662
6226,-4.960786,1.312023,-5.825093,-0.031842,0.005196,-0.007061
6241,-5.023035,1.206678,-5.908890,-0.041701,0.020251,-0.008660
6256,-4.994305,1.233014,-5.868188,-0.047963,0.023982,0.001998
6271,-4.941632,1.319205,-5.837064,-0.032908,0.030643,0.005995
6286,-4.793192,1.314417,-5.832275,-0.012257,0.031309,0.011325
6301,-4.888960,1.292869,-5.856217,0.000533,0.028511,0.013723
6316,-4.951209,1.027112,-5.923255,-0.014256,0.030776,0.030377
6331,-4.910508,1.132457,-6.019023,-0.040902,0.037305,0.045165
6346,-4.752491,1.302446,-6.002264,-0.053559,0.041302,0.053292
6361,-4.726154,1.436521,-6.038177,-0.030377,0.028778,0.043034
6376,-4.951209,1.414973,-6.030994,0.001199,0.017720,0.036239
6391,-4.874595,1.388637,-5.961562,0.014789,0.012923,0.030377
6406,-4.807557,1.393425,-5.961562,0.000666,0.010792,0.028778
6421,-4.783615,1.395820,-5.884948,-0.026247,0.008394,0.037172
6436,-4.994305,1.434127,-6.002264,-0.035972,0.020651,0.036905
6451,-4.958392,1.620875,-5.916072,-0.028112,0.022649,0.019319
6466,-4.886566,1.651999,-5.916072,-0.002132,0.025181,0.008793
6481,-4.845864,1.446098,-5.906496,-0.007194,0.021717,0.006928
6496,-4.924873,1.331176,-5.858612,-0.022116,0.027446,0.009593
6511,-4.838682,1.436521,-5.978322,-0.038904,0.023449,0.014922
6526,-4.740520,1.513135,-5.844246,-0.028112,0.014655,0.009459
6541,-4.723760,1.383849,-5.789180,-0.027845,0.015055,0.006262
6556,-4.908113,1.393425,-5.961562,-0.036106,0.014655,0.014922
6571,-4.833893,1.417367,-6.040571,-0.045032,0.022250,0.008527
6586,-4.778827,1.426944,-5.880159,-0.046897,0.023182,0.006262
6601,-4.759673,1.450886,-5.925649,-0.049962,0.041302,0.002531
6616,-4.853047,1.407791,-5.810728,-0.043433,0.041968,-0.005063
6631,-4.781221,1.450886,-5.925649,-0.033574,0.045299,-0.008926
6646,-4.745308,1.405396,-5.956774,-0.030643,0.049162,-0.012790
6661,-4.716577,1.446098,-5.944803,-0.020251,0.041302,-0.013057
6676,-4.848258,1.201889,-6.026206,-0.038637,0.036772,-0.006262
6691,-4.797980,1.326388,-6.042965,-0.046764,0.033175,0.005596
6706,-4.644751,1.453280,-5.995081,-0.047430,0.025714,0.003464
6721,-4.738125,1.450886,-6.124368,-0.032775,0.020518,0.007594
6736,-4.905719,1.450886,-6.071695,-0.016920,0.012923,0.004130
6751,-4.843470,1.376666,-6.016629,-0.015188,0.012790,0.002398
6766,-4.819528,1.438915,-6.066907,-0.018919,0.016654,0.000133
6781,-4.747702,1.458069,-5.997475,-0.012790,0.015588,-0.013456
6796,-4.817134,1.314417,-5.963956,-0.029577,0.010259,-0.017720
6811,-4.888960,1.405396,-6.016629,-0.054358,0.000133,-0.006395
6826,-4.824317,1.601721,-6.076484,-0.047297,0.006129,-0.012923
6841,-4.769250,1.570596,-5.978322,-0.030643,-0.001066,-0.022516
6856,-4.857835,1.364695,-6.016629,-0.025980,-0.009193,-0.030910
6871,-4.982334,1.295263,-6.011840,-0.031176,0.008127,-0.027179
6886,-4.831499,1.290475,-6.100426,-0.055291,0.015455,-0.019985
6901,-4.709394,1.374272,-5.999869,-0.057822,0.014256,-0.017720
6916,-4.757279,1.393425,-5.973533,-0.043300,0.011458,-0.020917
6931,-4.841076,1.300051,-5.975927,-0.027312,0.000666,-0.018119
6946,-4.800375,1.259350,-6.030994,-0.023449,0.006662,-0.015988
6961,-4.735731,1.228225,-5.961562,-0.040769,0.005862,-0.012257
6976,-4.675876,1.244985,-6.026206,-0.050628,0.000000,-0.010525
6991,-4.747702,1.386243,-5.940014,-0.041168,-0.013590,-0.011991
7006,-4.726154,1.462857,-6.002264,-0.009326,-0.022383,-0.019585
7021,-4.783615,1.405396,-5.911284,-0.003730,-0.020251,-0.016521
7036,-4.867412,1.431733,-5.865794,-0.005063,-0.020784,-0.019585
7051,-5.025429,1.347936,-5.923255,-0.021184,-0.015588,-0.023715
7066,-5.020641,1.333570,-5.846641,-0.046364,-0.004530,-0.025714
7081,-4.884171,1.455675,-5.786786,-0.054758,0.005596,-0.033708
7096,-4.944026,1.496376,-5.820304,-0.041435,0.005596,-0.036106
7111,-4.936844,1.367089,-5.837064,-0.025980,0.006928,-0.042501
7126,-4.800375,1.288080,-5.841852,-0.030910,0.002531,-0.038770
7141,-4.707000,1.302446,-5.820304,-0.033175,-0.000133,-0.033974
7156,-4.754885,1.280898,-5.899313,-0.027312,-0.003730,-0.035839
7171,-4.807557,1.173159,-5.861006,-0.029311,-0.002798,-0.031176
7186,-4.802769,1.273715,-5.844246,-0.026513,-0.008926,-0.029711
7201,-4.728548,1.185130,-5.791574,-0.014256,0.001599,-0.025980
7216,-4.843470,1.151611,-5.925649,-0.026380,0.017587,-0.023982
7231,-4.975151,1.288080,-5.906496,-0.024648,0.026380,-0.019585
7246,-4.996699,1.230620,-5.978322,-0.028511,0.026113,-0.015988
7261,-4.967968,1.352724,-5.942409,-0.020384,0.040369,-0.024248
7276,-5.025429,1.237802,-6.023811,-0.024248,0.039037,-0.028511
7291,-5.025429,1.201889,-6.007052,-0.032242,0.027579,-0.026779
7306,-5.066131,1.225831,-5.983110,-0.023982,0.019185,-0.025847
7321,-5.011064,1.221043,-6.095637,-0.029444,0.007061,-0.015988
7336,-4.908113,1.223437,-5.963956,-0.019718,-0.000266,-0.015721
7351,-5.078102,1.051054,-6.119579,-0.017320,-0.003464,-0.001732
7366,-5.078102,1.122881,-5.999869,-0.019319,-0.004930,0.007061
7381,-4.934450,1.165976,-5.896919,-0.012524,-0.003064,0.012790
7396,-4.867412,1.194707,-6.052542,-0.009992,-0.005596,0.019452
7411,-5.051765,1.185130,-5.980716,-0.014123,-0.008394,0.027845
7426,-5.090073,1.144428,-5.940014,-0.017187,0.000266,0.030510
7441,-4.936844,1.201889,-6.014235,-0.019985,0.004530,0.036239
7456,-4.718971,1.211466,-5.961562,-0.017853,0.005462,0.034640
7471,-4.836287,1.225831,-5.932832,-0.015188,-0.007861,0.036905
7486,-4.905719,1.170765,-5.930438,0.000000,-0.006129,0.037971
7501,-4.769250,1.266533,-5.904101,0.001466,-0.008926,0.041701
7516,-4.783615,1.319205,-5.858612,0.009459,-0.003864,0.043700
7531,-4.884171,1.343147,-5.911284,0.005196,-0.004397,0.045965
7546,-5.008670,1.335965,-5.889736,-0.002265,0.002265,0.039969
7561,-4.991910,1.393425,-5.889736,-0.029178,0.006795,0.040369
7576,-4.910508,1.412579,-5.841852,-0.048230,0.011991,0.033574
7591,-4.946421,1.443704,-5.892130,-0.061020,0.010392,0.024781
7606,-4.972757,1.467646,-5.841852,-0.057689,0.006129,0.012391
7621,-4.951209,1.443704,-5.786786,-0.046631,0.006129,0.007461
7636,-4.809951,1.426944,-5.817910,-0.026247,0.014256,0.004930
7651,-4.790798,1.218649,-5.911284,-0.028112,0.017986,0.011191
7666,-4.884171,1.201889,-6.011840,-0.047164,0.035306,0.021450
7681,-4.829105,1.367089,-5.753267,-0.049296,0.033441,0.023982
7696,-4.733336,1.462857,-5.801151,-0.045965,0.037971,0.023449
7711,-4.838682,1.417367,-5.899313,-0.045698,0.039170,0.022516
7726,-4.979939,1.271321,-5.942409,-0.066749,0.045698,0.025580
7741,-4.824317,1.465251,-6.004658,-0.083270,0.043966,0.019585
7756,-4.807557,1.551443,-5.928043,-0.076208,0.044899,0.010126
7771,-4.795586,1.532289,-6.076484,-0.072611,0.042900,-0.000933
7786,-4.826711,1.505953,-5.918467,-0.062352,0.024515,-0.012124
7801,-4.788404,1.407791,-5.975927,-0.049695,0.018119,-0.015055
7816,-4.716577,1.505953,-5.923255,-0.037704,0.004130,-0.024115
7831,-4.754885,1.431733,-5.880159,-0.030910,0.003064,-0.025980
7846,-5.051765,1.302446,-5.829881,-0.033441,0.015322,-0.029178
7861,-5.020641,1.228225,-5.832275,-0.061020,0.037172,-0.019452
7876,-4.989516,1.335965,-5.846641,-0.077274,0.052893,-0.017320
7891,-4.927267,1.472434,-5.880159,-0.073943,0.048230,-0.014655
7906,-4.843470,1.391031,-5.901707,-0.042234,0.048230,-0.027579
7921,-4.807557,1.266533,-5.930438,-0.025980,0.024648,-0.030510
7936,-4.781221,1.242591,-5.959168,-0.017320,0.009859,-0.021317
7951,-4.742914,1.254562,-5.959168,-0.015721,0.004796,-0.015855
7966,-4.723760,1.204283,-5.870583,-0.007594,-0.002931,-0.011191
7981,-4.838682,1.292869,-5.875371,0.005329,-0.004530,-0.007861
7996,-4.788404,1.261744,-5.956774,0.005596,0.007594,-0.006129
8011,-4.786009,1.374272,-5.734113,-0.002265,0.016787,0.003064
8026,-4.912902,1.252167,-5.901707,-0.014389,0.031176,0.002398
8041,-4.975151,1.448492,-5.904101,-0.019718,0.027446,0.004530
8056,-4.929661,1.493982,-5.947197,-0.008926,0.026913,-0.007194
8071,-4.965574,1.453280,-5.997475,-0.012257,0.031309,-0.014522
8086,-4.979939,1.367089,-6.165069,-0.009060,0.030377,-0.016387
8101,-4.967968,1.319205,-6.086061,-0.021983,0.028245,-0.013989
8116,-4.874595,1.285686,-6.129156,-0.032775,0.021583,-0.014522
8131,-4.805163,1.304840,-6.258443,-0.040103,0.010925,-0.005063
8146,-4.941632,1.340753,-6.133945,-0.024248,0.004397,-0.002931
8161,-4.908113,1.374272,-6.129156,-0.001599,-0.009459,-0.011191
8176,-4.829105,1.300051,-6.074090,0.009992,-0.013856,-0.015188
8191,-4.797980,1.288080,-6.153098,-0.008127,-0.021983,-0.006795
8206,-4.831499,1.331176,-6.021417,-0.024648,-0.025447,-0.001599
8221,-4.891354,1.319205,-6.004658,-0.014789,-0.025314,-0.008793
8236,-4.821922,1.391031,-6.040571,-0.010259,-0.031443,-0.014256
8251,-4.836287,1.247379,-6.004658,-0.012923,-0.030243,-0.014655
8266,-4.888960,1.355118,-5.973533,-0.031975,-0.029311,-0.007994
8281,-5.023035,1.383849,-5.925649,-0.034240,-0.030243,-0.010259
8296,-4.934450,1.474828,-5.951985,-0.012923,-0.033974,-0.017986
8311,-4.862624,1.381454,-5.882554,-0.005729,-0.043300,-0.022383
8326,-4.884171,1.359907,-5.815516,-0.010126,-0.038904,-0.027179
8341,-5.018247,1.271321,-5.827487,-0.023582,-0.036239,-0.027979
8356,-4.977545,1.223437,-5.712565,-0.049029,-0.020384,-0.026247
8371,-4.838682,1.300051,-5.765238,-0.057956,-0.007461,-0.027579
8386,-4.963180,1.230620,-5.832275,-0.058888,0.009060,-0.029844
8401,-4.920084,1.252167,-5.810728,-0.047164,0.014123,-0.026380
8416,-4.920084,1.292869,-5.786786,-0.030110,0.006395,-0.023848
8431,-4.850653,1.319205,-5.825093,-0.015988,-0.002398,-0.024515
8446,-4.817134,1.194707,-5.770026,-0.024248,-0.013989,-0.017453
8461,-5.042189,1.237802,-5.837064,-0.035839,-0.010525,-0.011458
8476,-4.991910,1.292869,-5.849035,-0.034374,-0.013590,-0.018519
8491,-4.912902,1.297657,-5.765238,-0.030377,-0.007061,-0.025847
8506,-4.924873,1.276109,-5.861006,-0.019851,0.000933,-0.026646
8521,-5.066131,1.331176,-5.829881,-0.015322,0.001865,-0.030776
8536,-5.035006,1.182736,-5.851429,-0.027579,0.013989,-0.030643
8551,-4.958392,1.132457,-5.858612,-0.052760,0.019319,-0.023049
8566,-4.879383,1.156399,-5.865794,-0.072611,0.028378,-0.022250
8581,-5.085284,1.256956,-5.791574,-0.065949,0.023049,-0.023715
8596,-5.013458,1.189918,-5.889736,-0.035173,0.016787,-0.031176
8611,-4.955997,1.110910,-5.863400,-0.033308,0.016121,-0.024781
8626,-4.917690,1.039083,-5.896919,-0.035040,0.005995,-0.004263
8641,-5.085284,1.041478,-5.894525,-0.026380,-0.001599,0.008660
8656,-5.142745,1.177947,-5.968745,-0.002931,-0.008926,0.007461
8671,-5.020641,1.175553,-5.777209,0.008394,-0.016121,0.009859
8686,-5.094861,1.048660,-5.781997,-0.007194,-0.010392,0.020251
8701,-5.185841,1.096544,-5.712565,-0.022383,0.007727,0.026380
8716,-5.257667,1.158794,-5.916072,-0.037838,0.006928,0.029444
8731,-4.982334,1.278504,-5.762844,-0.032642,0.005995,0.032109
8746,-4.970363,1.280898,-5.865794,-0.024648,0.003730,0.026646
8761,-5.025429,1.158794,-5.837064,-0.031576,0.007061,0.025847
8776,-5.092467,1.182736,-5.791574,-0.020384,0.008660,0.023449
8791,-5.082890,1.213860,-5.774815,-0.041168,0.013989,0.038371
8806,-4.975151,1.242591,-5.827487,-0.055291,0.024648,0.042501
8821,-4.960786,1.359907,-5.805939,-0.033175,0.017986,0.037438
8836,-5.027823,1.242591,-5.781997,-0.019585,0.024248,0.028511
8851,-4.936844,1.197101,-5.865794,-0.025980,0.023582,0.038371
8866,-4.793192,1.242591,-5.858612,-0.026913,0.021051,0.040369
8881,-4.939238,1.223437,-5.844246,-0.034640,0.022783,0.045698
8896,-4.855441,1.271321,-5.861006,-0.024648,0.011058,0.044499
8911,-4.939238,1.395820,-5.805939,-0.016920,0.013856,0.037571
8926,-4.905719,1.355118,-5.923255,-0.023982,0.012257,0.036772
8941,-5.042189,1.477222,-5.940014,-0.019052,0.015188,0.033574
8956,-5.054160,1.417367,-5.834670,-0.016121,0.015988,0.020651
8971,-5.025429,1.374272,-5.738902,-0.033574,0.027179,0.018253
8986,-4.829105,1.364695,-5.702988,-0.060087,0.033574,0.020118
9001,-4.972757,1.379060,-5.784391,-0.066616,0.040902,0.024248
9016,-5.008670,1.470040,-5.815516,-0.046364,0.052626,0.016121
9031,-4.955997,1.465251,-5.844246,-0.027312,0.054758,0.008260
9046,-4.829105,1.319205,-5.928043,-0.022783,0.057423,0.009859
9061,-4.829105,1.237802,-5.949591,-0.048230,0.057956,0.021184
9076,-4.912902,1.319205,-6.076484,-0.055158,0.048629,0.023182
9091,-4.967968,1.453280,-5.968745,-0.051560,0.032375,0.020251
9106,-4.814740,1.534683,-5.947197,-0.038637,0.019985,0.010259
9121,-4.843470,1.513135,-5.896919,-0.045698,0.014522,0.008127
9136,-5.066131,1.462857,-5.963956,-0.048096,0.024248,-0.001599
9151,-5.006276,1.448492,-5.887342,-0.059155,0.023848,-0.014789
9166,-4.843470,1.503559,-5.925649,-0.062352,0.032109,-0.021983
9181,-4.857835,1.448492,-6.011840,-0.050894,0.033308,-0.033574
9196,-5.042189,1.288080,-5.789180,-0.050495,0.024515,-0.029844
9211,-5.025429,1.268927,-5.930438,-0.049162,0.032642,-0.019185
9226,-4.821922,1.228225,-5.920861,-0.057023,0.030910,-0.008793
9241,-4.845864,1.278504,-5.959168,-0.062485,0.021983,-0.000400
9256,-4.865018,1.242591,-5.892130,-0.043700,0.014389,-0.000133
9271,-4.867412,1.285686,-5.930438,-0.023715,0.001066,-0.001199
9286,-4.814740,1.300051,-5.841852,-0.007594,-0.011058,-0.000799
9301,-4.857835,1.376666,-5.899313,0.009193,-0.010792,-0.003064
9316,-5.073313,1.266533,-5.743690,-0.000133,0.002265,-0.001199
9331,-5.061342,1.328782,-5.774815,-0.018386,0.008793,0.005862
9346,-4.936844,1.403002,-5.834670,-0.031443,0.019851,-0.003331
9361,-4.975151,1.424550,-5.894525,-0.032642,0.019985,-0.019319
9376,-5.023035,1.333570,-5.827487,-0.033574,0.021583,-0.022383
9391,-5.075707,1.240196,-6.035782,-0.045832,0.026913,-0.015188
9406,-4.886566,1.364695,-5.913678,-0.035306,0.015721,-0.010792
9421,-4.774038,1.300051,-5.911284,-0.008926,0.009593,-0.008527
9436,-4.821922,1.101333,-6.040571,-0.011325,0.009859,0.002265
9451,-4.831499,1.134852,-6.040571,-0.004397,0.003198,0.010259
9466,-4.850653,1.340753,-5.999869,0.004930,-0.009193,0.017587
9481,-4.843470,1.376666,-5.980716,0.019185,0.000533,0.011991
9496,-4.960786,1.379060,-6.023811,0.015455,-0.013456,0.008926
9511,-5.039794,1.247379,-6.026206,-0.008394,-0.013456,0.005596
9526,-4.996699,1.431733,-5.983110,-0.028378,-0.023049,0.006129
9541,-4.910508,1.489193,-6.062119,-0.027446,-0.019718,-0.003064
9556,-5.090073,1.489193,-5.928043,-0.022649,-0.020251,-0.015322
9571,-5.104438,1.450886,-6.011840,-0.020518,-0.033041,-0.028112
9586,-5.030218,1.424550,-6.019023,-0.036106,-0.028112,-0.028245
9601,-5.049371,1.462857,-6.040571,-0.049296,-0.036905,-0.030910
9616,-5.020641,1.312023,-5.892130,-0.055691,-0.035440,-0.027979
9631,-5.063736,1.323994,-5.932832,-0.056357,-0.035706,-0.028645
9646,-5.039794,1.309628,-5.858612,-0.058222,-0.028378,-0.028778
9661,-4.900931,1.211466,-5.923255,-0.060620,-0.032109,-0.025980
9676,-4.936844,1.201889,-5.815516,-0.065150,-0.031709,-0.016654
9691,-5.109226,1.247379,-5.750873,-0.055557,-0.029711,-0.011458
9706,-5.023035,1.338359,-5.664681,-0.037038,-0.034240,-0.009193
9721,-4.982334,1.292869,-5.693411,-0.019185,-0.025714,-0.013856
9736,-4.936844,1.024718,-5.623980,-0.034640,-0.020118,-0.007328
9751,-5.128380,1.161188,-5.688623,-0.063152,-0.020384,0.002665
9766,-4.922479,1.319205,-5.561730,-0.049429,-0.016387,-0.003730
9781,-4.917690,1.347936,-5.619191,-0.023049,-0.018786,-0.011191
9796,-4.972757,1.259350,-5.638345,0.000400,-0.015855,-0.013989
9811,-5.085284,1.177947,-5.650316,0.003597,-0.008793,-0.013456
9826,-5.075707,1.125275,-5.566519,-0.017853,0.016254,-0.013856
9841,-5.063736,1.221043,-5.691017,-0.031043,0.017587,-0.009992
9856,-5.082890,1.376666,-5.645527,-0.030910,0.025047,-0.013989
9871,-5.128380,1.292869,-5.693411,-0.021184,0.016654,-0.025314
9886,-5.224148,1.283292,-5.595249,-0.020518,0.015322,-0.015055
9901,-5.006276,1.268927,-5.827487,-0.020251,0.020118,-0.007727
9916,-5.030218,1.254562,-5.748478,-0.019851,0.011458,-0.002132
9931,-5.171475,1.209072,-5.774815,-0.014389,0.014655,0.000666
9946,-5.226542,1.266533,-5.789180,-0.005462,0.025847,0.005462
9961,-5.114015,1.199495,-5.801151,-0.012790,0.036505,0.010792
9976,-5.169081,1.146823,-5.815516,-0.026513,0.043300,0.011325
9991,-5.066131,1.201889,-5.930438,-0.043433,0.044366,0.013856
10006,-4.972757,1.288080,-5.968745,-0.041701,0.037038,0.019319
10021,-4.929661,1.285686,-5.951985,-0.026779,0.021317,0.015455
10036,-5.030218,1.244985,-5.894525,-0.011191,0.002398,0.019851
10051,-5.130774,1.206678,-5.858612,-0.013323,-0.002132,0.027579
10066,-5.058948,1.223437,-5.932832,-0.017453,0.004663,0.025047
10081,-5.025429,1.175553,-5.841852,-0.027179,0.012923,0.023049
10096,-5.058948,1.137246,-5.923255,-0.042900,0.019585,0.014123
10111,-5.013458,1.240196,-5.837064,-0.044100,0.003864,0.018519
10126,-5.051765,1.412579,-5.920861,-0.029311,0.006395,0.018253
10141,-5.039794,1.400608,-5.781997,-0.001865,-0.010126,0.013323
10156,-5.233725,1.379060,-5.762844,0.007061,-0.008127,0.005995
10171,-5.140351,1.206678,-5.729324,-0.007194,0.009593,0.005862
10186,-5.082890,1.213860,-5.772420,-0.036239,0.015188,0.013190
10201,-5.039794,1.276109,-5.808333,-0.056623,0.021717,0.015588
10216,-5.080496,1.355118,-5.827487,-0.043700,0.015322,0.016387
10231,-5.039794,1.357512,-5.676652,-0.030910,0.007594,0.021450
10246,-4.963180,1.431733,-5.798757,-0.023715,0.011458,0.025980
10261,-4.944026,1.297657,-5.681440,-0.023982,0.013590,0.024781
10276,-4.989516,1.292869,-5.765238,-0.029577,0.024781,0.020384
10291,-4.953603,1.264138,-5.770026,-0.037704,0.034773,0.021051
10306,-4.865018,1.355118,-5.872977,-0.048896,0.043034,0.020118
10321,-4.946421,1.493982,-5.827487,-0.045698,0.049429,0.018253
10336,-5.008670,1.462857,-5.786786,-0.039037,0.043700,0.013057
10351,-5.176264,1.465251,-5.829881,-0.042501,0.046764,0.005196
10366,-5.058948,1.465251,-5.822699,-0.055025,0.044366,-0.000266
10381,-4.970363,1.436521,-5.844246,-0.077541,0.042368,-0.000533
10396,-5.027823,1.453280,-5.925649,-0.074077,0.035839,-0.013856
10411,-5.015852,1.465251,-5.968745,-0.057956,0.031842,-0.024248
10426,-4.915296,1.393425,-5.911284,-0.047564,0.038904,-0.028245
10441,-4.929661,1.307234,-5.892130,-0.044632,0.038237,-0.021850
10456,-4.979939,1.283292,-5.937620,-0.042501,0.035306,-0.023315
10471,-5.068525,1.288080,-5.870583,-0.041435,0.031975,-0.021184
10486,-5.090073,1.266533,-5.932832,-0.047031,0.032508,-0.013856
10501,-5.018247,1.335965,-5.932832,-0.047430,0.023449,-0.016254
10516,-5.037400,1.280898,-5.956774,-0.056890,0.024914,-0.016654
10531,-5.140351,1.268927,-6.030994,-0.050228,0.010126,-0.020118
10546,-5.049371,1.276109,-5.963956,-0.046897,0.006528,-0.013590
10561,-5.001487,1.182736,-5.963956,-0.046231,-0.003864,-0.004663
10576,-4.951209,1.242591,-5.980716,-0.037971,-0.016920,0.005729
10591,-5.075707,1.235408,-5.851429,-0.011458,-0.027046,-0.000266
10606,-5.039794,1.295263,-5.861006,0.000933,-0.024914,0.000933
10621,-4.972757,1.309628,-5.925649,0.004930,-0.024381,0.004263
10636,-4.984728,1.242591,-5.901707,-0.007727,-0.019052,0.001732
10651,-5.152322,1.280898,-5.911284,-0.016654,-0.022516,0.000933
10666,-5.068525,1.407791,-5.755661,-0.018919,-0.024648,-0.000133
10681,-4.953603,1.371878,-5.887342,-0.028112,-0.029844,-0.005862
10696,-5.027823,1.379060,-5.911284,-0.030776,-0.031176,-0.008127
10711,-5.133168,1.359907,-5.968745,-0.033308,-0.032775,-0.014389
10726,-5.058948,1.367089,-5.805939,-0.042634,-0.030110,-0.015188
10741,-4.984728,1.359907,-5.911284,-0.045432,-0.020784,-0.011991
10756,-4.898537,1.436521,-5.868188,-0.032908,-0.028645,-0.016654
10771,-5.044583,1.347936,-5.753267,-0.023315,-0.033175,-0.014922
10786,-5.013458,1.335965,-5.796362,-0.024914,-0.030510,-0.016654
10801,-4.977545,1.364695,-5.801151,-0.035440,-0.029444,-0.011724
10816,-4.944026,1.429338,-5.734113,-0.039570,-0.029044,-0.018119
10831,-5.080496,1.496376,-5.695806,-0.034240,-0.039037,-0.015855
10846,-5.157110,1.395820,-5.683835,-0.027712,-0.024381,-0.029711
10861,-5.032612,1.513135,-5.604826,-0.022516,-0.024248,-0.036905
10876,-5.147533,1.326388,-5.564125,-0.035839,-0.009726,-0.039570
10891,-5.207388,1.252167,-5.659893,-0.041835,-0.001066,-0.046364
10906,-5.245696,1.149217,-5.564125,-0.050894,0.016521,-0.041701
10921,-4.991910,1.130063,-5.712565,-0.061553,0.020251,-0.038904
10936,-4.910508,1.264138,-5.743690,-0.047297,0.004530,-0.035972
10951,-5.030218,1.285686,-5.748478,-0.021850,-0.007727,-0.035173
10966,-5.130774,1.345541,-5.650316,0.020384,-0.029444,-0.038237
10981,-5.121197,1.240196,-5.612009,0.025847,-0.033308,-0.037438
10996,-5.255273,1.173159,-5.726930,0.012790,-0.010525,-0.034640
11011,-5.398925,1.098939,-5.748478,-0.028378,0.005196,-0.029044
11026,-5.372589,1.175553,-5.643133,-0.056090,0.034773,-0.032109
11041,-5.257667,1.240196,-5.647922,-0.056490,0.036372,-0.025314
11056,-5.111620,1.187524,-5.676652,-0.038770,0.043700,-0.025047
11071,-5.159504,1.194707,-5.801151,-0.017986,0.027179,-0.015322
11086,-5.216965,1.127669,-5.827487,0.004663,0.027712,-0.006262
11101,-5.090073,1.051054,-5.846641,0.010259,0.011858,0.002398
11116,-4.972757,1.039083,-5.841852,-0.011858,0.001332,0.015855
11131,-5.204994,1.120486,-5.942409,-0.033708,0.001732,0.025447
11146,-5.250484,1.283292,-5.810728,-0.027179,-0.007594,0.025047
11161,-5.343858,1.374272,-5.786786,-0.021317,0.008527,0.021184
11176,-5.276821,1.379060,-5.679046,-0.013723,0.016787,0.018119
11191,-5.291186,1.230620,-5.626374,-0.030910,0.033308,0.013590
11206,-5.427655,1.110910,-5.734113,-0.067815,0.053159,0.021717
11221,-5.202600,1.189918,-5.858612,-0.082337,0.065550,0.020118
11236,-5.092467,1.333570,-5.808333,-0.071412,0.052493,0.015455
11251,-5.035006,1.307234,-5.834670,-0.031043,0.031443,0.001066
11266,-5.090073,1.122881,-5.820304,-0.014522,0.016521,0.010259
11281,-5.118803,1.077391,-5.774815,-0.022783,-0.003597,0.027046
11296,-5.046977,1.175553,-5.834670,-0.029977,-0.000266,0.041835
11311,-5.102044,1.201889,-5.722142,-0.018786,-0.001865,0.034640
11326,-5.164293,1.221043,-5.695806,-0.005063,0.003864,0.025181
11341,-5.025429,1.292869,-5.681440,0.002931,0.010925,0.010259
11356,-4.922479,1.278504,-5.741296,0.003331,0.010658,0.005329
11371,-5.011064,1.273715,-5.880159,-0.003331,0.003331,0.001332
11386,-5.097255,1.458069,-5.925649,-0.003198,-0.002531,-0.001865
11401,-5.020641,1.556231,-5.971139,0.013057,-0.017054,-0.014256
11416,-4.922479,1.455675,-5.789180,0.017320,-0.036772,-0.035440
11431,-5.066131,1.355118,-5.899313,-0.020518,-0.037571,-0.030643
11446,-5.310339,1.376666,-5.906496,-0.056224,-0.025847,-0.021450
11461,-5.348647,1.462857,-5.904101,-0.077008,-0.000533,-0.019052
11476,-5.188235,1.551443,-5.892130,-0.085801,0.026113,-0.028378
11491,-5.329493,1.443704,-5.851429,-0.107784,0.043167,-0.025181
11506,-5.300763,1.285686,-5.911284,-0.135496,0.054492,-0.023449
11521,-5.219359,1.266533,-5.906496,-0.148420,0.050894,-0.021317
11536,-4.941632,1.422156,-5.801151,-0.132299,0.027579,-0.016254
11551,-4.903325,1.218649,-5.755661,-0.097259,0.003730,-0.010126
11566,-4.987122,1.165976,-5.815516,-0.075809,-0.008260,0.000266
11581,-5.044583,1.082179,-5.710171,-0.053159,-0.013590,0.006795
11596,-4.920084,1.115698,-5.609614,-0.041968,-0.015588,0.005596
11611,-5.109226,1.259350,-5.628768,-0.029577,-0.006262,0.005329
11626,-5.164293,1.233014,-5.676652,-0.022916,0.004663,-0.004796
11641,-5.181052,1.221043,-5.671864,-0.025181,0.001199,-0.017587
11656,-5.140351,1.261744,-5.683835,-0.039836,0.005063,-0.020917
11671,-5.238513,1.331176,-5.710171,-0.053292,0.004530,-0.023315
11686,-5.346252,1.395820,-5.714959,-0.049296,-0.005329,-0.018786
11701,-5.427655,1.501164,-5.614403,-0.030643,-0.014655,-0.026380
11716,-5.252879,1.429338,-5.748478,-0.015322,-0.018919,-0.030643
11731,-5.224148,1.283292,-5.810728,-0.013989,-0.021051,-0.028511
11746,-5.303157,1.266533,-5.650316,-0.023049,-0.028245,-0.020518
11761,-5.327099,1.312023,-5.664681,-0.028778,-0.022516,-0.016254
11776,-5.118803,1.343147,-5.647922,-0.012257,-0.025447,-0.017720
11791,-5.046977,1.154005,-5.619191,-0.020518,-0.023582,-0.015322
11806,-5.085284,1.139640,-5.691017,-0.038637,-0.004663,0.001199
11821,-5.130774,1.201889,-5.743690,-0.037571,0.004530,0.003064
11836,-5.063736,1.290475,-5.781997,-0.024381,0.010925,-0.001599
11851,-5.003881,1.273715,-5.774815,-0.013456,0.015988,-0.008660
11866,-5.181052,1.163582,-5.726930,-0.020917,0.016121,-0.003997
11881,-5.178658,1.053449,-5.758055,-0.038770,0.015455,0.006129
11896,-5.123591,1.170765,-5.722142,-0.045832,0.013190,0.006928
11911,-5.097255,1.151611,-5.755661,-0.035306,0.003064,0.011325
11926,-5.135562,1.249773,-5.734113,-0.014922,-0.015455,0.013590
11941,-5.262455,1.371878,-5.750873,0.015988,-0.028378,0.008394
11956,-5.197812,1.352724,-5.702988,0.045965,-0.040502,-0.001332
11971,-5.228936,1.247379,-5.530606,0.036772,-0.043567,-0.000533
11986,-5.386954,1.304840,-5.489904,0.010126,-0.032242,-0.003331
12001,-5.552154,1.268927,-5.430049,-0.011058,-0.019718,-0.008793
12016,-5.382165,1.273715,-5.521029,-0.020784,0.003730,-0.017187
12031,-5.279215,1.225831,-5.465962,-0.021850,0.017187,-0.023582
12046,-5.286397,1.194707,-5.530606,-0.020784,0.017453,-0.020784
12061,-5.465962,1.017536,-5.530606,-0.050894,0.039836,0.000799
12076,-5.334281,1.235408,-5.547365,-0.050761,0.051294,0.015188
12091,-5.078102,1.091756,-5.631162,-0.022383,0.049296,0.012657
12106,-5.133168,0.842759,-5.741296,-0.032109,0.054625,0.031309
12121,-5.181052,0.837971,-5.758055,-0.046631,0.051694,0.053559
12136,-5.056554,1.307234,-5.726930,-0.009193,0.036372,0.047697
12151,-4.936844,1.199495,-5.856217,0.027312,0.021450,0.044899
12166,-5.039794,1.189918,-5.791574,0.032908,-0.007328,0.056090
12181,-5.152322,1.355118,-5.827487,0.031576,-0.023182,0.056890
12196,-5.216965,1.467646,-5.774815,0.036106,-0.034773,0.049562
12211,-5.149928,1.472434,-5.896919,0.024515,-0.031975,0.032508
12226,-5.272032,1.491588,-5.762844,0.006262,-0.026779,0.019185
12241,-5.506664,1.544260,-5.916072,-0.031842,-0.011991,0.015588
12256,-5.410896,1.599327,-5.772420,-0.050761,0.000799,-0.006262
12271,-5.329493,1.628057,-5.695806,-0.063685,0.021450,-0.015322
12286,-5.264850,1.556231,-5.664681,-0.077940,0.038770,-0.024648
12301,-5.303157,1.333570,-5.676652,-0.092596,0.046098,-0.027179
12316,-5.255273,1.237802,-5.671864,-0.109516,0.051694,-0.021850
12331,-5.046977,1.271321,-5.719748,-0.112847,0.054358,-0.011191
12346,-4.977545,1.242591,-5.650316,-0.088865,0.044233,-0.000933
12361,-5.008670,1.237802,-5.664681,-0.053959,0.030776,0.004130
12376,-5.056554,1.132457,-5.724536,-0.030110,0.028645,0.006129
12391,-5.104438,1.132457,-5.674258,-0.033974,0.032642,0.018919
12406,-5.066131,1.074997,-5.726930,-0.037305,0.032908,0.016654
12421,-5.169081,1.173159,-5.758055,-0.042501,0.027446,0.015188
12436,-5.363012,1.343147,-5.726930,-0.042767,0.029044,0.008394
12451,-5.243302,1.367089,-5.734113,-0.032908,0.008394,-0.000799
12466,-5.212177,1.340753,-5.791574,-0.018253,0.002798,-0.007727
12481,-5.377377,1.230620,-5.856217,-0.028645,-0.007461,-0.003464
12496,-5.477933,1.323994,-5.693411,-0.033574,-0.011458,-0.003331
12511,-5.327099,1.388637,-5.655104,-0.024115,-0.016654,-0.011458
12526,-5.293580,1.362301,-5.552154,-0.019718,-0.016787,-0.005462
12541,-5.317522,1.276109,-5.602432,-0.004130,-0.012124,-0.005862
12556,-5.377377,1.209072,-5.525817,-0.009060,-0.000400,0.005329
12571,-5.260061,1.122881,-5.458780,-0.009726,0.014123,0.011724
12586,-5.152322,1.180341,-5.566519,-0.021717,0.040902,0.019585
12601,-5.030218,1.139640,-5.556942,-0.023582,0.046631,0.025447
12616,-5.085284,1.082179,-5.544971,-0.025447,0.049029,0.035306
12631,-5.027823,1.309628,-5.688623,-0.021583,0.047564,0.042900
12646,-4.848258,1.388637,-5.695806,0.005596,0.029178,0.037172
12661,-4.989516,1.455675,-5.887342,0.024248,0.018253,0.028245
12676,-5.185841,1.340753,-5.863400,0.028112,0.009060,0.017453
12691,-5.257667,1.446098,-5.985504,0.015855,0.012657,0.012124
12706,-5.197812,1.460463,-5.906496,-0.009193,0.019718,0.000666
12721,-5.288792,1.568202,-5.961562,-0.020384,0.019718,-0.012124
12736,-5.396531,1.465251,-6.023811,-0.018652,0.012124,-0.028511
12751,-5.300763,1.417367,-5.956774,-0.032908,-0.001865,-0.033841
12766,-5.094861,1.510741,-5.858612,-0.035306,-0.022250,-0.036905
12781,-5.135562,1.364695,-5.832275,-0.024381,-0.040103,-0.040236
12796,-5.303157,1.328782,-5.839458,-0.019718,-0.047697,-0.036905
12811,-5.221754,1.316811,-5.631162,-0.008793,-0.047963,-0.035173
12826,-5.188235,1.242591,-5.643133,-0.006795,-0.029044,-0.046364
12841,-5.291186,1.070208,-5.533000,-0.024914,-0.015455,-0.034773
12856,-5.319916,1.019930,-5.449203,-0.059021,0.012790,-0.023715
12871,-5.233725,1.134852,-5.549759,-0.060620,0.021317,-0.021450
12886,-5.133168,1.063026,-5.705382,-0.072611,0.029711,-0.008660
12901,-5.051765,1.187524,-5.738902,-0.050361,0.016521,-0.006662
12916,-5.137957,1.094150,-5.760449,-0.024515,0.004530,-0.004796
12931,-5.147533,1.192312,-5.667075,0.000799,-0.009060,-0.003198
12946,-5.104438,1.046266,-5.671864,0.005063,-0.026113,0.001865
12961,-5.169081,1.055843,-5.645527,-0.006395,-0.028778,0.009726
12976,-5.363012,1.206678,-5.748478,0.000266,-0.033841,0.005329
12991,-5.437232,1.316811,-5.714959,-0.001599,-0.033974,0.000933
13006,-5.346252,1.412579,-5.702988,0.010925,-0.031443,-0.015721
13021,-5.224148,1.300051,-5.846641,0.014123,-0.039436,-0.016521
13036,-5.487510,1.240196,-5.710171,-0.030776,-0.020384,-0.021583
13051,-5.494693,1.235408,-5.707777,-0.041968,-0.021983,-0.025447
13066,-5.379771,1.240196,-5.643133,-0.066216,-0.017054,-0.022250
13081,-5.281609,1.211466,-5.779603,-0.089665,0.000400,-0.015988
13096,-5.336676,1.204283,-5.619191,-0.093395,0.019585,-0.015055
13111,-5.315128,1.228225,-5.633556,-0.083270,0.028778,-0.009726
13126,-5.133168,1.216254,-5.566519,-0.068747,0.030243,-0.001865
13141,-5.102044,1.170765,-5.652710,-0.051960,0.027446,0.004263
13156,-5.140351,1.060631,-5.655104,-0.044632,0.025714,0.010126
13171,-5.212177,1.007959,-5.695806,-0.055557,0.022649,0.019585
13186,-5.152322,1.070208,-5.702988,-0.064884,0.022516,0.027845
13201,-5.130774,1.058237,-5.650316,-0.062086,0.031975,0.032242
13216,-5.324705,1.197101,-5.765238,-0.047697,0.027312,0.028245
13231,-5.329493,1.266533,-5.679046,-0.039570,0.008394,0.027312
13246,-5.343858,1.472434,-5.698200,-0.019319,-0.009326,0.019585
13261,-5.327099,1.455675,-5.722142,-0.003864,-0.028645,0.004397
13276,-5.600038,1.371878,-5.552154,-0.012524,-0.031443,0.006129
13291,-5.657498,1.261744,-5.544971,-0.024648,-0.018519,0.002531
13306,-5.580884,1.244985,-5.442020,-0.056090,0.016254,0.001466
13321,-5.324705,1.345541,-5.468357,-0.061953,0.018519,0.002931
13336,-5.248090,1.338359,-5.396531,-0.042501,0.009992,-0.007194
13351,-5.367800,1.345541,-5.468357,-0.017587,-0.002265,-0.003331
13366,-5.219359,1.233014,-5.506664,0.006129,-0.011858,-0.000666
13381,-5.204994,1.242591,-5.576096,0.009992,-0.011724,0.003730
13396,-5.243302,1.077391,-5.439626,-0.001732,0.003730,0.016254
13411,-5.384560,1.146823,-5.619191,-0.026779,0.011191,0.024248
13426,-5.279215,1.292869,-5.530606,-0.041835,0.032908,0.031176
13441,-5.202600,1.393425,-5.614403,-0.034107,0.034507,0.023582
13456,-5.219359,1.379060,-5.544971,-0.022250,0.042634,0.016387
13471,-5.370194,1.230620,-5.573701,-0.027712,0.053159,0.009992
13486,-5.295974,1.204283,-5.695806,-0.050628,0.068081,0.013989
13501,-5.147533,1.386243,-5.779603,-0.056090,0.068481,0.018519
13516,-5.161899,1.391031,-5.796362,-0.043167,0.055291,0.012923
13531,-5.317522,1.328782,-5.827487,-0.045165,0.043433,0.017853
13546,-5.348647,1.443704,-5.949591,-0.035306,0.026247,0.019585
13561,-5.248090,1.403002,-5.861006,-0.036772,0.013856,0.013190
13576,-5.233725,1.367089,-5.923255,-0.041835,0.004663,0.011325
13591,-5.355829,1.407791,-5.841852,-0.045965,-0.000133,-0.000799
13606,-5.415684,1.470040,-5.779603,-0.045299,-0.006262,-0.008793
13621,-5.317522,1.436521,-5.781997,-0.050894,0.000799,-0.017587
13636,-5.351041,1.429338,-5.695806,-0.050894,0.001998,-0.024648
13651,-5.398925,1.249773,-5.544971,-0.061286,0.009726,-0.033708
13666,-5.396531,1.177947,-5.765238,-0.085801,0.008793,-0.028911
13681,-5.133168,1.218649,-5.829881,-0.089931,0.009859,-0.031176
13696,-5.111620,1.120486,-5.707777,-0.090864,0.000666,-0.026913
13711,-5.267244,1.235408,-5.789180,-0.087266,-0.014389,-0.005196
13726,-5.384560,1.419762,-5.748478,-0.047564,-0.027312,-0.006395
13741,-5.252879,1.364695,-5.662287,-0.008793,-0.037038,-0.019185
13756,-5.202600,1.180341,-5.695806,-0.003198,-0.039170,-0.023315
13771,-5.453991,1.106121,-5.707777,-0.018519,-0.023049,-0.015988
13786,-5.398925,1.110910,-5.676652,-0.046897,-0.019185,-0.003730
13801,-5.384560,1.369483,-5.662287,-0.053426,-0.020518,-0.002665
13816,-5.228936,1.422156,-5.612009,-0.028511,-0.033841,-0.001332
13831,-5.360618,1.405396,-5.607220,-0.004930,-0.057156,-0.002265
13846,-5.386954,1.338359,-5.592855,0.010259,-0.057689,-0.008793
13861,-5.363012,1.228225,-5.544971,0.001332,-0.059554,-0.010126
13876,-5.480328,1.216254,-5.559336,-0.017054,-0.045565,-0.003597
13891,-5.422867,1.244985,-5.518635,-0.027712,-0.031309,0.001199
13906,-5.209783,1.252167,-5.492299,-0.039703,-0.018253,0.002798
13921,-5.274426,1.278504,-5.518635,-0.047564,-0.009193,0.006129
13936,-5.480328,1.295263,-5.556942,-0.036772,-0.005063,0.000666
13951,-5.360618,1.419762,-5.489904,-0.020784,-0.011591,-0.008127
13966,-5.195417,1.357512,-5.482722,-0.009593,-0.025847,-0.008260
13981,-5.240908,1.297657,-5.408502,-0.000933,-0.038904,-0.007861
13996,-5.389348,1.199495,-5.549759,0.010392,-0.040103,-0.010126
14011,-5.312734,1.288080,-5.396531,0.012391,-0.039570,-0.013190
14026,-5.231330,1.268927,-5.307945,0.010792,-0.027845,-0.023049
14041,-5.269638,1.185130,-5.305551,-0.010792,-0.016787,-0.016787
14056,-5.374983,1.187524,-5.341464,-0.024914,0.002398,-0.016521
14071,-5.420473,1.367089,-5.401319,-0.021717,0.007727,-0.018519
14086,-5.372589,1.331176,-5.358223,-0.010259,0.012524,-0.020118
14101,-5.372589,1.247379,-5.391742,-0.008394,0.031709,-0.017986
14116,-5.473145,1.115698,-5.489904,-0.027845,0.039703,-0.015055
14131,-5.530606,1.321599,-5.418078,-0.047164,0.038237,-0.012391
14146,-5.343858,1.419762,-5.523423,-0.024248,0.031309,-0.022250
14161,-5.355829,1.221043,-5.540183,-0.002132,0.025714,-0.026913
14176,-5.504270,1.146823,-5.650316,-0.006528,0.019851,-0.019452
14191,-5.506664,1.084573,-5.623980,-0.020651,0.027979,-0.005995
14206,-5.394136,1.206678,-5.698200,-0.031975,0.028245,0.005329
14221,-5.279215,1.309628,-5.714959,-0.018253,0.021317,0.000400
14236,-5.485116,1.304840,-5.671864,-0.011724,0.014789,0.000400
14251,-5.564125,1.194707,-5.607220,-0.007861,0.005729,0.001466
14266,-5.549759,1.309628,-5.655104,-0.016387,0.011858,-0.001199
14281,-5.501875,1.185130,-5.585672,-0.049162,0.015855,0.003331
14296,-5.573701,1.237802,-5.731719,-0.063285,0.021317,-0.003730
14311,-5.619191,1.233014,-5.667075,-0.064484,0.028911,-0.005729
14326,-5.442020,1.096544,-5.607220,-0.073277,0.026380,-0.002665
14341,-5.305551,1.108515,-5.607220,-0.078606,0.022250,0.001332
14356,-5.398925,1.094150,-5.657498,-0.061286,0.009193,0.008660
14371,-5.391742,1.156399,-5.607220,-0.031176,-0.013723,0.007194
14386,-5.315128,1.098939,-5.604826,-0.016121,-0.007194,0.013989
14401,-5.291186,1.137246,-5.509058,-0.005063,-0.015721,0.026113
14416,-5.401319,1.309628,-5.470751,-0.005196,-0.015721,0.029577
14431,-5.521029,1.400608,-5.382165,0.017853,-0.021983,0.023182
14446,-5.511452,1.283292,-5.341464,0.007727,-0.007061,0.011591
14461,-5.425261,1.201889,-5.351041,-0.038770,0.009193,0.012391
14476,-5.456386,1.237802,-5.413290,-0.086334,0.037438,0.013590
14491,-5.533000,1.441309,-5.456386,-0.094594,0.045432,0.008793
14506,-5.432444,1.347936,-5.401319,-0.066083,0.056757,-0.007727
14521,-5.329493,1.343147,-5.470751,-0.055824,0.046897,-0.002665
14536,-5.386954,1.194707,-5.497087,-0.038371,0.044632,0.006129
14551,-5.430049,1.103727,-5.604826,-0.035839,0.045965,0.016920
14566,-5.377377,1.084573,-5.566519,-0.040902,0.044499,0.019718
14581,-5.240908,1.149217,-5.609614,-0.052626,0.046631,0.027979
14596,-5.343858,1.271321,-5.585672,-0.041568,0.037971,0.028112
14611,-5.437232,1.343147,-5.554548,-0.026113,0.034907,0.022516
14626,-5.346252,1.297657,-5.525817,-0.014922,0.026646,0.019319
14641,-5.327099,1.316811,-5.621585,-0.022516,0.026380,0.018253
14656,-5.394136,1.266533,-5.576096,-0.034374,0.042234,0.018786
14671,-5.516241,1.197101,-5.576096,-0.042634,0.042368,0.013057
14686,-5.355829,1.304840,-5.623980,-0.033708,0.037571,0.012657
14701,-5.293580,1.326388,-5.640739,-0.026779,0.028245,0.010658
14716,-5.243302,1.233014,-5.734113,-0.015721,0.016654,0.007461
14731,-5.355829,1.177947,-5.566519,-0.028645,0.013190,0.018919
14746,-5.389348,1.276109,-5.602432,-0.025314,0.006528,0.027579
14761,-5.284003,1.429338,-5.612009,-0.004130,0.011591,0.022250
14776,-5.240908,1.403002,-5.631162,0.004663,0.004530,0.008926
14791,-5.444415,1.285686,-5.779603,-0.001865,0.004530,0.007727
14806,-5.489904,1.235408,-5.688623,-0.019185,0.005995,0.005329
14821,-5.346252,1.376666,-5.595249,-0.034507,0.010792,0.005729
14836,-5.274426,1.345541,-5.674258,-0.041701,-0.000133,0.003331
14851,-5.374983,1.271321,-5.657498,-0.022383,-0.002798,-0.002531
14866,-5.353435,1.218649,-5.628768,-0.018519,0.000000,0.002132
14881,-5.276821,1.273715,-5.623980,-0.026646,0.002531,0.010525
14896,-5.185841,1.259350,-5.647922,-0.025047,-0.001732,0.018919
14911,-5.403713,1.321599,-5.738902,-0.013456,-0.001466,0.013590
14926,-5.425261,1.312023,-5.669469,-0.014123,-0.000933,0.011191
14941,-5.305551,1.347936,-5.825093,-0.017853,-0.011325,0.009593
14956,-5.384560,1.381454,-5.686229,-0.020651,-0.017320,0.011191
14971,-5.554548,1.446098,-5.638345,-0.027712,-0.024648,0.012257
14986,-5.537788,1.376666,-5.571307,-0.027712,-0.023049,0.003064
15001,-5.386954,1.374272,-5.628768,-0.040369,-0.014655,-0.009326
15016,-5.286397,1.256956,-5.525817,-0.052893,-0.015322,-0.017986
15031,-5.427655,1.237802,-5.552154,-0.053426,-0.015055,-0.017187
15046,-5.415684,1.271321,-5.561730,-0.038770,-0.011858,-0.017587
15061,-5.303157,1.261744,-5.482722,-0.019319,-0.014123,-0.021583
15076,-5.257667,1.144428,-5.521029,-0.021583,-0.007727,-0.011458
15091,-5.372589,1.115698,-5.453991,-0.032508,-0.005596,0.005596
15106,-5.418078,1.154005,-5.489904,-0.022916,-0.015455,0.007061
15121,-5.329493,1.244985,-5.398925,-0.016787,-0.018119,0.010925
15136,-5.444415,1.326388,-5.415684,-0.009726,-0.011991,0.012657
15151,-5.549759,1.359907,-5.389348,-0.005196,-0.009726,0.010392
15166,-5.568913,1.256956,-5.556942,-0.007594,0.005995,0.002798
15181,-5.482722,1.240196,-5.451597,-0.025181,0.008260,0.000799
15196,-5.408502,1.149217,-5.552154,-0.048629,0.016121,0.004263
15211,-5.461174,1.254562,-5.571307,-0.054625,0.014389,0.018253
15226,-5.499481,1.288080,-5.568913,-0.031576,0.008527,0.014389
15241,-5.485116,1.288080,-5.556942,-0.003331,0.000666,0.012657
15256,-5.396531,1.237802,-5.559336,-0.000133,-0.006129,0.017054
15271,-5.446809,1.189918,-5.549759,-0.015988,-0.004530,0.028778
15286,-5.487510,1.216254,-5.535394,-0.026113,0.000133,0.031709
15301,-5.549759,1.283292,-5.497087,-0.029044,0.007061,0.027179
15316,-5.355829,1.266533,-5.573701,-0.032775,0.006262,0.026247
15331,-5.430049,1.235408,-5.564125,-0.045299,0.018253,0.030510
15346,-5.439626,1.242591,-5.571307,-0.044366,0.010525,0.035706
15361,-5.379771,1.407791,-5.530606,-0.032775,0.004530,0.033441
15376,-5.343858,1.467646,-5.444415,-0.020518,-0.002132,0.026247
15391,-5.398925,1.302446,-5.501875,-0.017853,-0.000266,0.023582
15406,-5.554548,1.347936,-5.442020,-0.027845,-0.002665,0.021850
15421,-5.535394,1.256956,-5.504270,-0.050628,0.008926,0.020917
15436,-5.410896,1.328782,-5.501875,-0.066083,0.015455,0.024115
15451,-5.379771,1.316811,-5.564125,-0.068081,0.017720,0.021317
15466,-5.513846,1.431733,-5.506664,-0.052760,0.014123,0.016920
15481,-5.425261,1.410185,-5.494693,-0.032642,0.013723,0.012657
15496,-5.367800,1.403002,-5.422867,-0.029577,0.006395,0.010126
15511,-5.398925,1.290475,-5.403713,-0.043300,0.015455,0.011724
15526,-5.549759,1.333570,-5.492299,-0.058489,0.020118,0.016254
15541,-5.463568,1.448492,-5.389348,-0.046098,0.027446,0.007861
15556,-5.355829,1.472434,-5.430049,-0.034640,0.024515,-0.003464
15571,-5.372589,1.369483,-5.374983,-0.029044,0.041035,-0.005729
15586,-5.406107,1.189918,-5.360618,-0.050628,0.045832,0.004263
15601,-5.374983,1.244985,-5.501875,-0.063551,0.051560,0.011591
15616,-5.310339,1.489193,-5.516241,-0.049162,0.044499,0.006795
15631,-5.327099,1.391031,-5.494693,-0.031309,0.042501,0.000133
15646,-5.391742,1.228225,-5.542577,-0.025047,0.050228,0.000933
15661,-5.645527,1.225831,-5.590461,-0.037571,0.055025,0.015055
15676,-5.475539,1.292869,-5.530606,-0.041835,0.060487,0.015588
15691,-5.418078,1.405396,-5.499481,-0.044233,0.062352,0.011724
15706,-5.509058,1.285686,-5.712565,-0.041968,0.049162,0.013723
15721,-5.540183,1.345541,-5.722142,-0.033441,0.037438,0.013323
15736,-5.334281,1.403002,-5.643133,-0.024381,0.018119,0.014789
15751,-5.267244,1.309628,-5.652710,-0.016387,0.014655,0.014789
15766,-5.396531,1.264138,-5.561730,-0.024115,0.012923,0.023049
15781,-5.556942,1.266533,-5.578490,-0.021717,0.023582,0.020384
15796,-5.386954,1.352724,-5.544971,-0.028378,0.029844,0.017853
15811,-5.248090,1.357512,-5.676652,-0.034640,0.035706,0.009992
15826,-5.408502,1.338359,-5.623980,-0.047963,0.041302,0.014655
15841,-5.372589,1.352724,-5.786786,-0.044499,0.030910,0.014123
15856,-5.248090,1.412579,-5.576096,-0.033708,0.023049,0.008394
15871,-5.200206,1.405396,-5.607220,-0.038371,0.017320,0.019319
15886,-5.295974,1.343147,-5.564125,-0.027579,0.014922,0.023982
15901,-5.499481,1.508347,-5.537788,-0.017320,0.015855,0.020917
15916,-5.295974,1.467646,-5.477933,-0.003064,0.011991,0.010925
15931,-5.202600,1.357512,-5.518635,-0.012923,0.019452,0.000533
15946,-5.418078,1.307234,-5.626374,-0.037838,0.030243,0.008660
15961,-5.418078,1.369483,-5.676652,-0.051560,0.041968,0.013723
15976,-5.422867,1.496376,-5.755661,-0.053559,0.048629,0.004130
15991,-5.358223,1.446098,-5.628768,-0.045432,0.042767,-0.005596
16006,-5.315128,1.434127,-5.679046,-0.056757,0.041968,-0.007061
16021,-5.477933,1.410185,-5.662287,-0.047031,0.019185,-0.006662
16036,-5.394136,1.403002,-5.659893,-0.042368,0.011058,-0.000933
16051,-5.370194,1.448492,-5.676652,-0.030510,-0.001199,0.000266
16066,-5.348647,1.345541,-5.726930,-0.032109,-0.004397,0.004663
16081,-5.453991,1.283292,-5.681440,-0.023848,0.001865,0.008394
16096,-5.422867,1.369483,-5.640739,-0.024914,0.000799,0.011458
16111,-5.303157,1.403002,-5.714959,-0.025980,0.001466,0.011591
16126,-5.221754,1.307234,-5.638345,-0.033041,-0.007194,0.011991
16141,-5.260061,1.422156,-5.573701,-0.037038,-0.018919,0.014922
16156,-5.413290,1.419762,-5.518635,-0.029178,-0.019585,0.008926
16171,-5.257667,1.381454,-5.499481,-0.026913,-0.015188,0.005596
16186,-5.312734,1.388637,-5.513846,-0.028778,-0.004663,0.005462
16201,-5.367800,1.410185,-5.523423,-0.031975,0.010525,0.002665
16216,-5.439626,1.405396,-5.480328,-0.032375,0.009459,0.001466
16231,-5.410896,1.470040,-5.568913,-0.037571,0.011991,0.003064
16246,-5.403713,1.374272,-5.583278,-0.056890,0.010525,0.014655
16261,-5.485116,1.491588,-5.535394,-0.061420,0.010925,0.014922
16276,-5.410896,1.532289,-5.549759,-0.041701,-0.003864,0.003597
16291,-5.255273,1.513135,-5.602432,-0.020784,-0.012391,-0.012657
16306,-5.200206,1.316811,-5.595249,-0.005729,-0.019319,-0.018253
16321,-5.288792,1.268927,-5.535394,-0.019851,-0.017720,-0.016387
16336,-5.374983,1.319205,-5.365406,-0.033441,-0.015055,-0.006528
16351,-5.336676,1.501164,-5.439626,-0.021051,-0.018119,-0.009060
16366,-5.248090,1.498770,-5.427655,-0.010126,-0.013057,-0.015588
16381,-5.518635,1.431733,-5.379771,0.001599,-0.008394,-0.021717
16396,-5.552154,1.335965,-5.458780,-0.010259,0.004530,-0.024381
16411,-5.401319,1.304840,-5.415684,-0.036505,0.019585,-0.031709
16426,-5.341464,1.244985,-5.453991,-0.054625,0.025847,-0.029711
16441,-5.473145,1.223437,-5.420473,-0.064351,0.030643,-0.021450
16456,-5.468357,1.369483,-5.403713,-0.038504,0.019319,-0.009193
16471,-5.351041,1.323994,-5.442020,0.001066,0.005063,-0.005995
16486,-5.355829,1.242591,-5.379771,0.019452,0.008127,0.004796
16501,-5.461174,1.089362,-5.470751,0.009193,0.018519,0.023715
16516,-5.492299,1.163582,-5.451597,-0.006928,0.034640,0.030110
16531,-5.446809,1.283292,-5.497087,-0.020384,0.038237,0.031443
16546,-5.351041,1.316811,-5.552154,-0.025714,0.049562,0.029711
16561,-5.372589,1.438915,-5.645527,-0.025181,0.032508,0.027446
16576,-5.420473,1.479617,-5.707777,-0.000400,0.025314,0.023582
16591,-5.379771,1.513135,-5.714959,0.007194,0.003198,0.014522
16606,-5.353435,1.460463,-5.688623,0.003464,-0.014789,0.011058
16621,-5.494693,1.470040,-5.645527,0.001332,-0.005063,0.002665
16636,-5.693411,1.364695,-5.528212,-0.015455,0.000799,0.001199
16651,-5.566519,1.410185,-5.604826,-0.026913,0.021450,-0.000799
16666,-5.396531,1.381454,-5.600038,-0.044766,0.022116,0.005196
16681,-5.346252,1.295263,-5.595249,-0.053959,0.021717,0.009593
16696,-5.389348,1.333570,-5.592855,-0.054625,0.012124,0.017187
16711,-5.267244,1.393425,-5.513846,-0.033041,0.001466,0.018919
16726,-5.204994,1.501164,-5.492299,-0.005596,-0.005196,0.016254
16741,-5.300763,1.285686,-5.521029,0.008527,0.002798,0.011991
16756,-5.394136,1.206678,-5.449203,-0.008260,0.021317,0.015588
16771,-5.458780,1.333570,-5.461174,-0.041035,0.036905,0.023715
16786,-5.295974,1.465251,-5.509058,-0.042900,0.039037,0.016521
16801,-5.274426,1.407791,-5.489904,-0.032908,0.027712,0.003997
16816,-5.439626,1.431733,-5.509058,-0.042101,0.011325,0.006928
16831,-5.521029,1.364695,-5.552154,-0.048096,0.011591,0.001466
16846,-5.358223,1.525106,-5.580884,-0.043300,0.002265,0.001332
16861,-5.480328,1.549048,-5.523423,-0.015855,0.000799,-0.010925
16876,-5.635951,1.431733,-5.576096,0.003331,0.017187,-0.022783
16891,-5.540183,1.355118,-5.492299,-0.005862,0.021583,-0.019185
16906,-5.456386,1.247379,-5.310339,-0.019985,0.028778,-0.019319
16921,-5.401319,1.247379,-5.319916,-0.042101,0.040636,-0.007461
16936,-5.456386,1.280898,-5.415684,-0.043700,0.047430,-0.001466
16951,-5.379771,1.304840,-5.511452,-0.024648,0.051427,0.005862
16966,-5.221754,1.240196,-5.549759,-0.018119,0.049562,0.002798
16981,-5.317522,1.170765,-5.580884,-0.019185,0.053959,0.013456
16996,-5.408502,1.221043,-5.664681,-0.023182,0.058888,0.023848
17011,-5.353435,1.285686,-5.700594,-0.025980,0.062352,0.033308
17026,-5.322310,1.403002,-5.676652,-0.014789,0.048763,0.029977
17041,-5.281609,1.412579,-5.748478,-0.008793,0.035440,0.028911
17056,-5.389348,1.391031,-5.813122,-0.001599,0.019985,0.023582
17071,-5.401319,1.482011,-5.789180,-0.001998,0.002931,0.019052
17086,-5.410896,1.522712,-5.815516,-0.007328,-0.001998,0.010259
17101,-5.303157,1.539472,-5.817910,-0.021850,-0.010392,0.006928
17116,-5.396531,1.458069,-5.781997,-0.036905,-0.008127,-0.006129
17131,-5.511452,1.549048,-5.791574,-0.047697,-0.008660,-0.008793
17146,-5.322310,1.553837,-5.729324,-0.044233,-0.006528,-0.016254
17161,-5.341464,1.537077,-5.760449,-0.049962,-0.001998,-0.020784
17176,-5.406107,1.436521,-5.719748,-0.061286,-0.003597,-0.025181
17191,-5.465962,1.407791,-5.578490,-0.085534,0.003198,-0.027845
17206,-5.365406,1.470040,-5.573701,-0.096992,0.008127,-0.021583
17221,-5.276821,1.426944,-5.676652,-0.090730,0.013856,-0.024381
17236,-5.310339,1.335965,-5.580884,-0.070213,0.009859,-0.032375
17251,-5.298368,1.235408,-5.635951,-0.055424,0.004796,-0.031975
17266,-5.188235,1.216254,-5.573701,-0.053159,-0.010525,-0.024648
17281,-5.207388,1.261744,-5.506664,-0.044632,-0.017320,-0.017453
17296,-5.250484,1.307234,-5.525817,-0.035573,-0.029311,-0.009459
17311,-5.470751,1.470040,-5.485116,-0.015322,-0.028245,-0.016254
17326,-5.513846,1.395820,-5.549759,-0.005462,-0.027446,-0.021717
17341,-5.487510,1.345541,-5.480328,-0.016254,-0.015855,-0.018119
17356,-5.628768,1.292869,-5.537788,-0.039703,-0.010259,-0.013456
17371,-5.614403,1.343147,-5.425261,-0.057689,-0.010392,-0.010392
17386,-5.420473,1.491588,-5.468357,-0.035839,-0.028112,-0.020917
17401,-5.286397,1.448492,-5.461174,-0.007994,-0.043567,-0.031842
17416,-5.339070,1.355118,-5.437232,0.008926,-0.053959,-0.030643
17431,-5.523423,1.261744,-5.418078,0.015988,-0.051028,-0.026247
17446,-5.477933,1.266533,-5.370194,0.001466,-0.030243,-0.018386
17461,-5.372589,1.367089,-5.276821,-0.006395,-0.022649,-0.012790
17476,-5.365406,1.312023,-5.295974,-0.018652,-0.005596,-0.013590
17491,-5.501875,1.335965,-5.286397,-0.022116,0.005995,-0.020518
17506,-5.494693,1.355118,-5.327099,-0.016920,0.020251,-0.030643
17521,-5.336676,1.271321,-5.269638,-0.021983,0.019985,-0.029844
17536,-5.365406,1.268927,-5.453991,-0.021717,0.031309,-0.026380
17551,-5.494693,1.170765,-5.556942,-0.023715,0.044766,-0.024381
17566,-5.453991,1.098939,-5.489904,-0.026646,0.042234,-0.015588
17581,-5.434838,1.165976,-5.604826,-0.032508,0.045165,-0.001599
17596,-5.446809,1.249773,-5.664681,-0.022516,0.030243,0.002132
17611,-5.487510,1.256956,-5.714959,-0.009060,0.020118,0.002798
17626,-5.530606,1.134852,-5.655104,-0.011325,0.008926,0.005596
17641,-5.444415,1.316811,-5.544971,-0.019851,-0.002398,0.012790
17656,-5.475539,1.271321,-5.662287,-0.020518,0.000000,0.019718
17671,-5.590461,1.414973,-5.580884,-0.014922,-0.002931,0.020518
17686,-5.559336,1.316811,-5.655104,-0.017986,-0.003464,0.005462
17701,-5.547365,1.309628,-5.583278,-0.049562,0.005729,0.013057
17716,-5.537788,1.458069,-5.580884,-0.067815,0.004930,0.011591
17731,-5.554548,1.508347,-5.504270,-0.060087,0.004930,0.000133
17746,-5.734113,1.403002,-5.633556,-0.055025,0.005196,-0.007194
17761,-5.619191,1.292869,-5.655104,-0.075276,0.008394,-0.002665
17776,-5.600038,1.209072,-5.590461,-0.087933,0.012657,0.006395
17791,-5.540183,1.295263,-5.549759,-0.082337,0.015188,0.008394
17806,-5.327099,1.300051,-5.592855,-0.072345,0.002132,0.007061
17821,-5.365406,1.156399,-5.592855,-0.070346,0.001599,0.012391
17836,-5.384560,1.165976,-5.590461,-0.076075,-0.005995,0.028511
17851,-5.386954,1.204283,-5.487510,-0.069147,-0.005862,0.027579
17866,-5.216965,1.211466,-5.468357,-0.067948,-0.004263,0.027845
17881,-5.221754,1.154005,-5.489904,-0.074077,-0.007461,0.039969
17896,-5.453991,1.335965,-5.410896,-0.060620,-0.001998,0.040902
17911,-5.580884,1.505953,-5.446809,-0.044499,0.005596,0.033441
17926,-5.592855,1.596933,-5.295974,-0.039703,0.007328,0.020917
17941,-5.770026,1.338359,-5.391742,-0.079672,0.031309,0.020518
17956,-5.894525,1.374272,-5.470751,-0.134297,0.050761,0.027579
17971,-5.691017,1.594538,-5.439626,-0.136828,0.052227,0.019452
17986,-5.468357,1.692701,-5.513846,-0.094328,0.035173,0.001865
18001,-5.319916,1.496376,-5.446809,-0.053559,0.011724,-0.003864
18016,-5.439626,1.343147,-5.329493,-0.044366,-0.000666,0.009193
18031,-5.406107,1.228225,-5.398925,-0.040636,-0.000400,0.019452
18046,-5.315128,1.374272,-5.360618,-0.032242,0.008793,0.022250
18061,-5.264850,1.326388,-5.295974,-0.029044,0.019185,0.016654
18076,-5.463568,1.367089,-5.346252,-0.028911,0.027312,0.022250
18091,-5.437232,1.359907,-5.329493,-0.037038,0.031443,0.025047
18106,-5.312734,1.352724,-5.377377,-0.038904,0.030776,0.027712
18121,-5.272032,1.438915,-5.468357,-0.047564,0.031309,0.043700
18136,-5.463568,1.589750,-5.559336,-0.032508,0.030643,0.043567
18151,-5.494693,1.601721,-5.511452,-0.006795,0.025181,0.033841
18166,-5.513846,1.546654,-5.552154,0.004530,0.025447,0.027845
18181,-5.437232,1.527501,-5.573701,-0.007461,0.024515,0.031975
18196,-5.528212,1.472434,-5.528212,-0.018652,0.022516,0.032775
18211,-5.540183,1.508347,-5.616797,-0.032908,0.021450,0.035573
18226,-5.480328,1.663970,-5.693411,-0.026247,0.014922,0.031709
18241,-5.291186,1.606509,-5.640739,-0.010658,0.000799,0.012524
18256,-5.365406,1.553837,-5.559336,-0.001332,-0.005995,-0.002265
18271,-5.537788,1.491588,-5.530606,-0.005329,-0.013723,0.001466
18286,-5.501875,1.503559,-5.559336,-0.024381,-0.004530,0.005063
18301,-5.516241,1.510741,-5.497087,-0.032508,0.004263,0.001466
18316,-5.516241,1.410185,-5.487510,-0.042767,0.018119,0.002265
18331,-5.525817,1.359907,-5.710171,-0.058888,0.023982,0.000000
18346,-5.355829,1.331176,-5.597643,-0.067948,0.015322,0.004663
18361,-5.319916,1.470040,-5.719748,-0.051960,-0.004930,0.008926
18376,-5.255273,1.448492,-5.736507,-0.015055,-0.035706,0.014389
18391,-5.382165,1.498770,-5.643133,0.026113,-0.059821,0.013989
18406,-5.386954,1.474828,-5.640739,0.031443,-0.073410,0.019851
18421,-5.272032,1.414973,-5.544971,0.007594,-0.077940,0.025980
18436,-5.398925,1.525106,-5.547365,-0.007594,-0.070613,0.021983
18451,-5.422867,1.675941,-5.506664,-0.001066,-0.069147,0.002798
18466,-5.449203,1.659182,-5.504270,0.000133,-0.058489,-0.010525
18481,-5.437232,1.642422,-5.403713,-0.018386,-0.046631,-0.014789
18496,-5.530606,1.501164,-5.374983,-0.049429,-0.027979,-0.014256
18511,-5.762844,1.510741,-5.346252,-0.077541,-0.012257,-0.012524
18526,-5.681440,1.671153,-5.394136,-0.101655,0.003331,-0.013190
18541,-5.552154,1.640028,-5.485116,-0.094727,0.012524,-0.026779
18556,-5.461174,1.453280,-5.432444,-0.100590,0.021051,-0.030110
18571,-5.437232,1.417367,-5.583278,-0.095127,0.009593,-0.031443
18586,-5.377377,1.431733,-5.439626,-0.090331,-0.010259,-0.017453
18601,-5.245696,1.534683,-5.389348,-0.068081,-0.026247,-0.011591
18616,-5.367800,1.553837,-5.348647,-0.040769,-0.046364,-0.009859
18631,-5.604826,1.582567,-5.327099,-0.004530,-0.046364,-0.024248
18646,-5.657498,1.529895,-5.317522,0.019319,-0.038371,-0.039570
18661,-5.647922,1.326388,-5.226542,-0.009726,-0.021717,-0.036239
18676,-5.614403,1.443704,-5.248090,-0.041968,-0.000799,-0.024781
18691,-5.674258,1.438915,-5.341464,-0.045832,0.002265,-0.024381
18706,-5.590461,1.479617,-5.410896,-0.034374,-0.009060,-0.029178
18721,-5.544971,1.455675,-5.353435,-0.024115,-0.021583,-0.025980
18736,-5.521029,1.608904,-5.415684,-0.014922,-0.038770,-0.015588
18751,-5.676652,1.477222,-5.336676,0.010525,-0.045565,-0.022649
18766,-5.724536,1.434127,-5.267244,0.010525,-0.053026,-0.022783
18781,-5.616797,1.419762,-5.178658,-0.003597,-0.050495,-0.021717
18796,-5.547365,1.374272,-5.171475,-0.024914,-0.035839,-0.010792
18811,-5.688623,1.589750,-5.185841,-0.017986,-0.031443,-0.009060
18826,-5.736507,1.525106,-5.202600,0.001466,-0.010658,-0.019585
18841,-5.643133,1.520318,-5.238513,-0.001599,-0.007461,-0.026113
18856,-5.533000,1.443704,-5.181052,-0.018652,0.008660,-0.024248
18871,-5.590461,1.331176,-5.209783,-0.037704,0.013856,-0.020784
18886,-5.588067,1.357512,-5.257667,-0.046897,0.018519,-0.017720
18901,-5.506664,1.419762,-5.312734,-0.040636,0.023848,-0.014522
18916,-5.504270,1.422156,-5.298368,-0.034107,0.018919,-0.013590
18931,-5.537788,1.379060,-5.279215,-0.019718,0.019319,-0.021583
18946,-5.681440,1.309628,-5.339070,-0.025047,0.021717,-0.020118
18961,-5.616797,1.359907,-5.310339,-0.026513,0.026646,-0.017720
18976,-5.614403,1.458069,-5.315128,-0.028245,0.030643,-0.015855
18991,-5.647922,1.436521,-5.267244,-0.016920,0.024781,-0.027579
19006,-5.803545,1.273715,-5.348647,-0.029044,0.040902,-0.027312
19021,-5.786786,1.259350,-5.334281,-0.056224,0.047031,-0.025714
19036,-5.588067,1.419762,-5.463568,-0.068081,0.045565,-0.021717
19051,-5.633556,1.462857,-5.406107,-0.058489,0.035839,-0.019452
19066,-5.746084,1.410185,-5.336676,-0.039836,0.016787,-0.015855
19081,-5.772420,1.338359,-5.437232,-0.035573,0.012524,-0.013057
19096,-5.777209,1.374272,-5.418078,-0.042501,0.020784,-0.001599
19111,-5.774815,1.316811,-5.430049,-0.049828,0.034907,-0.001865
19126,-5.662287,1.278504,-5.410896,-0.053426,0.034107,-0.003064
19141,-5.671864,1.254562,-5.482722,-0.054225,0.031576,0.000933
19156,-5.559336,1.283292,-5.444415,-0.060487,0.021450,0.014389
19171,-5.683835,1.395820,-5.398925,-0.056890,0.014922,0.025314
19186,-5.674258,1.438915,-5.386954,-0.038904,0.007328,0.024648
19201,-5.714959,1.407791,-5.298368,-0.020384,0.003064,0.017187
19216,-5.645527,1.223437,-5.372589,-0.032508,0.014655,0.012257
19231,-5.736507,1.228225,-5.406107,-0.061286,0.030510,0.022916
19246,-5.561730,1.280898,-5.446809,-0.047031,0.024914,0.013856
19261,-5.477933,1.343147,-5.430049,-0.025447,0.007994,0.010925
19276,-5.343858,1.379060,-5.408502,0.002665,-0.028245,0.009992
19291,-5.336676,1.381454,-5.391742,0.019851,-0.056357,0.019985
19306,-5.578490,1.395820,-5.365406,0.041035,-0.059954,0.014123
19321,-5.760449,1.359907,-5.274426,0.038504,-0.044366,0.010658
19336,-5.741296,1.400608,-5.152322,0.021717,-0.021450,0.003730
19351,-5.750873,1.398214,-5.171475,-0.005729,0.010525,-0.005196
19366,-5.798757,1.312023,-5.159504,-0.038237,0.023582,-0.006129
19381,-5.803545,1.386243,-5.382165,-0.043433,0.032908,-0.001865
19396,-5.609614,1.395820,-5.351041,-0.040236,0.022383,0.004796
19411,-5.528212,1.410185,-5.442020,-0.014789,0.008660,0.014655
19426,-5.592855,1.326388,-5.295974,0.008127,-0.000533,0.028378
19441,-5.667075,1.338359,-5.305551,0.025580,-0.001998,0.034507
19456,-5.602432,1.386243,-5.343858,0.030377,0.012124,0.033974
19471,-5.444415,1.266533,-5.264850,0.012257,0.028911,0.041968
19486,-5.600038,1.359907,-5.339070,-0.010792,0.044899,0.052626
19501,-5.592855,1.529895,-5.430049,-0.011325,0.042368,0.046897
19516,-5.588067,1.513135,-5.451597,-0.011991,0.042634,0.045565
19531,-5.556942,1.527501,-5.631162,-0.033974,0.031975,0.042501
19546,-5.580884,1.534683,-5.588067,-0.042767,0.016920,0.033308
19561,-5.633556,1.498770,-5.552154,-0.048096,0.001865,0.021983
19576,-5.554548,1.561020,-5.583278,-0.053559,-0.012923,0.020784
19591,-5.451597,1.685518,-5.576096,-0.042767,-0.029044,0.011058
19606,-5.604826,1.618480,-5.638345,-0.027579,-0.047830,-0.004796
19621,-5.714959,1.537077,-5.492299,-0.039570,-0.051560,-0.008127
19636,-5.597643,1.539472,-5.463568,-0.056623,-0.047697,-0.016121
19651,-5.626374,1.556231,-5.444415,-0.076874,-0.030110,-0.021583
19666,-5.638345,1.474828,-5.293580,-0.090997,-0.019718,-0.034507
19681,-5.664681,1.479617,-5.382165,-0.113113,-0.010525,-0.041302
19696,-5.585672,1.575385,-5.216965,-0.120308,-0.006129,-0.042234
19711,-5.511452,1.611298,-5.322310,-0.086867,-0.012391,-0.048763
19726,-5.621585,1.374272,-5.250484,-0.066616,-0.009193,-0.049162
19741,-5.724536,1.221043,-5.200206,-0.080738,0.000400,-0.031576
19756,-5.657498,1.235408,-5.190629,-0.095660,0.009193,-0.013323
19771,-5.556942,1.283292,-5.135562,-0.092995,0.017054,-0.008527
19786,-5.643133,1.283292,-5.226542,-0.086467,0.018919,0.002398
19801,-5.722142,1.292869,-5.185841,-0.055291,0.015455,0.003997
19816,-5.753267,1.505953,-5.226542,-0.006129,0.000933,0.011724
19831,-5.743690,1.577779,-5.248090,0.031043,-0.007194,0.006129
19846,-5.817910,1.352724,-5.324705,0.030377,-0.018386,0.011191
19861,-5.973533,1.328782,-5.336676,0.000933,-0.021317,0.022649
19876,-5.829881,1.527501,-5.372589,-0.023182,-0.023582,0.019052
19891,-5.705382,1.764527,-5.336676,-0.008660,-0.050495,0.006262
19906,-5.825093,1.673547,-5.432444,0.008127,-0.047697,-0.010259
19921,-5.882554,1.503559,-5.353435,0.002798,-0.051294,-0.009992
19936,-5.837064,1.520318,-5.300763,-0.026646,-0.039037,0.002531
19951,-5.664681,1.539472,-5.351041,-0.039037,-0.038904,-0.002531
19966,-5.588067,1.561020,-5.226542,-0.051161,-0.030110,-0.011858
19981,-5.734113,1.412579,-5.284003,-0.063018,-0.015188,-0.015188
19996,-5.590461,1.436521,-5.331887,-0.063418,-0.010525,-0.020384
20011,-5.525817,1.364695,-5.377377,-0.062885,-0.009859,-0.024781
20026,-5.477933,1.333570,-5.149928,-0.068747,0.000133,-0.015988
20041,-5.595249,1.398214,-5.195417,-0.053159,-0.010259,-0.007861
20056,-5.621585,1.431733,-5.087678,-0.029444,-0.014789,-0.001732
20071,-5.437232,1.424550,-5.188235,-0.005862,-0.009459,-0.013590
20086,-5.621585,1.355118,-5.130774,-0.007994,-0.010792,-0.007861
20101,-5.748478,1.292869,-5.221754,-0.016787,0.000666,-0.015188
20116,-5.705382,1.338359,-5.125986,-0.029577,0.002398,-0.013989
20131,-5.674258,1.486799,-5.209783,-0.038237,0.007461,-0.007061
20146,-5.815516,1.460463,-5.236119,-0.038637,0.014655,-0.004397
20161,-5.951985,1.517924,-5.286397,-0.038237,0.012524,-0.011991
20176,-6.086061,1.465251,-5.250484,-0.039037,0.008127,-0.019319
20191,-5.985504,1.498770,-5.204994,-0.036639,0.008660,-0.025314
20206,-5.951985,1.400608,-5.293580,-0.049429,0.007594,-0.017320
20221,-6.121974,1.367089,-5.382165,-0.060087,0.013856,-0.009060
20236,-6.035782,1.367089,-5.348647,-0.048096,0.006928,-0.007328
20251,-5.894525,1.347936,-5.305551,-0.031975,0.001066,-0.004663
20266,-5.815516,1.288080,-5.298368,-0.022916,-0.010792,0.006129
20281,-5.803545,1.223437,-5.327099,-0.023182,-0.022250,0.011458
20296,-5.834670,1.266533,-5.231330,-0.021983,-0.023582,0.018786
20311,-5.717353,1.132457,-5.284003,-0.025314,-0.022250,0.026380
20326,-5.657498,1.154005,-5.248090,-0.034374,-0.016654,0.037172
20341,-5.717353,1.206678,-5.269638,-0.043167,-0.005862,0.046364
20356,-5.655104,1.364695,-5.305551,-0.033841,-0.009060,0.047297
20371,-5.724536,1.395820,-5.288792,-0.019851,-0.011858,0.042634
20386,-5.688623,1.367089,-5.269638,-0.012257,-0.010259,0.045832
20401,-5.770026,1.395820,-5.207388,-0.011858,-0.007594,0.045698
20416,-5.956774,1.405396,-5.245696,-0.027446,-0.003198,0.046364
20431,-5.997475,1.424550,-5.262455,-0.049562,0.000400,0.047031
20446,-5.904101,1.482011,-5.274426,-0.070879,0.019452,0.046764
20461,-6.035782,1.482011,-5.224148,-0.074476,0.015988,0.046764
20476,-6.110003,1.455675,-5.293580,-0.059155,0.018786,0.049562
20491,-5.975927,1.515530,-5.231330,-0.049296,0.001066,0.053692
20506,-5.825093,1.551443,-5.257667,-0.032242,-0.020118,0.057556
20521,-5.839458,1.474828,-5.106832,-0.017986,-0.032508,0.061020
20536,-5.892130,1.314417,-5.073313,-0.017054,-0.042101,0.074609
20551,-5.760449,1.414973,-5.049371,-0.014256,-0.039037,0.073144
20566,-5.573701,1.510741,-4.991910,-0.011591,-0.038770,0.068081
20581,-5.564125,1.496376,-5.166687,0.003730,-0.034107,0.064217
20596,-5.662287,1.448492,-5.054160,-0.001466,-0.028511,0.061420
20611,-5.700594,1.558625,-5.109226,-0.004796,-0.022916,0.058489
20626,-5.640739,1.656788,-5.102044,-0.005862,-0.011058,0.055824
20641,-5.679046,1.628057,-5.207388,-0.015322,-0.007328,0.048096
20656,-5.714959,1.604115,-5.197812,-0.036772,-0.003730,0.043167
20671,-5.774815,1.642422,-5.305551,-0.073277,-0.002398,0.047430
20686,-5.688623,1.860295,-5.276821,-0.073677,-0.003331,0.037971
20701,-5.686229,1.908179,-5.164293,-0.053159,-0.008527,0.028511
20716,-5.940014,1.769315,-5.106832,-0.041168,0.012257,0.022250
20731,-5.978322,1.709460,-5.066131,-0.034907,0.020118,0.011325
20746,-5.834670,1.632846,-4.977545,-0.055025,0.030910,0.007461
20761,-5.695806,1.640028,-4.996699,-0.084602,0.028112,0.017986
20776,-5.717353,1.620875,-5.001487,-0.070879,0.033308,0.014789
20791,-5.882554,1.685518,-4.955997,-0.036372,0.035706,0.007194
20806,-5.686229,1.563414,-4.979939,-0.018119,0.045299,0.000933
20821,-5.623980,1.386243,-5.082890,-0.024648,0.047164,0.009593
20836,-5.813122,1.422156,-5.204994,-0.048496,0.061420,0.025047
20851,-5.777209,1.592144,-5.202600,-0.044499,0.053159,0.023449
20866,-5.691017,1.661576,-5.274426,-0.015588,0.025314,0.007061
20881,-5.722142,1.675941,-5.240908,0.003198,0.005995,0.005329
20896,-5.899313,1.582567,-5.272032,0.017587,-0.013323,0.007461
20911,-6.004658,1.647211,-5.238513,0.019585,-0.012524,0.009193
20926,-5.949591,1.711854,-5.425261,0.025314,-0.018786,0.006528
20941,-5.940014,1.644817,-5.260061,0.019185,-0.013590,-0.004397
20956,-5.930438,1.472434,-5.408502,-0.016387,-0.004397,-0.006262
20971,-6.095637,1.501164,-5.386954,-0.061286,0.004397,0.005196
20986,-5.928043,1.671153,-5.425261,-0.075542,0.005462,0.010792
21001,-5.760449,1.769315,-5.372589,-0.046098,-0.013456,0.000666
21016,-5.765238,1.546654,-5.322310,-0.033708,-0.039570,0.004263
21031,-5.820304,1.508347,-5.307945,-0.034507,-0.045965,0.012524
21046,-5.702988,1.637634,-5.135562,-0.028911,-0.063818,0.021317
21061,-5.609614,1.716643,-5.063736,-0.022649,-0.064484,0.014123
21076,-5.695806,1.695095,-5.039794,-0.024515,-0.062485,0.006528
21091,-5.894525,1.527501,-4.951209,-0.042767,-0.044499,0.003198
21106,-5.839458,1.647211,-5.082890,-0.072744,-0.005063,0.007594
21121,-5.691017,1.697489,-5.078102,-0.074343,0.011458,0.001466
21136,-5.679046,1.628057,-5.128380,-0.074876,0.013590,0.000799
21151,-5.750873,1.752556,-5.111620,-0.069547,0.007594,0.005995
21166,-5.822699,1.872266,-5.068525,-0.054625,-0.001066,0.002665
21181,-5.815516,1.790863,-5.145139,-0.054092,-0.012657,-0.005995
21196,-5.925649,1.628057,-5.068525,-0.074476,-0.007727,-0.006262
21211,-5.966351,1.654393,-5.109226,-0.103787,-0.001199,-0.021450
21226,-6.086061,1.663970,-5.030218,-0.128435,0.010925,-0.022250
21241,-6.038177,1.759738,-5.137957,-0.122173,0.023049,-0.028112
21256,-6.011840,1.745373,-5.102044,-0.098724,0.005995,-0.035706
21271,-6.136339,1.431733,-5.125986,-0.096326,0.001066,-0.030110
21286,-6.093243,1.347936,-5.092467,-0.121107,0.003730,-0.006528
21301,-5.904101,1.470040,-5.114015,-0.144423,0.006129,0.016254
21316,-6.002264,1.529895,-5.197812,-0.134430,0.010259,0.021317
21331,-5.968745,1.498770,-5.123591,-0.106185,-0.004530,0.010392
21346,-5.937620,1.333570,-5.171475,-0.086067,-0.010792,0.010525
21361,-5.877765,1.314417,-5.214571,-0.085934,-0.016387,0.036372
21376,-5.839458,1.446098,-5.204994,-0.088998,-0.026113,0.050095
21391,-5.882554,1.513135,-5.121197,-0.049429,-0.049962,0.048763
21406,-5.882554,1.570596,-5.035006,-0.041835,-0.063418,0.051294
21421,-6.011840,1.649605,-5.035006,-0.021983,-0.068747,0.061819
21436,-5.985504,1.740585,-4.905719,0.010259,-0.058489,0.056490
21451,-6.054936,1.731008,-4.970363,0.021317,-0.055158,0.041302
21466,-6.126762,1.632846,-4.912902,0.011458,-0.035706,0.041835
21481,-6.035782,1.766921,-4.958392,-0.014389,-0.021450,0.049962
21496,-5.844246,1.752556,-4.862624,-0.027446,-0.014789,0.048896
21511,-6.023811,1.673547,-4.888960,-0.040502,-0.006395,0.053559
21526,-6.038177,1.714248,-4.987122,-0.057156,0.004130,0.064750
21541,-5.971139,1.879448,-5.037400,-0.042900,-0.000266,0.062485
21556,-5.966351,1.826776,-4.936844,-0.040502,0.012524,0.056090
21571,-6.119579,1.673547,-4.932055,-0.053292,0.033441,0.059421
21586,-6.169858,1.666364,-5.032612,-0.083669,0.036905,0.084735
21601,-5.983110,1.855506,-5.114015,-0.082470,0.038904,0.088199
21616,-5.923255,1.750161,-5.224148,-0.068348,0.036772,0.085002
21631,-5.944803,1.781286,-5.068525,-0.055291,0.017853,0.089931
21646,-5.746084,2.042254,-5.106832,-0.016920,0.003730,0.089798
21661,-5.753267,2.018312,-5.061342,0.024248,-0.020651,0.070746
21676,-5.913678,1.893813,-5.011064,0.042101,-0.043034,0.057156
21691,-5.940014,1.719037,-4.829105,0.019718,-0.032908,0.053159
21706,-5.928043,1.582567,-4.967968,-0.049429,-0.013989,0.071945
21721,-5.796362,1.946486,-4.975151,-0.073943,-0.005329,0.073410
21736,-5.894525,2.102109,-5.003881,-0.036239,0.003997,0.044632
21751,-5.935226,2.042254,-5.039794,-0.000400,0.004130,0.031443
21766,-5.767632,1.994370,-4.975151,0.008394,-0.000933,0.024515
21781,-5.722142,1.869871,-4.939238,0.004663,-0.002931,0.025047
21796,-5.813122,1.939303,-4.967968,-0.003730,-0.015055,0.030776
21811,-5.750873,2.157176,-4.975151,0.015721,-0.027046,0.023582
21826,-5.645527,2.049437,-4.944026,0.025447,-0.031709,0.003864
21841,-5.614403,1.972822,-4.970363,0.011191,-0.026913,0.000533
21856,-5.664681,1.886631,-4.838682,-0.016254,-0.014522,0.001466
21871,-5.750873,1.867477,-4.807557,-0.039703,0.003597,0.000400
21886,-5.707777,1.965640,-4.982334,-0.052893,0.015855,-0.013856
21901,-5.595249,2.097321,-4.996699,-0.057023,0.026113,-0.018786
21916,-5.674258,1.991976,-5.044583,-0.049296,0.022649,-0.036372
21931,-5.784391,1.896208,-5.169081,-0.065283,0.019851,-0.041701
21946,-5.837064,1.984793,-5.114015,-0.087533,0.020784,-0.038104
21961,-5.923255,2.073379,-5.161899,-0.090064,0.017986,-0.045432
21976,-6.114791,2.116474,-5.128380,-0.083403,0.018519,-0.055691
21991,-6.145916,2.018312,-5.171475,-0.073410,0.010126,-0.070080
22006,-6.098032,1.917755,-5.037400,-0.082070,0.012923,-0.075942
22021,-5.997475,1.821988,-4.948815,-0.103387,0.019585,-0.067681
22036,-6.040571,1.769315,-5.075707,-0.113913,0.020384,-0.063951
22051,-6.074090,1.716643,-5.039794,-0.116178,0.027046,-0.057556
22066,-6.062119,1.659182,-5.006276,-0.112714,0.037172,-0.044632
22081,-5.853823,1.812411,-4.972757,-0.096593,0.028112,-0.033308
22096,-6.045359,1.814805,-4.812346,-0.053559,0.029044,-0.033841
22111,-6.071695,1.628057,-5.003881,-0.025980,0.036505,-0.041302
22126,-6.112397,1.436521,-5.063736,-0.047963,0.037305,-0.029977
22141,-6.119579,1.388637,-4.903325,-0.087533,0.052227,-0.001865
22156,-6.054936,1.582567,-5.154716,-0.091530,0.052493,0.020384
22171,-6.205770,1.817199,-5.152322,-0.003997,0.040369,0.061286
22186,-6.083666,1.862689,-5.027823,-0.010259,-0.026380,0.018519
22201,-5.942409,1.910573,-5.056554,0.027179,-0.057023,0.017187
22216,-6.069301,1.905784,-5.035006,0.036372,-0.087266,0.021717
22231,-6.174646,1.869871,-4.814740,0.037172,-0.108051,0.020251
22246,-6.098032,1.929726,-4.673481,0.025980,-0.107784,0.015588
22261,-6.054936,2.003947,-4.465186,0.008926,-0.084469,0.002265
22276,-6.062119,1.963245,-4.450821,0.000799,-0.056357,-0.014389
22291,-6.086061,1.728614,-4.429273,-0.024781,-0.010658,-0.021983
22306,-5.954380,1.781286,-4.400543,-0.054891,0.019985,-0.025181
22321,-5.714959,1.920150,-4.374207,-0.057289,0.048896,-0.031709
22336,-5.765238,1.831564,-4.355053,-0.046364,0.072478,-0.026513
22351,-5.805939,1.812411,-4.517859,-0.022383,0.082737,-0.023449
22366,-5.834670,1.810017,-4.570531,0.004930,0.101789,-0.018919
22381,-5.655104,1.747767,-4.577713,0.002398,0.113646,-0.015455
22396,-5.779603,1.635240,-4.721365,0.000400,0.129900,-0.015588
22411,-6.016629,1.596933,-4.819528,-0.021184,0.143490,0.003064
22426,-6.016629,1.795651,-4.783615,-0.023449,0.168404,0.006795
22441,-5.858612,1.917755,-5.025429,0.021717,0.155481,-0.010126
22456,-5.837064,1.740585,-5.212177,0.028778,0.140292,-0.014123
22471,-5.853823,1.577779,-5.293580,0.023715,0.120441,-0.008926
22486,-5.980716,1.592144,-5.305551,-0.003730,0.103521,0.013323
22501,-6.052542,1.991976,-5.252879,0.018786,0.091663,0.012657
22516,-6.110003,2.185906,-5.295974,0.062485,0.069680,0.001466
22531,-6.162675,1.905784,-5.312734,0.101922,0.059421,-0.022383
22546,-6.330269,1.642422,-5.279215,0.045032,0.044100,-0.023449
22561,-6.133945,1.702277,-5.252879,-0.034507,0.054492,-0.004663
22576,-5.906496,1.872266,-5.236119,-0.063018,0.060887,0.002531
22591,-5.992687,2.042254,-5.216965,-0.030643,0.048763,-0.008260
22606,-5.863400,1.936909,-5.334281,0.009992,0.038504,-0.020384
22621,-5.796362,1.766921,-5.197812,0.017453,0.035972,-0.018519
22636,-5.607220,1.477222,-5.204994,-0.021450,0.038371,-0.000400
22651,-5.832275,1.520318,-5.243302,-0.066616,0.061953,0.016920
22666,-5.798757,1.707066,-5.300763,-0.071945,0.067815,0.016654
22681,-5.638345,1.841141,-5.262455,-0.035706,0.063285,0.007594
22696,-5.583278,1.716643,-5.231330,-0.010392,0.059155,0.005329
22711,-5.724536,1.527501,-5.279215,-0.025047,0.062219,0.021184
22726,-5.789180,1.529895,-5.269638,-0.055158,0.064484,0.043700
22741,-5.753267,1.800440,-5.269638,-0.057423,0.051427,0.040103
22756,-5.896919,1.982399,-5.324705,-0.047031,0.039703,0.037571
22771,-6.090849,1.936909,-5.401319,-0.033574,0.058622,0.022250
22786,-6.026206,1.692701,-5.482722,-0.042368,0.045965,0.014123
22801,-5.975927,1.589750,-5.363012,-0.091796,0.046364,0.024381
22816,-5.793968,1.704672,-5.434838,-0.122706,0.037704,0.038770
22831,-5.801151,1.879448,-5.408502,-0.105652,0.015055,0.043167
22846,-5.849035,1.934515,-5.343858,-0.058622,-0.005729,0.039037
22861,-5.858612,1.975216,-5.386954,-0.013989,-0.024115,0.026113
22876,-5.702988,1.869871,-5.341464,-0.001998,-0.032775,0.024648
22891,-5.748478,1.678335,-5.341464,-0.024381,-0.034107,0.023715
22906,-5.901707,1.582567,-5.233725,-0.073277,-0.022649,0.035306
22921,-5.853823,1.647211,-5.245696,-0.119242,-0.002931,0.038237
22936,-5.853823,1.754950,-5.140351,-0.138694,0.008660,0.043833
22951,-5.813122,1.848324,-5.195417,-0.121773,0.007994,0.039969
22966,-5.906496,1.900996,-5.317522,-0.085401,-0.013989,0.033974
22981,-5.863400,1.987187,-5.221754,-0.060620,-0.039703,0.035306
22996,-5.712565,1.766921,-5.046977,-0.041568,-0.067282,0.031176
23011,-5.784391,1.592144,-5.058948,-0.072611,-0.073410,0.044899
23026,-5.930438,1.618480,-4.951209,-0.078340,-0.060487,0.058089
23041,-5.865794,1.766921,-4.814740,-0.057289,-0.058089,0.061953
23056,-5.803545,2.152387,-4.910508,-0.002531,-0.044899,0.053159
23071,-5.894525,2.082955,-4.833893,0.043700,-0.053959,0.035040
23086,-5.940014,1.776498,-4.673481,0.035173,-0.048363,0.028112
23101,-5.901707,1.762132,-4.647145,-0.017054,-0.029577,0.037571
23116,-5.832275,1.886631,-4.742914,-0.036639,0.000133,0.034773
23131,-5.829881,1.824382,-4.860229,-0.057556,0.028911,0.035306
23146,-5.925649,1.975216,-4.915296,-0.034907,0.034240,0.024781
23161,-6.069301,1.965640,-4.865018,-0.003597,0.028778,0.018786
23176,-5.966351,2.085350,-4.805163,0.027845,0.012524,0.018386
23191,-5.884948,2.066196,-4.841076,0.049029,-0.013989,0.022516
23206,-6.026206,1.884237,-4.821922,0.034640,-0.020251,0.027446
23221,-6.074090,1.958457,-4.786009,0.038904,-0.025580,0.031576
23236,-6.121974,1.898602,-4.865018,0.039703,0.010792,0.035440
23251,-5.956774,1.972822,-4.884171,0.035306,0.033441,0.020518
23266,-5.942409,1.795651,-4.932055,0.013723,0.053159,0.017853
23281,-5.844246,1.807622,-5.135562,-0.002798,0.056623,0.022916
23296,-5.686229,1.984793,-5.209783,0.000799,0.036905,0.034773
23311,-5.537788,2.099715,-5.164293,0.038637,0.019319,0.027446
23326,-5.683835,1.987187,-5.257667,0.064217,-0.004530,0.020784
23341,-5.810728,1.893813,-5.281609,0.078740,-0.014655,0.023848
23356,-5.676652,1.831564,-5.178658,0.070613,-0.011858,0.021583
23371,-5.604826,1.929726,-5.188235,0.043167,-0.004130,0.033841
23386,-5.679046,2.030283,-5.104438,0.061153,-0.002931,0.029711
23401,-5.779603,2.157176,-5.020641,0.069946,0.007594,0.026913
23416,-5.798757,2.080561,-5.013458,0.046631,0.031576,0.020251
23431,-5.832275,2.073379,-5.056554,0.013456,0.057822,0.011458
23446,-5.975927,1.991976,-5.094861,-0.033308,0.081271,0.004130
23461,-6.021417,1.965640,-5.020641,-0.076342,0.102988,-0.009726
23476,-5.920861,2.078167,-4.953603,-0.099524,0.102721,-0.018786
23491,-5.753267,1.896208,-4.869806,-0.094194,0.091397,-0.037704
23506,-5.825093,1.915361,-4.941632,-0.078340,0.083936,-0.036505
23521,-5.793968,1.721431,-4.987122,-0.065417,0.069547,-0.015588
23536,-5.571307,1.860295,-5.013458,-0.034907,0.057156,-0.003864
23551,-5.343858,1.857901,-4.975151,0.010792,0.051960,-0.009459
23566,-5.413290,1.642422,-4.977545,0.035173,0.058355,-0.010259
23581,-5.635951,1.496376,-5.099649,-0.005063,0.092995,0.005729
23596,-5.700594,1.654393,-5.372589,-0.051294,0.122306,0.009193
23611,-5.755661,1.869871,-5.307945,-0.077940,0.135629,0.009459
23626,-5.714959,2.102109,-5.430049,-0.079672,0.111781,0.010392
23641,-5.908890,2.154782,-5.686229,-0.055691,0.072611,0.006928
23656,-6.076484,2.090138,-5.578490,-0.061020,0.045832,0.002665
23671,-6.019023,1.881842,-5.767632,-0.108450,0.025980,0.016387
23686,-5.980716,1.781286,-5.971139,-0.146288,0.010792,0.014123
23701,-5.904101,1.826776,-5.765238,-0.163342,-0.005596,0.013590
23716,-5.784391,2.006341,-5.707777,-0.135896,-0.045165,0.001466
23731,-5.602432,1.733402,-5.645527,-0.122706,-0.070613,0.022783
23746,-5.817910,1.750161,-5.640739,-0.143757,-0.096459,0.055824
23761,-5.635951,1.968034,-5.621585,-0.124305,-0.126170,0.054758
23776,-5.322310,2.056619,-5.389348,-0.093262,-0.169070,0.032775
23791,-5.382165,2.142811,-5.420473,-0.071545,-0.189988,0.019585
23806,-5.370194,2.394202,-5.456386,-0.039703,-0.214636,-0.009726
23821,-5.578490,2.365471,-5.341464,0.001332,-0.235686,-0.055557
23836,-5.851429,2.217031,-5.147533,-0.010392,-0.225960,-0.080072
23851,-6.026206,2.169147,-5.032612,-0.084735,-0.161743,-0.082337
23866,-5.987898,2.159570,-4.800375,-0.146421,-0.116977,-0.100856
23881,-6.064513,2.116474,-4.647145,-0.207041,-0.064750,-0.126969
23896,-6.052542,2.106897,-4.695029,-0.238884,-0.028112,-0.142691
23911,-5.798757,2.030283,-4.675876,-0.221031,-0.014123,-0.153083
23926,-5.616797,1.948880,-4.774038,-0.197315,-0.013323,-0.148686
23941,-5.573701,1.810017,-4.697423,-0.167871,-0.021184,-0.125637
23956,-5.609614,1.721431,-4.695029,-0.144556,-0.035040,-0.087133
23971,-5.549759,1.984793,-4.498705,-0.109649,-0.043300,-0.061420
23986,-5.796362,2.157176,-4.589684,-0.069547,-0.033308,-0.062219
24001,-6.047753,1.968034,-4.721365,-0.060487,0.004796,-0.079139
24016,-6.428432,1.817199,-4.735731,-0.107784,0.045032,-0.093795
24031,-6.330269,1.781286,-4.685452,-0.200513,0.085002,-0.098458
24046,-6.236896,1.884237,-4.651934,-0.261799,0.098991,-0.099391
24061,-6.291962,1.920150,-4.707000,-0.270060,0.071545,-0.104986
24076,-6.378153,2.044648,-4.687847,-0.240216,0.041435,-0.103787
24091,-6.366182,2.001553,-4.759673,-0.153349,-0.004397,-0.102988
24106,-6.189011,1.869871,-4.685452,-0.081138,-0.043833,-0.086600
24121,-6.246472,1.719037,-4.680664,-0.026380,-0.070879,-0.076342
24136,-6.414066,1.525106,-4.539406,-0.003331,-0.080738,-0.070479
24151,-6.500257,1.606509,-4.441244,0.000000,-0.071145,-0.047164
24166,-6.323087,1.618480,-4.333505,0.007994,-0.049429,-0.033708
24181,-6.332664,1.565808,-4.347870,0.015455,-0.037172,-0.015455
24196,-6.363788,1.472434,-4.400543,0.021051,-0.020917,-0.010792
24211,-6.227318,1.544260,-4.355053,0.023582,0.004663,0.009193
24226,-6.078878,1.491588,-4.419696,0.016920,0.024115,0.036372
24241,-5.980716,1.671153,-4.508282,0.033841,0.023182,0.053426
24256,-6.028600,1.723825,-4.486734,0.073011,0.018919,0.059554
24271,-6.078878,1.663970,-4.443638,0.102188,0.018786,0.079939
24286,-5.951985,1.802834,-4.446033,0.121507,0.020251,0.104453
24301,-5.956774,1.872266,-4.472369,0.138960,0.028778,0.115645
24316,-6.064513,1.838747,-4.510676,0.128435,0.034240,0.123372
24331,-6.021417,1.860295,-4.644751,0.108717,0.055424,0.116044
24346,-5.832275,1.948880,-4.639963,0.092329,0.072478,0.101389
24361,-5.810728,1.975216,-4.862624,0.071545,0.085401,0.100190
24376,-5.894525,2.142811,-4.900931,0.083669,0.081005,0.095260
24391,-5.940014,2.221819,-4.989516,0.120708,0.080605,0.077407
24406,-5.801151,2.209848,-5.137957,0.139093,0.064351,0.052760
24421,-5.911284,2.030283,-5.070919,0.130567,0.060887,0.046098
24436,-6.052542,2.056619,-5.193023,0.061553,0.075542,0.053026
24451,-5.940014,2.214637,-5.200206,0.026513,0.094194,0.041302
24466,-5.880159,2.169147,-5.161899,0.004930,0.063285,0.017587
24481,-5.832275,2.061408,-5.252879,-0.033974,0.066083,0.003864
24496,-5.911284,2.255338,-5.228936,-0.037038,0.048896,0.007194
24511,-5.930438,2.276886,-5.123591,-0.020784,0.051427,0.000400
24526,-5.861006,2.181118,-5.109226,0.002665,0.057156,-0.020651
24541,-6.004658,1.960851,-5.128380,-0.003331,0.079539,-0.029844
24556,-6.052542,1.659182,-5.228936,-0.043567,0.114979,-0.022250
24571,-5.980716,1.805228,-5.293580,-0.071012,0.131766,-0.016654
24586,-5.650316,1.814805,-5.171475,-0.076208,0.122839,-0.010126
24601,-5.619191,1.865083,-5.317522,-0.055691,0.098058,0.001332
24616,-5.846641,1.908179,-5.216965,-0.042900,0.068214,0.023582
24631,-5.918467,1.953669,-5.410896,-0.035040,0.045299,0.037438
24646,-5.865794,2.013524,-5.339070,-0.019851,0.023315,0.022116
24661,-5.925649,1.958457,-5.425261,-0.036639,0.018786,0.009459
24676,-6.086061,1.865083,-5.262455,-0.063951,0.032642,-0.000533
24691,-6.062119,2.008735,-5.238513,-0.089132,0.027312,-0.002798
24706,-5.975927,2.054225,-5.219359,-0.085668,0.015455,-0.006129
24721,-5.798757,2.018312,-5.264850,-0.067681,-0.006129,-0.020384
24736,-5.942409,1.960851,-5.106832,-0.042101,-0.026380,-0.026380
24751,-5.975927,1.754950,-5.128380,-0.047963,-0.029577,-0.020118
24766,-5.923255,1.843535,-4.975151,-0.045032,-0.040769,-0.023582
24781,-5.772420,1.848324,-4.960786,-0.029044,-0.047031,-0.029444
24796,-5.896919,1.781286,-4.874595,-0.028245,-0.039570,-0.023449
24811,-5.963956,1.740585,-4.862624,-0.031309,-0.030110,-0.016387
24826,-5.825093,1.800440,-4.853047,-0.029178,-0.014655,-0.019052
24841,-5.710171,1.721431,-4.752491,-0.027446,-0.001732,-0.019319
24856,-5.719748,1.620875,-4.841076,-0.034907,0.007461,-0.011858
24871,-5.837064,1.678335,-4.783615,-0.035972,0.026247,-0.003331
24886,-5.767632,1.766921,-4.939238,-0.019985,0.038904,0.004397
24901,-5.849035,1.869871,-4.987122,0.004397,0.031576,0.006928
24916,-5.959168,1.651999,-5.090073,-0.001199,0.039703,0.014922
24931,-6.088455,1.877054,-5.106832,-0.012657,0.030643,0.023049
24946,-6.088455,1.982399,-5.109226,-0.018786,0.013190,0.025580
24961,-5.987898,2.140416,-5.130774,-0.004530,-0.003864,0.023049
24976,-6.124368,2.078167,-5.260061,0.000266,-0.016254,0.013456
24991,-6.193799,1.848324,-5.255273,-0.016387,-0.025447,0.012524
25006,-6.090849,1.735796,-5.300763,-0.043167,-0.025847,0.018386
25021,-6.014235,1.869871,-5.336676,-0.041701,-0.022383,0.016654
25036,-6.057330,1.781286,-5.224148,-0.028911,-0.019718,0.022116
25051,-6.074090,1.793257,-5.224148,-0.023848,-0.039170,0.032508
25066,-6.030994,1.582567,-5.176264,-0.041968,-0.043567,0.047031
25081,-5.892130,1.745373,-5.073313,-0.049429,-0.060087,0.053959
25096,-5.870583,1.853112,-5.049371,-0.039570,-0.049296,0.055691
25111,-6.042965,1.929726,-4.857835,-0.004663,-0.066349,0.047297
25126,-6.126762,1.853112,-4.824317,0.016521,-0.057822,0.041035
25141,-6.076484,1.778892,-4.721365,0.017320,-0.048763,0.049695
25156,-5.995081,1.642422,-4.675876,-0.014655,-0.042234,0.058622
25171,-6.047753,1.599327,-4.560954,-0.057822,-0.010259,0.077807
25186,-5.911284,1.671153,-4.805163,-0.076075,0.009193,0.093795
25201,-5.817910,1.817199,-4.764462,-0.080605,0.038770,0.101522
25216,-5.805939,1.879448,-4.848258,-0.055691,0.040369,0.096859
25231,-5.846641,1.843535,-4.855441,-0.056357,0.052760,0.102322
25246,-5.849035,2.116474,-4.872200,-0.033441,0.038104,0.089931
25261,-5.810728,2.173935,-4.795586,-0.021450,0.047430,0.074476
25276,-5.975927,2.166753,-4.886566,-0.019185,0.023182,0.062219
25291,-6.011840,1.965640,-4.903325,-0.045832,0.035706,0.057289
25306,-6.126762,1.999158,-4.946421,-0.071545,0.041968,0.063685
25321,-6.002264,2.257732,-4.948815,-0.086600,0.046764,0.065550
25336,-5.944803,2.281674,-4.891354,-0.070080,0.046098,0.053426
25351,-5.999869,2.255338,-5.046977,-0.035972,0.035306,0.029178
25366,-5.916072,2.138022,-5.018247,-0.019851,0.007461,0.029844
25381,-5.853823,2.205060,-4.982334,-0.007594,0.000133,0.029444
25396,-5.738902,2.188300,-5.087678,0.006129,-0.015188,0.032908
25411,-5.820304,2.142811,-5.003881,0.006928,-0.026247,0.029977
25426,-5.793968,2.015918,-4.891354,-0.011591,-0.011724,0.029844
25441,-5.829881,1.996764,-4.836287,-0.051827,0.015322,0.047031
25456,-5.827487,2.116474,-4.843470,-0.079806,0.053026,0.048896
25471,-5.817910,2.214637,-4.783615,-0.090064,0.070746,0.039037
25486,-5.892130,2.288857,-4.819528,-0.079806,0.087266,0.013057
25501,-5.892130,2.286463,-4.908113,-0.079139,0.080205,0.000799
25516,-5.753267,2.358289,-4.979939,-0.074343,0.070746,-0.003597
25531,-5.894525,2.363077,-4.994305,-0.051294,0.047564,-0.014922
25546,-5.846641,2.193089,-5.058948,-0.043300,0.032109,-0.017320
25561,-5.832275,2.080561,-5.073313,-0.051827,0.022649,-0.004263
25576,-5.961562,2.032677,-5.061342,-0.058622,0.016254,-0.005063
25591,-5.995081,2.094926,-5.027823,-0.047963,0.002531,-0.001332
25606,-5.825093,2.094926,-4.848258,-0.028112,-0.008260,0.004663
25621,-5.834670,2.217031,-4.917690,-0.002132,-0.009060,0.007061
25636,-5.932832,2.159570,-4.865018,0.030643,-0.019851,-0.007727
25651,-6.004658,2.008735,-4.817134,0.027845,-0.012391,-0.005462
25666,-5.858612,1.915361,-4.884171,-0.013856,-0.001466,-0.000666
25681,-5.904101,1.960851,-4.936844,-0.044499,0.001332,0.011458
25696,-5.863400,2.205060,-4.888960,-0.030243,0.006262,0.005862
25711,-5.861006,2.319981,-4.865018,0.010525,0.002265,0.002931
25726,-5.726930,2.262521,-4.975151,0.063685,-0.007594,-0.021850
25741,-5.851429,2.111686,-4.977545,0.061953,-0.003064,-0.019052
25756,-6.007052,2.018312,-4.958392,0.021051,0.014789,-0.013456
25771,-5.980716,2.070984,-5.003881,-0.009593,0.022116,-0.009593
25786,-5.882554,2.185906,-4.977545,-0.029178,0.037438,-0.019185
25801,-5.844246,2.303222,-5.066131,-0.033574,0.029044,-0.024914
25816,-5.868188,2.178724,-5.042189,-0.030510,0.012257,-0.036106
25831,-5.944803,2.130840,-5.082890,-0.036505,0.000000,-0.034773
25846,-5.870583,2.078167,-5.049371,-0.039303,0.006528,-0.037305
25861,-5.741296,2.027889,-4.924873,-0.032375,-0.005596,-0.041435
25876,-5.837064,1.989582,-4.920084,-0.017054,0.012657,-0.043567
25891,-5.937620,1.953669,-4.972757,0.002531,0.014789,-0.048496
25906,-5.896919,1.872266,-4.874595,0.001466,0.022649,-0.043833
25921,-5.808333,1.807622,-4.953603,-0.009060,0.023449,-0.030243
25936,-5.908890,1.867477,-5.020641,-0.018119,0.022250,-0.015188
25951,-6.007052,2.020706,-5.035006,-0.006795,0.013590,-0.017986
25966,-5.947197,2.066196,-5.161899,0.011991,-0.001332,-0.029444
25981,-5.913678,1.977611,-5.003881,0.006928,-0.002398,-0.035573
25996,-6.083666,1.762132,-5.128380,-0.028645,-0.002398,-0.025847
26011,-6.100426,1.853112,-5.152322,-0.049695,-0.001998,-0.018786
26026,-6.071695,2.056619,-5.054160,-0.031176,-0.008260,-0.018253
26041,-5.904101,2.008735,-4.958392,-0.001199,-0.012257,-0.022516
26056,-6.002264,1.917755,-4.984728,0.009459,-0.013989,-0.013989
26071,-6.100426,1.912967,-5.011064,0.024248,-0.021317,-0.013856
26086,-5.956774,1.891419,-4.982334,0.016254,-0.033308,-0.007594
26101,-5.870583,1.927332,-4.958392,0.009992,-0.040236,-0.000133
26116,-5.980716,1.934515,-4.845864,0.001599,-0.038770,-0.001332
26131,-6.236896,1.886631,-4.927267,-0.005596,-0.021317,0.001332
26146,-6.110003,1.898602,-4.778827,-0.026646,-0.005995,0.003730
26161,-5.971139,1.958457,-4.886566,-0.021850,0.008926,-0.002931
26176,-5.858612,1.972822,-4.711789,-0.010259,0.001066,-0.014256
26191,-5.944803,1.747767,-4.685452,-0.011058,0.012790,-0.009726
26206,-5.827487,1.762132,-4.738125,-0.024515,0.016254,0.001199
26221,-5.808333,1.910573,-4.776433,-0.007061,0.015855,0.007727
26236,-5.844246,2.047042,-4.821922,0.026779,0.008394,0.002798
26251,-6.030994,1.889025,-4.812346,0.048363,0.012657,0.004130
26266,-6.095637,1.857901,-4.891354,0.048230,0.017986,0.004530
26281,-5.947197,1.879448,-4.929661,0.013323,0.023982,0.010126
26296,-5.887342,1.960851,-4.912902,-0.017853,0.031975,0.009859
26311,-5.923255,2.037466,-4.922479,-0.027845,0.027845,0.004263
26326,-5.949591,2.267309,-4.829105,-0.000933,0.023848,-0.017853
26341,-5.791574,2.197877,-4.869806,0.025447,0.020917,-0.041701
26356,-5.947197,1.800440,-5.025429,0.000400,0.036905,-0.037172
26371,-6.026206,1.735796,-5.068525,-0.044499,0.066083,-0.026779
26386,-5.944803,1.879448,-5.030218,-0.067282,0.069813,-0.025181
26401,-5.700594,2.032677,-5.133168,-0.061553,0.049296,-0.032908
26416,-5.736507,2.035071,-5.181052,-0.026247,0.013057,-0.052626
26431,-5.837064,1.872266,-5.238513,-0.015988,-0.006262,-0.054225
26446,-5.966351,1.663970,-5.149928,-0.028245,-0.024248,-0.038237
26461,-5.755661,1.786074,-5.176264,-0.048629,-0.027712,-0.030643
26476,-5.676652,1.848324,-5.250484,-0.043700,-0.022649,-0.043833
26491,-5.702988,1.817199,-5.181052,-0.033841,-0.033441,-0.054358
26506,-5.786786,1.922544,-5.260061,-0.027845,-0.043966,-0.061819
26521,-5.702988,2.008735,-5.097255,-0.013856,-0.060487,-0.067815
26536,-5.827487,2.047042,-5.248090,-0.019718,-0.065417,-0.070613
26551,-6.119579,1.994370,-5.128380,-0.040502,-0.054758,-0.075542
26566,-6.349423,1.958457,-5.082890,-0.080072,-0.031309,-0.090464
26581,-6.347029,1.932121,-5.075707,-0.127103,-0.002931,-0.096193
26596,-6.272809,1.972822,-5.044583,-0.173201,0.028511,-0.103920
26611,-6.236896,1.968034,-4.896142,-0.176132,0.025314,-0.100190
26626,-6.177040,1.833959,-4.848258,-0.166806,0.019851,-0.087799
26641,-6.177040,1.800440,-4.838682,-0.145888,0.011591,-0.071012
26656,-6.112397,1.733402,-4.888960,-0.111381,0.006795,-0.063018
26671,-6.138733,1.611298,-4.786009,-0.092063,0.014123,-0.047564
26686,-6.232107,1.563414,-4.692635,-0.067815,0.011858,-0.035573
26701,-6.098032,1.644817,-4.627992,-0.054891,0.012790,-0.025714
26716,-6.076484,1.620875,-4.580108,-0.036505,0.014789,-0.020251
26731,-6.244078,1.474828,-4.666299,-0.056090,0.019052,0.005196
26746,-6.270414,1.580173,-4.687847,-0.041168,0.006662,0.014123
26761,-6.224924,1.656788,-4.721365,-0.047963,0.015855,0.025047
26776,-6.136339,1.836353,-4.726154,-0.038637,0.012657,0.024515
26791,-6.181828,1.707066,-4.716577,-0.028378,0.007994,0.020518
26806,-6.236896,1.702277,-4.697423,-0.033041,-0.002531,0.020384
26821,-6.157887,1.910573,-4.680664,-0.009326,-0.013856,0.010792
26836,-6.042965,2.025495,-4.599261,0.017187,-0.024648,-0.008527
26851,-6.191405,1.865083,-4.709394,0.026513,-0.020784,-0.015988
26866,-6.246472,1.738190,-4.601655,0.013856,-0.013723,-0.012790
26881,-6.234501,1.731008,-4.544195,-0.023715,0.014389,-0.012923
26896,-5.990293,1.778892,-4.587290,-0.043300,0.037704,-0.017853
26911,-6.019023,1.594538,-4.639963,-0.063551,0.067681,-0.019851
26926,-6.074090,1.601721,-4.695029,-0.062485,0.077274,-0.012923
26941,-5.961562,1.642422,-4.843470,-0.047564,0.079806,-0.002265
26956,-5.861006,1.695095,-4.982334,-0.011191,0.069813,0.005196
26971,-5.925649,1.477222,-5.027823,-0.008926,0.062086,0.023982
26986,-6.042965,1.632846,-5.102044,-0.001199,0.058089,0.046897
27001,-6.098032,1.635240,-5.106832,-0.007594,0.048496,0.060887
27016,-5.997475,1.960851,-5.080496,0.007461,0.025847,0.063551
27031,-6.004658,1.881842,-5.231330,0.021051,0.019319,0.057423
27046,-6.136339,1.752556,-5.226542,0.013057,0.012790,0.063951
27061,-6.224924,1.783680,-5.145139,-0.017587,0.012124,0.078074
27076,-6.093243,1.905784,-5.082890,-0.032642,0.018919,0.085934
27091,-6.141127,2.109292,-5.128380,-0.023848,0.015322,0.073810
27106,-6.208165,2.147599,-5.269638,0.011058,0.005462,0.052893
27121,-6.102820,2.092532,-5.109226,0.027979,-0.013190,0.039969
27136,-6.078878,2.068590,-5.018247,0.022783,-0.041968,0.033974
27151,-5.868188,1.996764,-5.003881,0.016787,-0.070080,0.031176
27166,-5.942409,1.905784,-4.805163,0.009060,-0.080871,0.030110
27181,-6.030994,1.845930,-4.757279,0.008793,-0.074609,0.027179
27196,-5.815516,1.932121,-4.793192,0.015188,-0.069147,0.017587
27211,-5.738902,1.927332,-4.742914,0.024115,-0.047564,-0.002132
27226,-5.844246,1.879448,-4.659116,0.024381,-0.038637,-0.008660
27241,-5.987898,1.900996,-4.745308,0.014655,-0.015188,-0.014389
27256,-5.937620,1.958457,-4.778827,0.009859,-0.008527,-0.018119
27271,-6.004658,1.903390,-4.790798,-0.011458,0.007328,-0.014389
27286,-6.069301,1.917755,-4.833893,-0.017853,0.019718,-0.015455
27301,-6.023811,1.862689,-4.726154,-0.029444,0.029711,-0.018119
27316,-5.992687,1.857901,-4.771644,-0.030510,0.030110,-0.021717
27331,-5.959168,1.810017,-4.867412,-0.024515,0.031975,-0.017320
27346,-6.131550,1.742979,-4.812346,-0.002931,0.041302,-0.017587
27361,-6.071695,1.525106,-5.018247,-0.009593,0.051427,-0.009193
27376,-6.076484,1.436521,-5.061342,-0.040902,0.063018,0.013057
27391,-6.014235,1.616086,-5.006276,-0.075409,0.062086,0.046364
27406,-6.074090,1.908179,-4.831499,-0.057956,0.045032,0.058755
27421,-6.234501,2.092532,-4.934450,0.006928,0.008926,0.043034
27436,-6.275203,2.030283,-4.939238,0.049162,-0.008527,0.024381
27451,-6.217741,1.807622,-4.989516,0.020118,0.009992,0.025980
27466,-6.315904,1.723825,-5.070919,-0.025580,0.010658,0.028645
27481,-6.332664,1.958457,-5.003881,-0.048896,0.021184,0.025580
27496,-6.126762,2.080561,-4.996699,-0.013590,0.005196,0.007461
27511,-5.983110,1.857901,-4.886566,0.002265,-0.012923,0.004530
27526,-6.057330,1.721431,-4.989516,0.005196,-0.017587,0.013723
27541,-6.165069,1.673547,-4.936844,-0.006262,-0.009726,0.016920
27556,-5.973533,1.759738,-4.900931,-0.010525,-0.013989,0.020251
27571,-5.877765,1.807622,-4.738125,-0.012524,-0.017720,0.029044
27586,-5.853823,1.853112,-4.709394,-0.014123,-0.011325,0.030110
27601,-5.851429,1.893813,-4.704606,-0.009193,-0.009593,0.036772
27616,-5.825093,1.889025,-4.733336,-0.007194,0.006662,0.026913
27631,-5.851429,1.891419,-4.781221,-0.023449,0.027179,0.021317
27646,-5.863400,1.968034,-4.766856,-0.034773,0.045698,0.011191
27661,-5.987898,1.999158,-4.881777,-0.049828,0.067681,-0.003198
27676,-6.016629,2.037466,-4.999093,-0.056757,0.057956,-0.011724
27691,-5.908890,2.116474,-5.070919,-0.058355,0.048629,-0.015322
27706,-5.901707,2.087744,-4.991910,-0.048763,0.030776,-0.019185
27721,-6.047753,2.003947,-5.032612,-0.040236,0.016121,-0.027179
27736,-6.220136,1.853112,-4.975151,-0.057423,0.018786,-0.022783
27751,-6.150704,1.821988,-5.015852,-0.090064,0.031176,-0.013190
27766,-6.050148,1.867477,-5.035006,-0.118043,0.042634,-0.007594
27781,-6.121974,2.059013,-4.972757,-0.110049,0.031975,-0.008394
27796,-6.196194,2.130840,-4.929661,-0.071279,0.013989,-0.033841
27811,-6.081272,1.996764,-5.121197,-0.028245,0.001466,-0.054358
27826,-6.009446,1.735796,-5.042189,-0.017187,-0.006528,-0.054358
27841,-6.167463,1.649605,-4.972757,-0.041701,-0.008793,-0.043966
27856,-6.100426,1.561020,-4.932055,-0.041435,-0.012923,-0.039570
27871,-6.112397,1.596933,-4.888960,-0.049962,-0.013057,-0.021583
27886,-6.129156,1.647211,-4.841076,-0.036372,-0.015588,-0.009726
27901,-6.155492,1.750161,-4.776433,-0.014522,-0.022516,-0.006528
27916,-6.301539,1.630451,-4.781221,0.004130,-0.023182,-0.003864
27931,-6.189011,1.505953,-4.781221,-0.017853,-0.022116,0.006928
27946,-6.105214,1.587356,-4.802769,-0.043300,-0.018786,0.023182
27961,-6.157887,1.685518,-4.867412,-0.046231,-0.014789,0.031842
27976,-6.114791,1.800440,-4.845864,-0.021717,-0.015322,0.025714
27991,-5.992687,1.812411,-4.821922,0.002798,-0.021317,0.021450
28006,-5.983110,1.774103,-4.733336,0.004263,-0.021983,0.024115
28021,-6.047753,1.747767,-4.812346,0.001332,-0.018253,0.023582
28036,-6.155492,1.807622,-4.774038,-0.009726,-0.021850,0.027312
28051,-6.105214,1.929726,-4.790798,-0.019718,-0.009060,0.026113
28066,-6.030994,2.032677,-4.853047,-0.011191,-0.007194,0.020118
28081,-6.028600,1.855506,-4.829105,-0.022649,-0.007861,0.016121
28096,-5.987898,1.968034,-4.898537,-0.031709,-0.009859,0.008660
28111,-5.937620,2.097321,-4.915296,-0.027179,-0.018652,-0.003864
28126,-5.829881,2.195483,-4.979939,-0.014789,-0.031443,-0.019052
28141,-5.923255,2.008735,-4.941632,-0.029844,-0.028645,-0.031309
28156,-6.081272,1.963245,-4.900931,-0.041035,-0.019718,-0.040502
28171,-6.050148,2.008735,-4.881777,-0.068214,-0.004397,-0.036372
28186,-6.014235,2.152387,-4.936844,-0.073410,0.007994,-0.044366
28201,-6.095637,2.147599,-4.778827,-0.077541,0.027179,-0.061553
28216,-6.119579,1.884237,-4.838682,-0.096992,0.040103,-0.068614
28231,-6.208165,1.833959,-4.903325,-0.140959,0.050495,-0.056890
28246,-6.098032,1.989582,-4.884171,-0.158012,0.057289,-0.053159
28261,-6.141127,2.001553,-4.900931,-0.158945,0.068081,-0.057822
28276,-6.093243,1.922544,-4.821922,-0.111914,0.050361,-0.072345
28291,-6.131550,1.766921,-4.821922,-0.104320,0.041302,-0.066349
28306,-5.944803,1.604115,-4.838682,-0.095260,0.037172,-0.068481
28321,-5.968745,1.498770,-4.797980,-0.107917,0.040369,-0.052760
28336,-6.212953,1.608904,-4.783615,-0.119508,0.054225,-0.031043
28351,-6.136339,1.783680,-4.874595,-0.055957,0.034374,-0.035972
28366,-6.110003,1.695095,-4.867412,-0.025314,0.021184,-0.032242
28381,-6.205770,1.565808,-4.934450,-0.012124,0.014123,-0.026113
28396,-6.409278,1.493982,-4.896142,-0.031443,0.002665,-0.007061
28411,-6.387730,1.572991,-4.905719,-0.060620,0.001998,0.012257
28426,-6.387730,1.886631,-4.853047,-0.064884,-0.013323,0.019585
