T,AX,AY,AZ,GX,GY,GZ
46,-5.820304,-0.529119,-5.133168,-0.022783,0.031309,0.002398
61,-5.951985,-0.684742,-5.245696,-0.011191,0.013856,-0.001199
76,-5.961562,-0.847547,-5.152322,-0.009726,0.013456,-0.007594
91,-5.992687,-0.787692,-5.341464,-0.010792,0.003064,-0.003864
106,-5.858612,-0.665588,-5.106832,-0.015055,-0.022116,-0.001998
121,-5.872977,-0.644040,-5.226542,0.001466,-0.022116,-0.010126
136,-5.997475,-0.615310,-5.123591,0.011191,-0.033441,-0.018919
151,-6.066907,-0.679953,-5.164293,0.022516,-0.019851,-0.024515
166,-5.947197,-0.797269,-5.152322,0.016521,-0.018119,-0.014922
181,-5.923255,-0.859518,-5.145139,0.000266,-0.006262,-0.005729
196,-6.023811,-0.897826,-5.152322,-0.007594,0.010925,0.009060
211,-6.021417,-0.857124,-5.181052,-0.019851,0.011724,0.007328
226,-5.858612,-0.826000,-5.209783,-0.008127,0.018253,-0.001865
241,-5.923255,-0.873884,-5.114015,-0.014922,0.017054,0.000533
256,-6.007052,-0.943315,-5.181052,-0.030110,0.007594,0.011325
271,-6.054936,-0.814029,-5.214571,-0.027046,0.014123,0.017853
286,-5.942409,-0.763750,-5.075707,-0.023049,0.004397,0.021850
301,-5.851429,-0.761356,-5.248090,-0.015188,-0.000799,0.015721
316,-5.954380,-0.773327,-5.171475,-0.011325,0.001732,0.005596
331,-6.045359,-0.658405,-5.193023,-0.003597,-0.011325,0.001332
346,-5.892130,-0.617704,-5.202600,0.007194,-0.021583,-0.009060
361,-5.887342,-0.691924,-5.226542,0.020784,-0.021717,-0.022383
376,-6.081272,-0.876278,-5.197812,0.020251,-0.025447,-0.022383
391,-6.114791,-0.955286,-5.173870,0.013856,-0.007861,-0.013989
406,-5.937620,-0.916979,-5.102044,0.000666,0.001066,0.002798
421,-5.954380,-0.945710,-5.140351,-0.000266,0.009060,0.011991
436,-6.064513,-0.833182,-5.121197,0.003597,0.009326,0.013190
451,-6.062119,-0.828394,-5.169081,0.008793,0.007461,0.005329
466,-5.997475,-0.835576,-5.169081,0.012657,0.004930,0.003198
481,-5.889736,-0.943315,-5.092467,0.005329,0.004930,0.004796
496,-6.047753,-0.950498,-4.994305,-0.016654,0.008394,0.016920
511,-6.071695,-0.845153,-5.145139,-0.018253,0.009992,0.015721
526,-6.138733,-0.804452,-5.133168,0.008793,0.005329,-0.000133
541,-5.889736,-0.773327,-5.128380,-0.019452,-0.006395,0.015721
556,-5.973533,-0.878672,-5.159504,-0.010658,0.017453,0.002665
571,-6.258443,-0.955286,-5.137957,-0.020518,0.031443,0.007194
586,-5.963956,-0.905008,-5.066131,-0.025847,0.029711,0.003064
601,-5.985504,-0.964863,-5.147533,-0.045565,0.040236,0.013989
616,-6.062119,-1.007959,-5.035006,-0.050095,0.027446,0.019319
631,-5.980716,-1.012747,-5.121197,-0.077674,0.045965,0.039037
646,-5.980716,-0.782904,-5.116409,-0.073677,0.057822,0.035839
661,-5.987898,-0.912191,-5.207388,-0.094594,0.075675,0.038371
676,-6.074090,-0.964863,-5.207388,-0.103654,0.074476,0.028645
691,-6.148310,-0.964863,-5.185841,-0.127236,0.076075,0.041035
706,-5.983110,-0.842759,-5.200206,-0.153083,0.075276,0.049695
721,-5.916072,-0.667982,-5.006276,-0.155348,0.082204,0.052227
736,-6.076484,-0.562637,-5.238513,-0.141625,0.092596,0.045165
751,-5.959168,-0.629675,-5.207388,-0.129234,0.093795,0.036639
766,-5.870583,-0.684742,-5.190629,-0.121907,0.091397,0.032775
781,-5.743690,-0.711078,-5.070919,-0.113513,0.072078,0.032109
796,-5.908890,-0.708684,-5.248090,-0.108983,0.057956,0.038371
811,-5.966351,-0.670376,-5.331887,-0.101389,0.049962,0.046364
826,-5.913678,-0.502782,-5.262455,-0.087666,0.035306,0.038104
841,-5.870583,-0.550666,-5.343858,-0.077407,0.049695,0.027579
856,-5.853823,-0.725443,-5.274426,-0.070213,0.059421,0.038504
871,-6.069301,-0.780510,-5.260061,-0.118176,0.143357,0.091663
886,-5.951985,-0.746991,-5.286397,-0.122040,0.126037,0.077674
901,-5.911284,-0.823605,-5.334281,-0.143623,0.094727,0.073810
916,-5.820304,-0.622492,-5.250484,-0.153616,0.099923,0.073544
931,-5.973533,-0.452504,-5.386954,-0.142291,0.086067,0.066349
946,-5.841852,-0.339977,-5.339070,-0.117377,0.088199,0.044632
961,-5.676652,-0.292093,-5.219359,-0.083669,0.061286,0.022383
976,-5.786786,-0.837971,-5.341464,-0.100057,0.045432,0.038504
991,-5.619191,-0.500388,-5.252879,-0.065017,0.046764,0.025580
1006,-5.894525,-0.445322,-5.389348,-0.053159,0.053159,0.021450
1021,-5.691017,-0.495600,-5.221754,-0.051960,0.027579,0.017587
1036,-6.028600,-0.533907,-5.372589,-0.061953,0.030643,0.007328
1051,-5.815516,-0.509965,-5.274426,-0.083136,0.033041,0.005995
1066,-5.863400,-0.359130,-5.355829,-0.081271,0.059821,0.005596
1081,-5.717353,-0.404620,-5.245696,-0.071279,0.009459,0.005196
1096,-5.858612,-0.277727,-5.219359,-0.042101,0.031709,-0.002398
1111,-5.724536,-0.466869,-5.444415,-0.033175,-0.008660,0.003864
1126,-5.525817,-0.105345,-5.358223,0.015055,0.009859,-0.022516
1141,-5.822699,-0.258574,-5.394136,0.066616,0.009593,-0.054092
1156,-5.913678,-0.593762,-5.243302,0.065017,-0.014655,-0.050761
1171,-5.803545,-0.675165,-5.339070,0.040769,-0.018253,-0.038237
1186,-5.803545,-0.670376,-5.243302,0.012790,-0.042767,-0.021184
1201,-5.880159,-0.500388,-5.212177,0.015588,-0.037971,-0.024781
1216,-5.942409,-0.433351,-5.310339,0.030243,-0.057956,-0.033841
1231,-5.755661,-0.313640,-5.238513,0.061153,-0.053825,-0.054492
1246,-5.815516,-0.332794,-5.351041,0.088998,-0.073544,-0.070746
1261,-5.786786,-0.392649,-5.240908,0.125371,-0.072345,-0.087266
1276,-5.940014,-0.605733,-5.334281,0.131899,-0.085534,-0.082470
1291,-5.841852,-1.027112,-5.145139,0.074876,-0.071678,-0.041835
1306,-6.019023,-0.426168,-5.334281,0.153482,-0.067548,-0.071812
1321,-5.798757,-0.565032,-5.159504,0.148686,-0.124971,-0.071279
1336,-6.086061,-0.849942,-5.327099,0.111381,-0.077940,-0.032375
1351,-6.078878,-0.644040,-5.346252,0.141225,-0.070346,-0.032375
1366,-5.853823,-0.775721,-5.039794,0.110449,-0.084735,-0.016787
1381,-6.014235,-0.670376,-5.398925,0.111648,-0.077274,-0.019452
1396,-6.081272,-0.857124,-5.305551,0.093528,-0.048096,-0.015055
1411,-5.980716,-0.859518,-5.221754,0.065816,-0.068481,-0.012124
1426,-6.042965,-0.742203,-5.231330,0.053426,-0.067282,-0.043833
1441,-5.961562,-1.003170,-5.082890,0.055025,-0.076208,-0.048629
1456,-6.239290,-1.448492,-5.430049,0.027312,-0.057556,-0.028511
1471,-5.805939,-1.024718,-5.149928,0.002931,-0.039836,-0.015055
1486,-6.011840,-0.792481,-4.843470,0.001199,-0.007994,-0.021717
1501,-5.925649,-1.213860,-5.152322,-0.042501,0.003331,-0.010392
1516,-6.174646,-1.106121,-5.221754,-0.043167,-0.012790,0.001732
1531,-6.047753,-0.912191,-5.195417,-0.045032,-0.016787,0.001865
1546,-5.940014,-0.715866,-5.140351,-0.038904,-0.016521,-0.008260
1561,-6.009446,-0.742203,-5.142745,-0.025714,-0.012257,-0.016254
1576,-6.057330,-0.919373,-5.116409,-0.024648,-0.012257,-0.014123
1591,-6.050148,-0.835576,-5.164293,-0.016920,-0.000400,-0.014522
1606,-5.935226,-0.806846,-5.207388,-0.014256,0.009326,-0.009326
1621,-5.935226,-1.036689,-5.133168,-0.021850,0.021717,-0.003597
1636,-6.078878,-0.984017,-5.142745,-0.033175,0.025714,-0.003597
1651,-6.069301,-0.974440,-5.183446,-0.048230,0.030377,-0.005596
1666,-6.016629,-1.012747,-5.051765,-0.054492,0.041168,-0.007194
1681,-6.071695,-1.000776,-5.102044,-0.076075,0.049162,0.002265
1696,-6.117185,-1.096544,-5.142745,-0.092196,0.056890,0.011058
1711,-6.098032,-1.015141,-5.204994,-0.109916,0.062086,0.023848
1726,-5.932832,-0.876278,-5.226542,-0.115778,0.055691,0.030776
1741,-5.880159,-0.718261,-5.173870,-0.106985,0.057289,0.027312
1756,-6.093243,-0.723049,-5.236119,-0.094994,0.051028,0.014123
1771,-6.047753,-0.840365,-5.106832,-0.091530,0.059155,0.007194
1786,-5.942409,-0.878672,-5.202600,-0.105253,0.058089,0.014655
1801,-5.932832,-0.842759,-5.118803,-0.121773,0.063418,0.025580
1816,-6.088455,-0.756568,-5.284003,-0.124438,0.071012,0.033708
1831,-5.997475,-0.615310,-5.276821,-0.115112,0.071678,0.026646
1846,-5.973533,-0.555455,-5.212177,-0.091930,0.066882,0.015721
1861,-5.894525,-0.694318,-5.243302,-0.074876,0.066482,0.009193
1876,-5.995081,-0.828394,-5.212177,-0.068614,0.062086,0.010658
1891,-6.002264,-0.950498,-5.185841,-0.069680,0.064484,0.015855
1906,-5.983110,-0.847547,-5.181052,-0.080338,0.063551,0.025181
1921,-5.849035,-0.852336,-5.272032,-0.086734,0.062086,0.029044
1936,-5.913678,-0.766145,-5.272032,-0.094061,0.055291,0.031975
1951,-5.913678,-0.620098,-5.279215,-0.087400,0.043966,0.031842
1966,-5.908890,-0.505177,-5.267244,-0.078340,0.035972,0.023982
1981,-5.810728,-0.452504,-5.245696,-0.060753,0.025847,0.012524
1996,-5.863400,-0.521936,-5.262455,-0.033041,0.017453,-0.000799
2011,-6.004658,-0.430956,-5.291186,-0.010259,0.010126,-0.018652
2026,-5.861006,-0.629675,-5.303157,0.001066,0.014789,-0.026380
2041,-5.861006,-0.691924,-5.240908,0.014123,0.009459,-0.028378
2056,-5.954380,-0.804452,-5.169081,0.003864,-0.005862,-0.017853
2071,-5.916072,-0.746991,-4.994305,-0.003464,0.016121,-0.011991
2086,-6.160281,-0.837971,-5.207388,0.007594,-0.002798,-0.003597
2101,-5.702988,-0.694318,-5.209783,-0.011458,-0.025047,0.008394
2116,-5.956774,-0.739808,-5.212177,0.006528,-0.017320,-0.003730
2131,-6.064513,-0.761356,-5.322310,0.012923,-0.004663,-0.012391
2146,-5.961562,-0.742203,-5.195417,0.014789,-0.022250,-0.015588
2161,-5.834670,-0.720655,-5.250484,0.006795,-0.018786,-0.016920
2176,-5.932832,-0.794875,-5.276821,0.002931,-0.012524,-0.013989
2191,-5.947197,-0.725443,-5.185841,0.010792,-0.021850,-0.017453
2206,-5.837064,-0.672771,-5.305551,0.017054,-0.024781,-0.021450
2221,-5.832275,-0.773327,-5.214571,0.015455,-0.011991,-0.019718
2236,-6.110003,-0.766145,-5.090073,0.025047,-0.004130,-0.026380
2251,-6.076484,-0.849942,-5.130774,0.011591,-0.020651,-0.009859
2266,-5.951985,-0.806846,-5.114015,0.006395,-0.003597,0.001199
2281,-5.959168,-0.816423,-5.140351,-0.001599,0.002265,0.007061
2296,-6.021417,-0.811634,-5.274426,-0.005995,0.010925,0.005596
2311,-6.042965,-0.907402,-5.269638,-0.015055,0.012923,-0.000666
2326,-6.038177,-0.878672,-5.123591,-0.026913,0.007328,0.001466
2341,-5.932832,-0.799663,-5.233725,-0.039836,0.003730,0.005995
2356,-5.954380,-0.732626,-5.128380,-0.033175,-0.008127,0.003464
2371,-5.971139,-0.687136,-5.221754,-0.015188,-0.017054,-0.010525
2386,-5.887342,-0.596156,-5.240908,0.008793,-0.040502,-0.018253
2401,-5.801151,-0.608127,-5.154716,0.026113,-0.050361,-0.027579
2416,-5.882554,-0.632069,-5.181052,0.044899,-0.057556,-0.034773
2431,-6.002264,-0.754174,-5.207388,0.055291,-0.056757,-0.038770
2446,-6.124368,-0.885855,-5.116409,0.057556,-0.048629,-0.044366
2461,-5.925649,-0.964863,-5.159504,0.038504,-0.041302,-0.042900
2476,-6.086061,-1.027112,-5.025429,0.018652,-0.024115,-0.036372
2491,-6.141127,-1.130063,-5.106832,-0.019851,-0.031176,-0.019718
2506,-6.023811,-0.967257,-5.020641,-0.023715,-0.010392,-0.022250
2521,-6.030994,-0.878672,-5.164293,-0.019585,-0.016254,-0.018919
2536,-5.875371,-0.931344,-5.145139,-0.023449,-0.034507,-0.016654
2551,-6.059724,-0.895431,-5.176264,-0.009859,-0.018786,-0.010392
2566,-6.083666,-0.876278,-5.118803,-0.009593,-0.034907,-0.003864
2581,-5.978322,-0.684742,-5.085284,0.009992,-0.037571,-0.009459
2596,-5.999869,-0.778116,-5.030218,0.016121,-0.036372,-0.016920
2611,-6.133945,-0.821211,-5.087678,0.026646,-0.037038,-0.022649
2626,-6.141127,-0.928950,-5.212177,0.026913,-0.010126,-0.025047
2641,-6.014235,-0.883460,-5.106832,0.025314,-0.013989,-0.027845
2656,-6.081272,-1.173159,-5.111620,0.008127,-0.016654,-0.010259
2671,-6.011840,-1.000776,-5.056554,-0.002398,0.008793,-0.016121
2686,-6.071695,-1.019930,-5.125986,-0.002132,0.004263,-0.016121
2701,-6.030994,-0.998382,-5.166687,-0.007061,0.000933,-0.013856
2716,-6.038177,-0.998382,-4.987122,-0.013590,0.000400,-0.013323
2731,-6.105214,-0.957681,-5.157110,-0.007194,-0.007727,-0.016387
2746,-6.107608,-1.048660,-5.020641,-0.011591,-0.000933,-0.015322
2761,-6.019023,-0.881066,-5.082890,-0.002931,0.003730,-0.017187
2776,-5.973533,-1.017536,-5.164293,-0.018119,0.012657,-0.011591
2791,-6.174646,-1.091756,-5.118803,-0.021051,0.017453,-0.004397
2806,-6.315904,-1.223437,-5.379771,-0.033841,-0.032109,0.003997
2821,-5.810728,-0.816423,-5.202600,-0.032775,-0.010126,-0.003597
2836,-5.959168,-1.058237,-5.118803,-0.028778,0.019585,-0.002665
2851,-6.102820,-1.031901,-5.080496,-0.036505,0.031176,0.001998
2866,-6.212953,-1.019930,-5.039794,-0.036239,0.017853,0.001599
2881,-6.033388,-0.995988,-5.063736,-0.035306,0.011991,0.004397
2896,-6.009446,-0.981623,-5.080496,-0.029444,0.012923,0.001066
2911,-6.117185,-0.993594,-5.142745,-0.027179,0.008660,-0.001066
2926,-6.119579,-1.015141,-5.125986,-0.022916,0.009992,-0.005196
2941,-5.997475,-0.883460,-5.147533,-0.024515,0.005596,-0.007061
2956,-6.042965,-0.967257,-5.035006,-0.030643,0.005729,-0.001466
2971,-6.040571,-0.912191,-5.056554,-0.024381,0.008660,-0.001466
2986,-6.138733,-0.881066,-5.152322,-0.019185,0.007194,-0.005196
3001,-6.028600,-0.895431,-5.070919,-0.018119,0.000933,-0.007461
3016,-6.033388,-0.916979,-5.094861,-0.010658,0.004130,-0.011724
3031,-6.071695,-0.940921,-5.070919,-0.007994,-0.001732,-0.006928
3046,-6.131550,-1.017536,-5.032612,0.001199,0.006262,-0.008394
3061,-6.078878,-1.015141,-5.123591,0.002531,-0.003997,-0.006129
3076,-6.033388,-1.003170,-5.159504,0.013323,-0.013190,-0.013057
3091,-6.035782,-0.986411,-5.161899,0.013856,-0.042900,-0.031975
3106,-6.184223,-1.074997,-5.063736,0.045698,-0.054092,-0.053825
3121,-6.095637,-1.051054,-5.212177,0.020651,-0.020251,-0.009326
3136,-6.004658,-0.928950,-5.054160,0.034907,-0.017453,-0.019585
3151,-6.131550,-1.012747,-5.142745,0.024648,-0.013723,-0.018253
3166,-6.239290,-1.180341,-5.042189,0.004130,0.002398,-0.007861
3181,-6.124368,-1.326388,-4.774038,-0.056890,0.041035,0.024248
3196,-6.361394,-0.926556,-5.154716,0.009060,0.033708,-0.007194
3211,-5.880159,-1.189918,-4.951209,-0.016654,-0.013590,0.014789
3226,-6.095637,-1.139640,-5.075707,-0.018786,0.014922,0.012124
3241,-6.110003,-1.051054,-5.070919,-0.002132,0.014655,0.009726
3256,-6.050148,-1.096544,-5.008670,-0.005596,0.014922,0.015055
3271,-6.126762,-1.065420,-4.999093,-0.004530,0.022916,0.018786
3286,-6.179434,-1.139640,-4.951209,-0.004263,0.027579,0.019985
3301,-6.112397,-1.115698,-4.991910,-0.011058,0.024115,0.021450
3316,-6.033388,-1.118092,-5.013458,-0.020518,0.028778,0.030776
3331,-6.057330,-1.132457,-5.078102,-0.027579,0.035972,0.040369
3346,-6.129156,-1.146823,-5.049371,-0.034640,0.044766,0.043167
3361,-6.150704,-1.082179,-5.152322,-0.039037,0.043966,0.046231
3376,-5.990293,-1.015141,-5.087678,-0.046231,0.044499,0.047697
3391,-6.105214,-1.005565,-5.063736,-0.051161,0.036372,0.046231
3406,-6.110003,-0.995988,-4.979939,-0.048363,0.039836,0.043700
3421,-6.165069,-0.976834,-5.032612,-0.043966,0.033574,0.049029
3436,-6.088455,-1.031901,-5.037400,-0.039969,0.046897,0.040236
3451,-6.071695,-1.151611,-5.075707,-0.054225,0.042234,0.038371
3466,-6.222530,-1.175553,-5.137957,-0.068348,0.059021,0.034507
3481,-6.189011,-1.213860,-5.070919,-0.102855,0.067282,0.047031
3496,-6.131550,-1.331176,-5.118803,-0.152017,0.075276,0.076741
3511,-5.954380,-1.041478,-5.037400,-0.162675,0.082737,0.082070
3526,-6.112397,-0.809240,-5.114015,-0.138427,0.089398,0.073277
3541,-6.004658,-0.811634,-5.042189,-0.115645,0.065550,0.057023
3556,-6.074090,-0.859518,-4.958392,-0.109516,0.084202,0.053159
3571,-6.028600,-0.924162,-5.030218,-0.110982,0.076342,0.057956
3586,-6.110003,-0.928950,-5.106832,-0.113913,0.083136,0.055557
3601,-6.124368,-0.912191,-5.176264,-0.124704,0.077541,0.054492
3616,-5.961562,-0.811634,-5.116409,-0.123239,0.069547,0.051694
3631,-5.942409,-0.758962,-5.185841,-0.110715,0.064217,0.049429
3646,-6.014235,-0.770933,-5.085284,-0.104054,0.049296,0.053426
3661,-6.078878,-0.715866,-5.188235,-0.087799,0.051694,0.045698
3676,-5.940014,-0.636858,-5.252879,-0.072877,0.050761,0.032508
3691,-5.944803,-0.723049,-5.221754,-0.061153,0.055557,0.015988
3706,-6.114791,-0.928950,-5.094861,-0.067015,0.104187,0.034640
3721,-6.078878,-0.905008,-5.137957,-0.088599,0.097126,0.041435
3736,-5.920861,-0.857124,-5.212177,-0.091663,0.055957,0.026513
3751,-5.884948,-0.792481,-5.197812,-0.104587,0.061819,0.040769
3766,-5.901707,-0.644040,-5.202600,-0.087933,0.038504,0.031975
3781,-5.973533,-0.581791,-5.209783,-0.055424,0.032109,0.016387
3796,-5.987898,-0.509965,-5.236119,-0.048230,0.002132,0.007328
3811,-5.755661,-0.624887,-5.319916,-0.015055,-0.027446,-0.008527
3826,-5.892130,-0.739808,-5.420473,0.009593,-0.013989,-0.027845
3841,-6.028600,-0.902614,-5.360618,-0.001998,-0.023449,-0.028378
3856,-5.839458,-0.833182,-5.245696,0.009859,-0.015188,-0.034773
3871,-5.944803,-0.895431,-5.348647,-0.003997,-0.026779,-0.017853
3886,-5.884948,-0.699107,-5.209783,0.019452,-0.029044,-0.018652
3901,-5.710171,-0.756568,-5.734113,-0.001466,-0.079672,0.000133
3916,-5.667075,-0.696713,-5.274426,0.062485,-0.034507,-0.043167
3931,-5.932832,-0.641646,-5.233725,0.066216,-0.056623,-0.054092
3946,-6.052542,-0.960075,-5.181052,0.065816,-0.052760,-0.052093
3961,-6.215347,-1.134852,-5.097255,0.019718,-0.028911,-0.028911
3976,-6.035782,-1.048660,-5.195417,-0.009459,-0.000133,-0.018519
3991,-5.980716,-0.974440,-5.193023,-0.039303,0.005862,0.003730
4006,-5.990293,-0.873884,-5.140351,-0.040236,0.021583,0.008260
4021,-6.131550,-0.861913,-5.111620,-0.040502,0.022783,0.016121
4036,-5.947197,-0.641646,-5.193023,-0.022916,0.019985,0.011458
4051,-5.846641,-0.751779,-5.116409,-0.011724,0.013456,0.008527
4066,-5.968745,-0.802058,-5.118803,0.003464,0.000133,-0.000933
4081,-6.121974,-0.864307,-5.133168,0.002531,0.005862,0.001066
4096,-6.086061,-0.926556,-5.114015,-0.017054,0.016254,0.010525
4111,-5.968745,-0.797269,-5.209783,-0.029444,0.016654,0.013723
4126,-5.973533,-0.852336,-5.209783,-0.030243,0.024248,0.004530
4141,-6.047753,-0.988805,-5.181052,-0.041701,0.029711,0.001332
4156,-5.961562,-0.919373,-5.130774,-0.049029,0.038904,0.000133
4171,-6.009446,-0.962469,-5.090073,-0.066616,0.050761,0.006928
4186,-6.066907,-1.024718,-5.097255,-0.075942,0.056090,0.013856
4201,-5.992687,-1.060631,-5.090073,-0.095394,0.056357,0.023982
4216,-5.956774,-0.883460,-5.145139,-0.097126,0.058489,0.021051
4231,-5.901707,-0.854730,-5.207388,-0.103521,0.059155,0.017187
4246,-5.870583,-0.864307,-5.073313,-0.106452,0.057023,0.018386
4261,-6.059724,-0.919373,-5.226542,-0.120175,0.066616,0.024115
4276,-5.966351,-0.770933,-5.171475,-0.130300,0.065683,0.028245
4291,-5.853823,-0.639252,-5.209783,-0.139493,0.061286,0.027046
4306,-5.896919,-0.603339,-5.212177,-0.124838,0.051960,0.024115
4321,-5.980716,-0.476446,-5.161899,-0.111248,0.045432,0.023848
4336,-5.923255,-0.450110,-5.329493,-0.070613,0.036505,0.012790
4351,-5.805939,-0.399832,-5.221754,-0.032908,0.036639,-0.004796
4366,-5.839458,-0.581791,-5.238513,-0.007861,0.030377,-0.021450
4381,-5.961562,-0.804452,-5.228936,-0.000799,0.019718,-0.025580
4396,-5.959168,-0.893037,-5.204994,-0.005995,0.014389,-0.020651
4411,-5.937620,-0.916979,-5.262455,-0.026380,0.011458,-0.006528
4426,-5.882554,-0.890643,-5.171475,-0.038371,0.017986,-0.001599
4441,-5.940014,-0.761356,-5.274426,-0.043833,0.005995,-0.002665
4456,-5.913678,-0.581791,-5.200206,-0.035306,-0.005862,-0.019452
4471,-5.825093,-0.600945,-5.221754,-0.023049,-0.014256,-0.029844
4486,-5.916072,-0.658405,-5.279215,-0.011991,-0.016521,-0.040236
4501,-6.009446,-0.828394,-5.255273,-0.015988,-0.008926,-0.039303
4516,-5.937620,-0.878672,-5.233725,-0.021850,-0.005596,-0.035706
4531,-5.875371,-0.782904,-5.240908,-0.029444,-0.005462,-0.026913
4546,-5.844246,-0.770933,-5.284003,-0.030910,-0.000533,-0.026380
4561,-6.035782,-0.761356,-5.248090,-0.028112,-0.004663,-0.023848
4576,-5.963956,-0.766145,-5.114015,-0.021184,-0.009060,-0.021983
4591,-5.916072,-0.730232,-5.279215,-0.016254,-0.005196,-0.022383
4606,-5.851429,-0.670376,-5.238513,-0.005063,-0.011325,-0.021184
4621,-5.973533,-0.711078,-5.090073,0.012391,-0.014655,-0.018253
4636,-5.990293,-0.773327,-5.255273,0.022116,-0.015588,-0.018519
4651,-5.892130,-0.684742,-5.123591,0.023982,-0.016254,-0.024381
4666,-5.901707,-0.857124,-5.181052,0.017320,-0.010792,-0.028378
4681,-6.045359,-0.833182,-5.094861,0.010925,-0.012124,-0.020784
4696,-6.054936,-0.912191,-5.171475,-0.003730,-0.008926,-0.017853
4711,-5.966351,-0.782904,-5.181052,-0.012923,-0.013456,-0.010259
4726,-5.908890,-0.773327,-5.102044,-0.007061,-0.007594,-0.011724
4741,-5.985504,-0.835576,-5.193023,-0.003730,-0.013723,-0.013856
4756,-6.023811,-0.890643,-5.176264,0.002931,-0.012257,-0.018253
4771,-5.971139,-0.881066,-5.135562,0.003064,-0.015721,-0.018386
4786,-5.937620,-0.881066,-5.090073,0.002132,-0.009193,-0.028245
4801,-6.133945,-1.036689,-5.130774,-0.005462,0.001998,-0.032508
4816,-6.162675,-1.074997,-5.154716,-0.023848,0.009459,-0.020784
4831,-5.940014,-0.974440,-5.197812,-0.042634,0.018919,-0.001599
4846,-5.870583,-0.873884,-5.147533,-0.052093,0.022383,0.014522
4861,-5.884948,-0.742203,-5.173870,-0.045165,0.015855,0.012524
4876,-5.963956,-0.636858,-5.142745,-0.027312,0.009593,0.002398
4891,-5.954380,-0.684742,-5.274426,-0.007061,-0.000266,-0.012391
4906,-5.906496,-0.735020,-5.164293,-0.000400,-0.011325,-0.029311
4921,-6.045359,-1.000776,-5.200206,0.000400,-0.003198,-0.041302
4936,-6.121974,-1.084573,-5.116409,-0.013590,-0.002931,-0.037172
4951,-5.971139,-1.084573,-5.185841,-0.032508,0.005196,-0.021717
4966,-5.959168,-1.036689,-5.221754,-0.054625,0.014922,-0.005729
4981,-6.014235,-1.022324,-5.183446,-0.063818,0.019319,0.005196
4996,-6.093243,-0.984017,-5.164293,-0.071412,0.021184,0.014123
5011,-5.995081,-0.830788,-5.164293,-0.054758,0.017187,0.012524
5026,-6.007052,-0.895431,-5.224148,-0.054625,0.021184,0.016920
5041,-5.937620,-0.828394,-5.073313,-0.050628,0.026247,0.018119
5056,-6.124368,-0.811634,-5.183446,-0.051960,0.027446,0.016920
5071,-6.002264,-0.725443,-5.178658,-0.045832,0.030243,0.009459
5086,-5.937620,-0.742203,-5.161899,-0.042368,0.035972,0.002931
5101,-5.980716,-0.768539,-5.264850,-0.043966,0.032642,0.004530
5116,-5.995081,-0.814029,-5.118803,-0.046364,0.025847,0.007727
5131,-5.947197,-0.749385,-5.197812,-0.036772,0.024781,0.011191
5146,-5.827487,-0.718261,-5.181052,-0.021317,0.011058,0.005196
5161,-5.961562,-0.749385,-5.190629,-0.005729,0.005596,-0.004930
5176,-5.916072,-0.842759,-5.161899,0.000133,0.003464,-0.003864
5191,-5.925649,-1.022324,-5.195417,-0.005729,0.006395,0.005196
5206,-6.054936,-0.995988,-5.209783,-0.022916,0.015455,0.009326
5221,-6.009446,-0.981623,-5.159504,-0.036239,0.025847,0.010792
5236,-5.968745,-0.876278,-5.216965,-0.046498,0.030510,0.010925
5251,-5.940014,-0.864307,-5.104438,-0.055824,0.026380,0.008527
5266,-6.023811,-0.869095,-5.197812,-0.061153,0.037172,0.010925
5281,-5.985504,-0.785298,-5.207388,-0.058355,0.031576,0.013456
5296,-5.892130,-0.773327,-5.073313,-0.058355,0.024381,0.009326
5311,-5.884948,-0.751779,-5.336676,-0.051294,0.018786,0.002665
5326,-6.016629,-0.849942,-5.202600,-0.047564,0.023182,0.000400
5341,-6.011840,-0.909797,-5.161899,-0.045565,0.020518,0.000000
5356,-5.963956,-0.833182,-5.207388,-0.047963,0.025980,0.004663
5371,-5.949591,-0.749385,-5.181052,-0.041302,0.022783,0.003864
5386,-5.932832,-0.785298,-5.142745,-0.036639,0.021317,0.000000
5401,-6.047753,-0.857124,-5.137957,-0.035839,0.020251,0.001199
5416,-5.992687,-0.943315,-5.149928,-0.037838,0.023449,0.003064
5431,-5.875371,-0.816423,-5.209783,-0.049296,0.027712,0.011591
5446,-6.052542,-0.890643,-5.214571,-0.055025,0.029044,0.016254
5461,-6.042965,-0.842759,-5.204994,-0.055824,0.034374,0.020118
5476,-5.923255,-0.792481,-5.185841,-0.059021,0.033308,0.018253
5491,-5.889736,-0.792481,-5.219359,-0.059288,0.036772,0.024515
5506,-5.940014,-0.842759,-5.207388,-0.062752,0.039969,0.027046
5521,-6.052542,-0.814029,-5.219359,-0.063018,0.049029,0.027845
5536,-5.918467,-0.672771,-5.248090,-0.063285,0.042900,0.029711
5551,-5.849035,-0.684742,-5.164293,-0.061420,0.048496,0.029178
5566,-5.985504,-0.723049,-5.197812,-0.055424,0.047830,0.023315
5581,-6.028600,-0.790087,-5.190629,-0.055957,0.050628,0.016521
5596,-5.892130,-0.806846,-5.173870,-0.061153,0.049429,0.014655
5611,-5.918467,-0.828394,-5.255273,-0.070346,0.056090,0.010792
5626,-5.877765,-0.864307,-5.204994,-0.077940,0.055691,0.017720
5641,-6.009446,-0.785298,-5.207388,-0.089931,0.054358,0.026247
5656,-5.932832,-0.828394,-5.355829,-0.096326,0.052493,0.030643
5671,-5.808333,-0.732626,-5.233725,-0.100057,0.044233,0.040369
5686,-5.863400,-0.627281,-5.291186,-0.091796,0.042767,0.036905
5701,-5.980716,-0.679953,-5.202600,-0.084735,0.047963,0.033308
5716,-5.930438,-0.691924,-5.279215,-0.081671,0.046631,0.026913
5731,-5.817910,-0.715866,-5.145139,-0.083669,0.061553,0.020251
5746,-5.887342,-0.749385,-5.195417,-0.099524,0.052493,0.024515
5761,-5.951985,-0.845153,-5.303157,-0.117377,0.066482,0.031842
5776,-5.877765,-0.797269,-5.365406,-0.122306,0.071412,0.030643
5791,-5.841852,-0.665588,-5.322310,-0.139360,0.060620,0.038504
5806,-5.774815,-0.636858,-5.159504,-0.133631,0.053159,0.033175
5821,-5.954380,-0.608127,-5.260061,-0.127636,0.057556,0.032375
5836,-5.908890,-0.457293,-5.348647,-0.111381,0.048763,0.024115
5851,-5.695806,-0.363919,-5.351041,-0.089798,0.039703,0.012524
5866,-5.781997,-0.457293,-5.372589,-0.073277,0.036772,0.003198
5881,-5.901707,-0.538695,-5.240908,-0.063418,0.034507,-0.003864
5896,-5.932832,-0.440533,-5.319916,-0.055025,0.034240,0.001865
5911,-5.858612,-0.476446,-5.224148,-0.051560,0.057822,0.031043
5926,-5.777209,-0.466869,-5.264850,-0.069147,0.091796,0.053825
5941,-5.868188,-0.344765,-5.444415,-0.027579,-0.007061,0.000933
5956,-5.813122,-0.433351,-5.324705,-0.019185,0.003198,-0.001998
5971,-5.741296,-0.349553,-5.396531,0.006528,-0.014922,-0.021717
5986,-5.801151,-0.502782,-5.264850,0.024248,-0.013989,-0.028911
6001,-5.916072,-0.536301,-5.341464,0.023182,-0.015855,-0.035972
6016,-5.918467,-0.579397,-5.418078,0.030643,-0.019851,-0.038504
6031,-5.770026,-0.596156,-5.298368,0.027312,-0.017320,-0.037038
6046,-5.832275,-0.608127,-5.238513,0.019052,-0.005196,-0.032109
6061,-5.932832,-0.761356,-5.262455,0.002931,-0.010259,-0.022783
6076,-5.963956,-0.761356,-5.272032,-0.011458,-0.000933,-0.009193
6091,-5.846641,-0.639252,-5.252879,-0.022383,0.004263,-0.007061
6106,-5.813122,-0.684742,-5.295974,-0.023049,0.010126,-0.004397
6121,-5.875371,-0.639252,-5.398925,-0.022916,0.006528,-0.005329
6136,-5.865794,-0.608127,-5.305551,-0.016254,0.000400,-0.007994
6151,-5.798757,-0.495600,-5.322310,-0.007328,-0.009593,-0.016654
6166,-5.839458,-0.555455,-5.307945,0.004263,-0.011458,-0.028778
6181,-5.889736,-0.658405,-5.374983,0.013856,-0.021983,-0.033441
6196,-5.904101,-0.639252,-5.355829,0.018919,-0.027579,-0.034773
6211,-5.774815,-0.560243,-5.209783,0.030377,-0.034240,-0.031176
6226,-5.808333,-0.553061,-5.243302,0.045299,-0.039303,-0.035972
6241,-5.901707,-0.536301,-5.315128,0.063285,-0.047697,-0.047031
6256,-5.959168,-0.667982,-5.300763,0.083136,-0.057156,-0.056357
6271,-5.781997,-0.603339,-5.224148,0.098058,-0.065417,-0.061686
6286,-5.858612,-0.658405,-5.243302,0.102855,-0.072877,-0.059155
6301,-5.908890,-0.799663,-5.212177,0.110315,-0.080871,-0.051427
6316,-6.030994,-0.732626,-5.190629,0.117910,-0.082870,-0.054358
6331,-5.951985,-0.768539,-5.291186,0.122306,-0.072078,-0.056090
6346,-5.932832,-0.852336,-5.219359,0.119375,-0.068614,-0.059954
6361,-6.004658,-1.096544,-5.216965,0.097659,-0.065816,-0.051827
6376,-6.121974,-1.151611,-5.233725,0.070479,-0.047963,-0.035706
6391,-6.002264,-1.108515,-5.145139,0.038770,-0.037438,-0.021850
6406,-5.973533,-1.024718,-5.195417,0.022516,-0.023582,-0.013323
6421,-6.016629,-1.012747,-5.044583,0.010925,-0.018386,-0.007727
6436,-6.050148,-0.933739,-5.214571,0.007727,-0.012790,-0.005329
6451,-5.963956,-0.931344,-5.125986,-0.000666,-0.013989,-0.005462
6466,-5.892130,-0.926556,-5.164293,-0.002931,-0.006528,-0.008527
6481,-5.971139,-0.960075,-5.121197,-0.011858,-0.009859,-0.002398
6496,-6.119579,-0.921768,-5.087678,-0.013323,-0.012923,-0.008394
6511,-5.980716,-0.811634,-5.161899,-0.001998,-0.035440,-0.027046
6526,-5.825093,-0.732626,-5.284003,0.000400,-0.015588,-0.024248
6541,-6.050148,-0.883460,-5.181052,0.007594,-0.000799,-0.027979
6556,-6.076484,-1.046266,-5.111620,0.008127,-0.018519,-0.024381
6571,-6.004658,-1.175553,-5.078102,-0.011325,0.002531,-0.015855
6586,-5.911284,-1.139640,-5.137957,-0.034773,0.017587,0.003064
6601,-6.074090,-1.043872,-5.114015,-0.047430,0.019319,0.009459
6616,-6.119579,-0.938527,-5.116409,-0.041435,0.014256,0.009459
6631,-5.983110,-0.828394,-5.152322,-0.031176,0.005862,0.006662
6646,-5.844246,-0.814029,-5.106832,-0.017587,0.000533,0.003864
6661,-5.978322,-0.802058,-5.221754,-0.008260,-0.013590,0.001599
6676,-6.088455,-0.907402,-5.137957,0.004263,-0.012790,-0.003198
6691,-6.028600,-0.890643,-5.161899,0.010658,-0.003997,-0.005862
6706,-5.963956,-1.053449,-5.166687,-0.003597,0.002665,0.002265
6721,-6.007052,-0.993594,-5.147533,-0.012124,0.012524,0.008260
6736,-6.153098,-1.127669,-5.078102,-0.029044,0.024381,0.016920
6751,-6.105214,-1.108515,-5.092467,-0.039303,0.040636,0.020651
6766,-6.019023,-1.108515,-5.104438,-0.055691,0.044100,0.025447
6781,-5.985504,-1.139640,-5.130774,-0.070879,0.048763,0.037838
6796,-6.112397,-0.986411,-5.197812,-0.080205,0.047031,0.042501
6811,-6.004658,-0.883460,-5.171475,-0.065283,0.036239,0.036505
6826,-5.896919,-0.667982,-5.121197,-0.033974,0.033308,0.021850
6841,-5.959168,-0.945710,-5.200206,-0.033175,0.023449,0.012790
6856,-6.045359,-0.909797,-5.233725,-0.017587,0.021583,-0.005329
6871,-6.021417,-1.144428,-5.307945,-0.044499,0.039570,-0.001332
6886,-5.913678,-1.122881,-5.137957,-0.075942,0.028911,0.002931
6901,-5.987898,-1.034295,-5.245696,-0.086334,0.046098,0.010126
6916,-6.019023,-0.969652,-5.193023,-0.085002,0.030377,0.012257
6931,-5.841852,-0.854730,-5.214571,-0.096459,0.042501,0.019052
6946,-5.975927,-0.940921,-5.274426,-0.068481,0.028778,0.007461
6961,-5.853823,-0.723049,-5.159504,-0.065283,0.011191,0.008127
6976,-6.095637,-0.914585,-5.315128,-0.051960,0.027446,0.004663
6991,-6.169858,-0.878672,-5.231330,-0.089265,0.041035,0.028245
7006,-5.880159,-0.809240,-5.068525,-0.064617,0.011458,0.021450
7021,-5.913678,-0.629675,-5.073313,-0.028911,0.036239,0.006662
7036,-6.052542,-0.873884,-5.128380,-0.031309,-0.009459,0.009726
7051,-5.861006,-0.497994,-5.212177,0.017453,0.011724,-0.013989
7066,-6.069301,-0.768539,-5.200206,0.025714,-0.012923,-0.013723
7081,-5.781997,-0.780510,-5.219359,0.061020,-0.013723,-0.029577
7096,-6.136339,-1.134852,-5.159504,0.033574,-0.034240,-0.015855
7111,-5.896919,-1.003170,-5.279215,0.041568,-0.028245,-0.014522
7126,-6.028600,-1.094150,-5.111620,0.013723,-0.031043,0.009726
7141,-5.920861,-0.842759,-5.154716,0.021850,-0.021184,0.007328
7156,-6.153098,-1.077391,-5.164293,0.006528,-0.013590,0.009459
7171,-6.014235,-0.969652,-5.157110,-0.009459,-0.006662,0.005596
7186,-5.963956,-1.154005,-5.114015,-0.044366,-0.003064,0.018253
7201,-5.837064,-0.876278,-5.073313,-0.039570,0.015721,0.014123
7216,-6.277597,-0.852336,-5.106832,-0.054891,0.034240,0.016254
7231,-5.896919,-1.106121,-5.240908,-0.045432,0.054758,-0.007727
7246,-6.081272,-1.204283,-5.195417,-0.088199,0.070879,0.002265
7261,-5.829881,-1.079785,-5.013458,-0.114579,0.064617,0.012124
7276,-6.244078,-1.151611,-5.154716,-0.153083,0.088066,0.036372
7291,-6.143521,-0.964863,-5.013458,-0.166406,0.100190,0.036239
7306,-6.119579,-0.974440,-5.130774,-0.188256,0.116311,0.043433
7321,-5.928043,-1.074997,-5.269638,-0.219032,0.115378,0.061020
7336,-5.942409,-0.849942,-5.212177,-0.241015,0.131632,0.081138
7351,-5.899313,-0.495600,-5.303157,-0.226626,0.146155,0.092196
7366,-5.849035,-0.423774,-5.152322,-0.181461,0.125237,0.080072
7381,-5.657498,-0.598550,-5.176264,-0.143357,0.125904,0.057956
7396,-5.875371,-0.684742,-5.257667,-0.127103,0.095793,0.061686
7411,-5.827487,-0.663194,-5.233725,-0.116444,0.116044,0.061819
7426,-5.858612,-0.883460,-5.374983,-0.132299,0.120041,0.068614
7441,-5.966351,-0.826000,-5.209783,-0.195450,0.157080,0.096326
7456,-6.042965,-1.118092,-5.181052,-0.250208,0.152417,0.104187
7471,-6.057330,-1.089362,-5.511452,-0.284315,0.253939,0.087133
7486,-5.951985,-1.187524,-5.336676,-0.403424,0.200380,0.123505
7501,-5.614403,-1.216254,-5.437232,-0.458049,0.339340,0.178530
7516,-5.786786,-0.881066,-5.461174,-0.564767,0.342937,0.208107
7531,-5.398925,-0.912191,-5.832275,-0.604470,0.286847,0.176531
7546,-5.791574,-0.497994,-5.434838,-0.603671,0.211172,0.175332
7561,-5.722142,-0.158017,-5.231330,-0.607668,0.281651,0.190121
7576,-4.848258,0.809240,-5.827487,-0.490291,0.342005,0.120574
7591,-6.208165,0.193930,-5.403713,-0.489891,0.143090,0.120841
7606,-5.365406,0.435745,-5.614403,-0.399028,0.179862,0.103787
7621,-5.374983,0.380678,-5.583278,-0.322686,0.125104,0.060887
7636,-5.746084,0.050278,-5.252879,-0.312960,0.130966,0.066083
7651,-5.185841,0.150835,-5.765238,-0.260201,0.140292,0.042634
7666,-4.888960,0.150835,-5.817910,-0.188256,0.051427,-0.030776
7681,-5.813122,0.282516,-5.394136,-0.160544,0.087133,-0.017986
7696,-5.688623,0.294487,-5.511452,-0.181594,0.100590,0.015855
7711,-5.781997,0.000000,-5.516241,-0.220631,0.122306,0.034640
7726,-5.367800,-0.076614,-5.671864,-0.148420,0.068614,-0.036772
7741,-5.444415,0.217872,-5.501875,-0.203844,0.089798,0.023449
7756,-5.360618,0.457293,-5.633556,-0.183459,0.078473,0.034507
7771,-5.449203,0.488417,-5.623980,-0.149352,0.065150,0.016121
7786,-5.592855,0.294487,-5.635951,-0.154415,0.050495,0.037704
7801,-5.284003,0.861913,-5.516241,-0.087266,-0.007727,0.008260
7816,-5.226542,0.586579,-5.525817,-0.053692,0.010126,0.008127
7831,-5.592855,0.699107,-5.714959,-0.013456,0.005596,-0.022516
7846,-5.427655,0.421380,-5.525817,0.022649,-0.012124,-0.047164
7861,-5.365406,0.126893,-5.604826,0.016920,-0.020784,-0.046897
7876,-5.463568,0.167594,-5.612009,-0.007061,-0.024781,-0.025580
7891,-5.525817,0.112527,-5.691017,-0.027712,-0.030243,-0.014522
7906,-5.449203,0.294487,-5.621585,-0.038637,-0.040369,-0.005063
7921,-5.358223,0.378284,-5.657498,-0.021717,-0.049962,-0.011724
7936,-5.372589,0.332794,-5.614403,-0.004130,-0.062885,-0.015721
7951,-5.267244,0.210690,-5.863400,-0.011858,-0.047031,-0.004530
7966,-5.753267,0.320823,-5.688623,0.055158,-0.058089,-0.048763
7981,-5.307945,0.308852,-5.767632,0.051161,-0.105652,-0.035706
7996,-4.922479,1.233014,-5.650316,0.120175,-0.157746,-0.090730
8011,-5.765238,0.122104,-5.422867,0.089931,-0.051294,-0.031043
8026,-5.736507,0.481235,-5.434838,0.122706,-0.089798,-0.035573
8041,-5.734113,0.349553,-5.549759,0.135496,-0.060753,-0.045165
8056,-5.805939,0.442927,-5.145139,0.140825,-0.118975,-0.073277
8071,-5.576096,0.021548,-5.444415,0.146288,-0.052093,-0.060753
8086,-5.889736,-0.124498,-5.453991,0.126170,-0.076741,-0.045565
8101,-5.578490,-0.064643,-5.482722,0.107651,-0.083403,-0.037172
8116,-5.621585,0.107739,-5.530606,0.092063,-0.075942,-0.034107
8131,-5.619191,0.052672,-5.468357,0.092729,-0.075942,-0.038770
8146,-5.762844,-0.062249,-5.559336,0.089931,-0.069680,-0.035173
8161,-5.702988,-0.009577,-5.432444,0.090331,-0.052626,-0.032508
8176,-5.717353,0.007183,-5.492299,0.074476,-0.019452,-0.031443
8191,-5.841852,-0.220267,-5.540183,0.058755,-0.004530,-0.034507
8206,-5.707777,-0.351948,-5.525817,0.023449,0.007328,-0.024781
8221,-5.650316,-0.423774,-5.537788,-0.030910,0.018386,0.009060
8236,-5.600038,-0.177171,-5.451597,-0.059954,0.023582,0.025447
8251,-5.597643,-0.067038,-5.523423,-0.066882,0.011191,0.020784
8266,-5.698200,0.040701,-5.501875,-0.049296,-0.000799,0.005462
8281,-5.588067,-0.038307,-5.406107,-0.049029,0.005063,0.005596
8296,-5.659893,0.086191,-5.612009,-0.025714,0.005196,-0.002265
8311,-5.758055,-0.172383,-5.374983,-0.074210,0.037971,0.029977
8326,-5.777209,-0.191536,-5.549759,-0.088732,0.076608,0.048496
8341,-5.726930,-0.153229,-5.530606,-0.087266,0.088332,0.055291
8356,-5.513846,-0.043096,-5.533000,-0.107784,0.102588,0.058489
8371,-5.834670,0.083797,-5.537788,-0.106052,0.058755,0.069280
8386,-5.504270,0.205901,-5.384560,-0.084069,0.058755,0.060620
8401,-5.600038,0.251391,-5.418078,-0.068348,0.054891,0.054758
8416,-5.475539,0.325611,-5.413290,-0.048896,0.048230,0.043833
8431,-5.592855,0.349553,-5.576096,-0.016121,0.030110,0.019319
8446,-5.609614,0.263362,-5.564125,0.016787,0.007594,0.002665
8461,-5.573701,0.136469,-5.456386,0.030510,-0.005462,-0.007461
8476,-5.533000,0.023942,-5.442020,0.025047,-0.008660,0.010126
8491,-5.710171,-0.141258,-5.535394,-0.000933,0.004397,0.044100
8506,-5.717353,0.043096,-5.547365,-0.018652,0.022116,0.072478
8521,-5.580884,0.201113,-5.509058,-0.015588,0.023315,0.079939
8536,-5.595249,0.112527,-5.561730,-0.008127,0.007328,0.074077
8551,-5.619191,0.210690,-5.465962,-0.007994,0.026913,0.071812
8566,-5.719748,0.114922,-5.418078,-0.000799,0.032775,0.063152
8581,-5.753267,-0.035913,-5.518635,-0.020784,0.055957,0.082870
8596,-5.633556,0.088585,-5.528212,-0.050761,0.083136,0.108317
8611,-5.518635,0.208296,-5.492299,-0.043833,0.083802,0.113113
8626,-5.674258,0.205901,-5.533000,-0.045299,0.071945,0.118043
8641,-5.379771,0.416591,-5.489904,-0.024381,0.073277,0.104320
8656,-5.355829,0.284910,-5.568913,-0.008127,0.068481,0.103121
8671,-5.501875,-0.081403,-5.530606,-0.013323,0.054225,0.104320
8686,-5.578490,0.213084,-5.576096,0.009193,0.063685,0.082204
8701,-5.750873,0.095768,-5.607220,0.007994,0.080338,0.067015
8716,-5.501875,0.131681,-5.482722,-0.025980,0.092196,0.071545
8731,-5.719748,-0.217872,-5.590461,-0.049429,0.062485,0.065150
8746,-5.568913,-0.043096,-5.571307,-0.078740,0.058489,0.077407
8761,-5.394136,0.450110,-5.461174,-0.053825,0.045832,0.055557
8776,-5.360618,0.476446,-5.571307,-0.024248,0.011858,0.035040
8791,-5.351041,0.462081,-5.623980,0.019452,-0.013190,0.017720
8806,-5.504270,0.337582,-5.528212,0.047430,-0.037571,0.008527
8821,-5.492299,0.330400,-5.595249,0.075809,-0.045432,0.006795
8836,-5.386954,0.246603,-5.473145,0.089931,-0.063818,0.015455
8851,-5.394136,0.299275,-5.521029,0.100723,-0.082737,0.014655
8866,-5.616797,0.215478,-5.533000,0.108717,-0.078740,0.002265
8881,-5.707777,0.019154,-5.576096,0.113646,-0.083936,-0.014789
8896,-5.638345,0.162806,-5.449203,0.124438,-0.080605,-0.033175
8911,-5.736507,-0.069432,-5.552154,0.107651,-0.066616,-0.041168
8926,-5.691017,-0.155623,-5.427655,0.088066,-0.056090,-0.043700
8941,-5.683835,-0.150835,-5.482722,0.075942,-0.058489,-0.034773
8956,-5.533000,-0.021548,-5.463568,0.066749,-0.059288,-0.029444
8971,-5.487510,-0.038307,-5.511452,0.067815,-0.096593,-0.047963
8986,-5.588067,-0.117316,-5.516241,0.075142,-0.078473,-0.041035
9001,-5.623980,-0.129287,-5.592855,0.069813,-0.063418,-0.036505
9016,-5.686229,-0.191536,-5.489904,0.061686,-0.051294,-0.038371
9031,-5.717353,-0.294487,-5.602432,0.025714,-0.024914,-0.023182
9046,-5.932832,-0.280122,-5.499481,-0.005329,0.003997,-0.001865
9061,-5.904101,-0.174777,-5.482722,-0.035706,0.029977,0.017054
9076,-5.679046,-0.043096,-5.453991,-0.042368,0.033841,0.019985
9091,-5.540183,0.083797,-5.372589,-0.029977,0.035839,0.002531
9106,-5.676652,-0.191536,-5.513846,-0.024914,0.038904,-0.003864
9121,-5.729324,-0.136469,-5.513846,-0.023315,0.041701,-0.008260
9136,-5.674258,-0.088585,-5.430049,-0.031576,0.041968,-0.007594
9151,-5.655104,-0.229843,-5.456386,-0.043167,0.032908,-0.005995
9166,-5.674258,-0.129287,-5.367800,-0.065683,0.024115,0.006528
9181,-5.738902,0.043096,-5.525817,-0.064884,0.016787,0.014123
9196,-5.607220,0.172383,-5.506664,-0.050361,0.026113,-0.000666
9211,-5.544971,0.055067,-5.573701,-0.035573,0.024248,-0.012524
9226,-5.633556,-0.146046,-5.475539,-0.035839,0.040103,-0.013989
9241,-5.667075,-0.375890,-5.523423,-0.065417,0.047164,0.002931
9256,-5.621585,-0.277727,-5.449203,-0.109116,0.046631,0.021850
9271,-5.633556,-0.138864,-5.465962,-0.131100,0.048096,0.027179
9286,-5.645527,-0.009577,-5.489904,-0.136828,0.048496,0.020118
9301,-5.561730,-0.033519,-5.549759,-0.135096,0.051427,0.023049
9316,-5.537788,-0.004788,-5.528212,-0.132165,0.047963,0.032908
9331,-5.679046,0.069432,-5.499481,-0.121640,0.058755,0.030110
9346,-5.755661,0.232238,-5.533000,-0.098591,0.063418,0.018386
9361,-5.568913,0.268151,-5.487510,-0.087933,0.051960,0.010658
9376,-5.518635,0.205901,-5.485116,-0.089132,0.053959,0.013190
9391,-5.655104,0.143652,-5.492299,-0.077674,0.033974,0.010126
9406,-5.422867,0.119710,-5.509058,-0.061020,0.025580,0.003997
9421,-5.475539,-0.079009,-5.602432,-0.065417,0.014123,0.002931
9436,-5.437232,0.038307,-5.533000,-0.050495,0.015588,-0.007194
9451,-5.645527,0.011971,-5.556942,-0.065150,-0.013456,-0.005063
9466,-5.628768,0.004788,-5.437232,-0.059021,-0.012257,-0.007861
9481,-5.552154,0.126893,-5.501875,-0.058888,-0.033308,-0.014522
9496,-5.501875,0.232238,-5.530606,-0.037305,-0.043966,-0.033175
9511,-5.714959,0.205901,-5.530606,-0.012923,-0.049962,-0.049828
9526,-5.643133,0.191536,-5.475539,0.000133,-0.052893,-0.056757
9541,-5.600038,0.227449,-5.494693,0.015055,-0.051560,-0.069413
9556,-5.588067,0.050278,-5.465962,0.025047,-0.042501,-0.072211
9571,-5.691017,-0.260968,-5.408502,0.004796,-0.043300,-0.056757
9586,-5.726930,-0.299275,-5.492299,-0.013723,-0.024248,-0.034374
9601,-5.702988,-0.342371,-5.437232,-0.054758,-0.008127,0.003464
9616,-5.628768,-0.105345,-5.513846,-0.071545,0.010126,0.024515
9631,-5.731719,-0.014365,-5.461174,-0.081005,0.016387,0.037172
9646,-5.758055,0.067038,-5.432444,-0.062352,0.012257,0.033708
9661,-5.600038,0.237026,-5.442020,-0.048896,-0.006528,0.027845
9676,-5.461174,0.337582,-5.501875,-0.004263,-0.010525,0.002531
9691,-5.676652,0.210690,-5.576096,0.011458,-0.025580,-0.010792
9706,-5.688623,0.246603,-5.549759,0.029844,-0.007861,-0.023449
9721,-5.777209,0.055067,-5.401319,0.021051,0.004397,-0.016121
9736,-5.671864,-0.040701,-5.432444,0.024515,-0.002531,-0.019718
9751,-5.738902,-0.050278,-5.413290,0.004663,0.010925,-0.012257
9766,-5.702988,-0.136469,-5.492299,-0.003331,-0.004930,-0.001066
9781,-5.693411,-0.090980,-5.556942,-0.014522,-0.001998,0.011858
9796,-5.554548,-0.021548,-5.463568,-0.014256,-0.008260,0.014522
9811,-5.674258,-0.002394,-5.473145,-0.008127,0.007727,0.011458
9826,-5.805939,-0.064643,-5.542577,-0.015855,0.014256,0.015588
9841,-5.755661,-0.150835,-5.389348,-0.035573,0.037704,0.024515
9856,-5.657498,-0.203507,-5.470751,-0.061020,0.051960,0.036905
9871,-5.767632,-0.105345,-5.499481,-0.081538,0.067948,0.053692
9886,-5.777209,-0.160412,-5.492299,-0.105652,0.082870,0.064084
9901,-5.726930,-0.021548,-5.487510,-0.104853,0.106452,0.066882
9916,-5.667075,-0.083797,-5.578490,-0.124838,0.135896,0.081138
9931,-5.803545,-0.090980,-5.497087,-0.150285,0.159478,0.098591
9946,-5.755661,-0.090980,-5.568913,-0.174933,0.181061,0.114579
9961,-5.717353,0.023942,-5.535394,-0.191986,0.197582,0.116844
9976,-5.463568,0.213084,-5.571307,-0.195850,0.195983,0.110182
9991,-5.547365,0.146046,-5.506664,-0.201179,0.191986,0.101655
10006,-5.638345,0.203507,-5.516241,-0.219032,0.196516,0.103521
10021,-5.509058,0.284910,-5.602432,-0.220897,0.178930,0.090730
10036,-5.358223,0.407014,-5.628768,-0.197449,0.186657,0.064484
10051,-5.348647,0.275333,-5.542577,-0.191986,0.179063,0.059821
10066,-5.511452,0.203507,-5.734113,-0.201046,0.176132,0.064351
10081,-5.461174,0.203507,-5.671864,-0.228225,0.179196,0.076475
10096,-5.312734,0.397437,-5.746084,-0.235020,0.187456,0.082337
10111,-5.185841,0.407014,-5.731719,-0.227159,0.177730,0.069280
10126,-5.446809,0.430956,-5.537788,-0.248609,0.173467,0.087400
10141,-5.386954,0.385466,-5.722142,-0.251274,0.163208,0.099257
10156,-5.183446,0.605733,-5.614403,-0.241815,0.150685,0.102855
10171,-5.245696,0.706289,-5.798757,-0.248876,0.208773,0.134297
10186,-5.233725,0.756568,-5.717353,-0.218899,0.158545,0.081005
10201,-5.360618,0.584185,-5.758055,-0.207841,0.130167,0.078606
10216,-4.893748,0.622492,-5.779603,-0.189455,0.118309,0.065550
10231,-5.133168,0.519542,-5.655104,-0.198914,0.112314,0.076342
10246,-5.147533,0.658405,-5.657498,-0.201179,0.092063,0.088466
10261,-5.006276,0.797269,-5.834670,-0.198381,0.073144,0.097525
10276,-4.788404,1.194707,-5.808333,-0.168804,0.050495,0.068881
10291,-5.169081,1.031901,-5.734113,-0.114579,0.043167,0.033175
10306,-5.106832,1.139640,-5.590461,-0.078340,0.027046,-0.010658
10321,-5.382165,0.986411,-5.760449,-0.040103,0.046631,-0.041035
10336,-5.272032,0.866701,-5.774815,-0.050361,0.037571,-0.039570
10351,-5.214571,0.696713,-5.741296,-0.068747,0.046364,-0.021583
10366,-5.221754,0.720655,-5.832275,-0.077541,0.041835,-0.005729
10381,-5.169081,0.840365,-5.817910,-0.070879,0.031576,0.003864
10396,-4.960786,0.988805,-5.822699,-0.054225,0.017720,-0.001332
10411,-4.927267,1.007959,-5.710171,-0.028511,-0.009593,-0.021051
10426,-5.063736,0.948104,-5.734113,-0.002798,-0.037172,-0.036106
10441,-5.173870,0.885855,-5.719748,0.020384,-0.067548,-0.053292
10456,-5.035006,1.007959,-5.736507,0.040236,-0.092596,-0.074343
10471,-5.171475,0.919373,-5.868188,0.067149,-0.091930,-0.092063
10486,-5.166687,0.718261,-5.779603,0.066216,-0.102188,-0.095260
10501,-5.336676,0.514753,-5.770026,0.053026,-0.100057,-0.076608
10516,-5.181052,0.428562,-5.714959,0.028511,-0.105119,-0.045165
10531,-5.099649,0.536301,-5.688623,0.003864,-0.119242,-0.017720
10546,-5.097255,0.653617,-5.657498,-0.001066,-0.162409,-0.017986
10561,-5.255273,0.907402,-5.714959,0.029311,-0.189455,-0.055424
10576,-5.171475,0.859518,-5.633556,0.063551,-0.216634,-0.100590
10591,-5.281609,0.715866,-5.619191,0.069413,-0.241149,-0.128701
10606,-5.374983,0.739808,-5.552154,0.079939,-0.252740,-0.162942
10621,-5.547365,0.744597,-5.659893,0.109116,-0.267528,-0.201979
10636,-5.621585,0.735020,-5.652710,0.130700,-0.249809,-0.233021
10651,-5.590461,0.296881,-5.667075,0.126170,-0.225028,-0.235819
10666,-5.698200,0.110133,-5.729324,0.086600,-0.170003,-0.192386
10681,-5.707777,0.169988,-5.585672,0.052360,-0.146821,-0.144822
10696,-5.712565,0.337582,-5.473145,0.043567,-0.133364,-0.124704
10711,-5.746084,0.215478,-5.631162,0.013057,-0.100190,-0.087133
10726,-5.865794,0.313640,-5.468357,-0.003331,-0.040369,-0.064351
10741,-5.923255,0.225055,-5.537788,-0.039969,0.001066,-0.036106
10756,-5.710171,0.258574,-5.633556,-0.046764,0.042634,-0.016521
10771,-5.578490,0.275333,-5.509058,-0.064217,0.043567,0.002798
10786,-5.595249,0.284910,-5.583278,-0.083936,0.036772,0.018386
10801,-5.590461,0.301669,-5.446809,-0.091130,0.023049,0.025580
10816,-5.564125,0.529119,-5.535394,-0.087933,-0.007328,0.019718
10831,-5.523423,0.679953,-5.434838,-0.059554,-0.017853,-0.004263
10846,-5.525817,0.581791,-5.516241,-0.042501,-0.045165,-0.014389
10861,-5.734113,0.660800,-5.434838,-0.007594,-0.044899,-0.029711
10876,-5.717353,0.567426,-5.465962,0.018119,-0.032908,-0.034107
10891,-5.616797,0.483629,-5.516241,0.016787,-0.009060,-0.025714
10906,-5.640739,0.265756,-5.480328,0.015455,0.004263,-0.008660
10921,-5.765238,0.191536,-5.566519,-0.006262,0.011591,0.012524
10936,-5.621585,0.258574,-5.542577,-0.020118,0.020384,0.028112
10951,-5.616797,0.313640,-5.406107,-0.040902,0.019585,0.040369
10966,-5.595249,0.351948,-5.554548,-0.043167,0.026646,0.045832
10981,-5.657498,0.325611,-5.592855,-0.053959,0.021450,0.062752
10996,-5.667075,0.636858,-5.358223,-0.016521,-0.017853,0.049296
11011,-5.341464,0.529119,-5.509058,-0.044766,0.007861,0.060487
11026,-5.612009,0.584185,-5.547365,-0.022116,0.025181,0.051161
11041,-5.729324,0.500388,-5.528212,-0.007594,0.017453,0.034773
11056,-5.722142,0.509965,-5.523423,0.002798,0.021983,0.028378
11071,-5.544971,0.471658,-5.525817,0.015188,0.030243,0.020917
11086,-5.576096,0.402226,-5.535394,0.018786,0.029311,0.021983
11101,-5.679046,0.366313,-5.461174,0.021317,0.028245,0.019851
11116,-5.688623,0.320823,-5.501875,0.012124,0.021450,0.023582
11131,-5.542577,0.378284,-5.513846,0.009992,0.021317,0.035573
11146,-5.573701,0.361524,-5.528212,0.009060,0.022649,0.040236
11161,-5.659893,0.337582,-5.580884,0.007594,0.035306,0.050894
11176,-5.576096,0.399832,-5.482722,0.014256,0.039037,0.050361
11191,-5.523423,0.466869,-5.456386,0.018652,0.038904,0.045965
11206,-5.521029,0.469264,-5.540183,0.018386,0.023449,0.039436
11221,-5.652710,0.399832,-5.473145,0.023315,0.011991,0.031176
11236,-5.681440,0.435745,-5.418078,0.032109,0.017187,0.025447
11251,-5.463568,0.407014,-5.525817,0.039037,0.013590,0.028511
11266,-5.451597,0.464475,-5.544971,0.048230,0.005462,0.030243
11281,-5.573701,0.344765,-5.585672,0.055957,-0.000133,0.035839
11296,-5.576096,0.373495,-5.499481,0.071012,-0.008527,0.032642
11311,-5.590461,0.404620,-5.518635,0.081937,-0.012257,0.015988
11326,-5.521029,0.368707,-5.568913,0.089931,-0.022250,-0.009859
11341,-5.619191,0.339977,-5.439626,0.093129,-0.029844,-0.025447
11356,-5.719748,0.244209,-5.509058,0.074743,-0.052227,-0.024115
11371,-5.588067,0.287304,-5.583278,0.078606,-0.059021,-0.018253
11386,-5.542577,0.117316,-5.279215,0.076342,-0.045965,-0.014922
11401,-5.576096,0.746991,-5.717353,0.109916,-0.090331,-0.038237
11416,-5.619191,0.114922,-5.465962,0.112847,-0.084735,-0.043433
11431,-5.829881,0.227449,-5.327099,0.114446,-0.043700,-0.061286
11446,-5.765238,0.177171,-5.398925,0.072478,-0.030910,-0.044632
11461,-6.021417,-0.158017,-5.477933,0.053426,-0.004530,-0.043167
11476,-5.901707,-0.368707,-5.430049,-0.037038,0.022649,0.006395
11491,-5.734113,-0.071826,-5.408502,-0.071945,0.042234,0.024781
11506,-5.612009,0.275333,-5.547365,-0.084069,0.039703,0.033974
11521,-5.612009,0.373495,-5.482722,-0.061420,0.028378,0.015455
11536,-5.552154,0.447716,-5.437232,-0.022516,-0.003864,-0.011858
11551,-5.537788,0.517148,-5.518635,0.016387,-0.030377,-0.041035
11566,-5.461174,0.344765,-5.537788,0.039170,-0.064084,-0.064484
11581,-5.506664,0.380678,-5.453991,0.066216,-0.086067,-0.093395
11596,-5.875371,0.129287,-5.506664,0.072744,-0.069946,-0.115511
11611,-5.875371,-0.213084,-5.403713,0.036639,-0.046231,-0.109116
11626,-5.851429,-0.509965,-5.418078,-0.030510,0.003331,-0.063818
11641,-5.834670,-0.574608,-5.485116,-0.112314,0.022250,0.008260
11656,-5.849035,-0.083797,-5.382165,-0.160544,0.043300,0.056757
11671,-5.688623,0.277727,-5.410896,-0.148686,0.033841,0.063285
11686,-5.470751,0.754174,-5.410896,-0.095127,0.018253,0.020384
11701,-5.765238,0.505177,-5.427655,-0.045299,0.009726,-0.027579
11716,-5.853823,-0.090980,-5.403713,-0.073943,0.029311,-0.016920
11731,-5.681440,-0.126893,-5.468357,-0.115511,0.013057,0.009859
11746,-5.614403,0.134075,-5.492299,-0.116711,0.045432,0.011591
11761,-5.686229,0.244209,-5.461174,-0.113380,0.043567,-0.000666
11776,-5.959168,0.098162,-5.559336,-0.119109,0.098325,0.002665
11791,-5.810728,-0.301669,-5.415684,-0.166273,0.117643,0.050361
11806,-5.702988,-0.019154,-5.552154,-0.209040,0.148420,0.087933
11821,-5.626374,0.205901,-5.561730,-0.239417,0.155481,0.116044
11836,-5.533000,0.603339,-5.446809,-0.211571,0.146688,0.093662
11851,-5.463568,0.639252,-5.528212,-0.165207,0.116711,0.058089
11866,-5.372589,0.414197,-5.509058,-0.137361,0.092063,0.025181
11881,-5.456386,0.213084,-5.497087,-0.136828,0.074476,0.020784
11896,-5.559336,0.251391,-5.477933,-0.148153,0.050361,0.030643
11911,-5.667075,0.497994,-5.592855,-0.139093,0.045965,0.042101
11926,-5.659893,0.641646,-5.561730,-0.106319,0.063418,0.036106
11941,-5.588067,0.404620,-5.537788,-0.092196,0.078606,0.039037
11956,-5.676652,0.289698,-5.686229,-0.095793,0.099657,0.046897
11971,-5.571307,0.229843,-5.552154,-0.128035,0.106851,0.061420
11986,-5.451597,0.277727,-5.590461,-0.152683,0.099790,0.070080
12001,-5.355829,0.378284,-5.477933,-0.153749,0.101123,0.073544
12016,-5.465962,0.239420,-5.774815,-0.179329,0.123106,0.096726
12031,-5.343858,0.495600,-5.789180,-0.152017,0.070213,0.070613
12046,-5.279215,0.873884,-5.561730,-0.137228,0.162675,0.049429
12061,-5.434838,1.206678,-6.117185,-0.057156,0.079406,0.003064
12076,-5.841852,0.797269,-5.248090,-0.033308,0.062219,-0.013057
12091,-5.853823,0.205901,-5.293580,-0.072211,0.110715,0.014389
12106,-5.750873,0.931344,-5.178658,-0.027446,0.091796,-0.001199
12121,-5.628768,0.519542,-5.485116,-0.049429,-0.034107,0.013057
12136,-5.331887,0.632069,-5.461174,-0.035972,-0.023582,0.022250
12151,-5.659893,0.883460,-5.219359,0.016521,-0.041168,0.009193
12166,-5.422867,0.438139,-5.626374,-0.040636,-0.015855,0.052493
12181,-5.609614,0.543484,-5.410896,0.013989,-0.019452,0.022783
12196,-5.762844,0.617704,-5.509058,-0.001066,-0.037704,0.014655
12211,-5.856217,0.569820,-5.540183,0.025847,-0.020651,-0.013057
12226,-5.494693,0.541090,-5.623980,0.006395,-0.006928,0.003464
12241,-5.470751,0.512359,-5.473145,-0.001865,0.012657,0.008394
12256,-5.571307,0.569820,-5.659893,0.004397,0.013723,0.002931
12271,-5.542577,0.481235,-5.595249,0.007461,0.006662,0.002132
12286,-5.415684,0.512359,-5.580884,-0.001466,0.004930,-0.002398
12301,-5.427655,0.598550,-5.597643,-0.003198,-0.004530,-0.009593
12316,-5.537788,0.517148,-5.430049,0.001732,-0.017720,-0.024248
12331,-5.607220,0.512359,-5.544971,0.007594,-0.034240,-0.033441
12346,-5.544971,0.612916,-5.564125,0.013323,-0.034907,-0.029711
12361,-5.492299,0.746991,-5.537788,0.027979,-0.033175,-0.036372
12376,-5.516241,0.663194,-5.509058,0.057289,-0.032375,-0.041302
12391,-5.561730,0.567426,-5.590461,0.084469,-0.029844,-0.050761
12406,-5.535394,0.474052,-5.561730,0.093795,-0.030243,-0.042368
12421,-5.427655,0.299275,-5.573701,0.081804,-0.034907,-0.041701
12436,-5.578490,0.244209,-5.631162,0.062619,-0.039170,-0.041701
12451,-5.561730,0.124498,-5.556942,0.041168,-0.049562,-0.040236
12466,-5.640739,0.169988,-5.453991,0.011325,-0.058622,-0.029844
12481,-5.554548,0.174777,-5.489904,-0.008527,-0.063418,-0.019985
12496,-5.566519,0.490811,-5.430049,-0.010392,-0.069680,-0.026513
12511,-5.621585,0.584185,-5.444415,0.021717,-0.073943,-0.051960
12526,-5.616797,0.512359,-5.501875,0.040902,-0.081138,-0.062352
12541,-5.530606,0.363919,-5.516241,0.054625,-0.079273,-0.053692
12556,-5.580884,0.201113,-5.480328,0.045965,-0.087400,-0.032242
12571,-5.662287,0.222661,-5.485116,0.043567,-0.096859,-0.020251
12586,-5.564125,0.459687,-5.465962,0.053426,-0.108184,-0.023449
12601,-5.521029,0.596156,-5.480328,0.079406,-0.117110,-0.050761
12616,-5.602432,0.526724,-5.398925,0.113247,-0.129634,-0.091130
12631,-5.877765,0.256180,-5.444415,0.107251,-0.146155,-0.122306
12646,-5.932832,-0.023942,-5.389348,0.093662,-0.118709,-0.125237
12661,-5.937620,-0.102951,-5.444415,0.048363,-0.059288,-0.093129
12676,-5.837064,-0.112527,-5.453991,0.005729,-0.032908,-0.064884
12691,-5.853823,-0.150835,-5.355829,-0.036372,-0.005329,-0.045432
12706,-6.081272,-0.227449,-5.437232,-0.029311,-0.025181,-0.038770
12721,-5.578490,-0.043096,-5.322310,-0.154282,0.053959,0.017853
12736,-6.026206,0.122104,-5.542577,-0.085668,0.055158,-0.008260
12751,-5.671864,0.050278,-5.264850,-0.152550,0.021317,0.038904
12766,-5.779603,0.344765,-5.521029,-0.129634,0.067948,0.046098
12781,-5.655104,0.387861,-5.398925,-0.135629,0.047430,0.050761
12796,-5.621585,0.478840,-5.374983,-0.087533,0.041035,0.018119
12811,-5.865794,0.256180,-5.494693,-0.080072,0.044632,0.008260
12826,-5.849035,0.114922,-5.379771,-0.078740,0.065550,0.009992
12841,-5.750873,0.141258,-5.336676,-0.109383,0.059821,0.024515
12856,-5.741296,0.265756,-5.482722,-0.120308,0.065949,0.029577
12871,-5.829881,0.282516,-5.451597,-0.119242,0.082204,0.035440
12886,-5.726930,0.363919,-5.384560,-0.121773,0.074609,0.045965
12901,-5.640739,0.423774,-5.449203,-0.102855,0.077807,0.044766
12916,-5.623980,0.478840,-5.430049,-0.088865,0.065150,0.048230
12931,-5.650316,0.390255,-5.351041,-0.070479,0.070479,0.038904
12946,-5.762844,0.414197,-5.427655,-0.071545,0.062219,0.046764
12961,-5.616797,0.416591,-5.444415,-0.067548,0.064217,0.052360
12976,-5.535394,0.483629,-5.468357,-0.064217,0.064884,0.044632
12991,-5.791574,0.344765,-5.497087,-0.064884,0.060887,0.043167
13006,-5.738902,0.277727,-5.434838,-0.064351,0.076208,0.037305
13021,-5.559336,0.318429,-5.540183,-0.083536,0.069413,0.044233
13036,-5.595249,0.342371,-5.470751,-0.086734,0.066083,0.044100
13051,-5.564125,0.450110,-5.353435,-0.080205,0.060221,0.035040
13066,-5.688623,0.553061,-5.410896,-0.073677,0.032375,0.028645
13081,-5.578490,0.572214,-5.521029,-0.043433,0.046631,0.022250
13096,-5.437232,0.457293,-5.511452,-0.029977,0.036905,0.025181
13111,-5.528212,0.433351,-5.456386,-0.019185,0.024914,0.027979
13126,-5.643133,0.368707,-5.461174,-0.015988,0.008127,0.028511
13141,-5.576096,0.454898,-5.516241,-0.010658,-0.004530,0.016254
13156,-5.528212,0.495600,-5.458780,-0.006129,-0.016920,0.001332
13171,-5.655104,0.507571,-5.422867,-0.001199,-0.029577,-0.011724
13186,-5.758055,0.402226,-5.477933,0.002931,-0.031975,-0.013323
13201,-5.609614,0.337582,-5.487510,-0.001599,-0.037971,-0.005063
13216,-5.544971,0.569820,-5.475539,-0.005596,-0.034507,0.007594
13231,-5.693411,0.387861,-5.473145,0.004796,-0.032508,0.002132
13246,-5.813122,0.533907,-5.425261,0.019185,-0.041168,-0.008527
13261,-5.734113,0.521936,-5.413290,0.026247,-0.022383,-0.023848
13276,-5.669469,0.323217,-5.408502,0.022383,-0.014789,-0.023315
13291,-5.777209,0.179565,-5.497087,0.002265,-0.006262,-0.015055
13306,-5.774815,0.239420,-5.434838,-0.011191,-0.002531,-0.007861
13321,-5.657498,0.402226,-5.470751,-0.012657,-0.003864,-0.014522
13336,-5.535394,0.395043,-5.456386,-0.003464,-0.011858,-0.031709
13351,-5.681440,0.459687,-5.401319,0.000933,-0.015588,-0.047830
13366,-5.772420,0.289698,-5.398925,0.002665,-0.016654,-0.066882
13381,-5.698200,0.198719,-5.468357,-0.009593,-0.014389,-0.077274
13396,-5.707777,0.117316,-5.442020,-0.033574,-0.017453,-0.075942
13411,-5.707777,0.136469,-5.401319,-0.056490,-0.015988,-0.074210
13426,-5.765238,-0.050278,-5.391742,-0.114179,-0.023848,-0.030510
13441,-5.872977,0.253785,-5.449203,-0.124571,0.031309,0.000666
13456,-5.796362,0.466869,-5.465962,-0.119109,0.047430,0.012524
13471,-5.664681,0.780510,-5.401319,-0.073544,0.052493,-0.020384
13486,-5.786786,0.663194,-5.238513,-0.018119,0.043966,-0.063285
13501,-5.621585,0.160412,-5.303157,-0.040636,0.023848,-0.055691
13516,-5.805939,0.148441,-5.499481,-0.052227,0.050095,-0.036772
13531,-5.777209,0.260968,-5.463568,-0.072877,0.050495,-0.014256
13546,-5.597643,0.421380,-5.533000,-0.081671,0.042501,0.008793
13561,-5.588067,0.507571,-5.540183,-0.065283,0.048363,0.015322
13576,-5.631162,0.512359,-5.415684,-0.049695,0.031576,0.012124
13591,-5.753267,0.483629,-5.497087,-0.028645,0.024781,0.001466
13606,-5.597643,0.397437,-5.398925,-0.019052,0.014389,-0.000266
13621,-5.576096,0.397437,-5.542577,-0.022383,0.005862,0.007861
13636,-5.705382,0.332794,-5.473145,-0.018519,0.017187,0.012257
13651,-5.686229,0.450110,-5.394136,-0.019985,0.009726,0.016254
13666,-5.635951,0.493206,-5.516241,0.001599,0.017853,0.007594
13681,-5.588067,0.418985,-5.427655,0.009459,0.008660,0.001732
13696,-5.710171,0.366313,-5.444415,0.014123,0.009060,0.003864
13711,-5.777209,0.342371,-5.422867,0.012391,0.010126,0.006129
13726,-5.623980,0.423774,-5.422867,0.017587,0.005862,0.001998
13741,-5.659893,0.339977,-5.394136,0.019718,0.002398,-0.007727
13756,-5.700594,0.244209,-5.473145,0.011858,-0.001466,-0.007061
13771,-5.753267,0.196325,-5.453991,0.007994,0.008926,-0.008394
13786,-5.731719,0.234632,-5.480328,-0.005596,0.005862,-0.002665
13801,-5.583278,0.213084,-5.398925,-0.019851,0.004263,0.006662
13816,-5.633556,0.227449,-5.444415,-0.025980,0.010525,0.011724
13831,-5.801151,0.234632,-5.382165,-0.026646,0.003730,0.008926
13846,-5.734113,0.373495,-5.504270,-0.017853,0.006795,0.007194
13861,-5.643133,0.433351,-5.365406,-0.013057,0.015588,-0.000400
13876,-5.755661,0.366313,-5.530606,-0.008926,0.028645,-0.001199
13891,-5.837064,0.215478,-5.592855,-0.012524,0.052493,0.003864
13906,-5.712565,0.225055,-5.401319,-0.029977,0.060620,0.017187
13921,-5.626374,0.191536,-5.506664,-0.048363,0.065417,0.031043
13936,-5.688623,0.234632,-5.470751,-0.063685,0.064084,0.039703
13951,-5.760449,0.177171,-5.434838,-0.067815,0.069946,0.042501
13966,-5.693411,0.248997,-5.513846,-0.075942,0.080072,0.043567
13981,-5.580884,0.227449,-5.504270,-0.085801,0.084202,0.047164
13996,-5.600038,0.189142,-5.444415,-0.101522,0.081005,0.049695
14011,-5.671864,0.160412,-5.389348,-0.123505,0.078473,0.062619
14026,-5.662287,0.241814,-5.540183,-0.142424,0.075675,0.071812
14041,-5.549759,0.397437,-5.465962,-0.149086,0.076475,0.075276
14056,-5.623980,0.536301,-5.456386,-0.142824,0.080472,0.060221
14071,-5.741296,0.658405,-5.437232,-0.119775,0.076741,0.040103
14086,-5.623980,0.682347,-5.516241,-0.090730,0.075542,0.023315
14101,-5.384560,0.696713,-5.544971,-0.061819,0.064351,0.020651
14116,-5.396531,0.572214,-5.497087,-0.045165,0.048496,0.023982
14131,-5.501875,0.536301,-5.494693,-0.026779,0.028911,0.027979
14146,-5.497087,0.565032,-5.494693,-0.013856,0.008260,0.023182
14161,-5.465962,0.598550,-5.592855,0.005862,-0.009326,0.013723
14176,-5.451597,0.486023,-5.437232,0.009593,-0.024781,0.004663
14191,-5.702988,0.699107,-5.410896,0.032375,-0.033441,-0.024648
14206,-5.748478,0.505177,-5.494693,0.046764,-0.017453,-0.047164
14221,-5.597643,0.275333,-5.542577,0.037704,-0.002665,-0.038770
14236,-5.621585,0.284910,-5.535394,0.017986,0.004397,-0.019452
14251,-5.674258,0.332794,-5.566519,0.005329,0.006528,-0.009726
14266,-5.576096,0.459687,-5.540183,-0.000666,-0.005862,-0.003730
14281,-5.485116,0.402226,-5.501875,0.005063,-0.013590,-0.010658
14296,-5.504270,0.311246,-5.544971,0.002265,-0.029577,-0.010392
14311,-5.525817,0.217872,-5.458780,-0.013989,-0.050095,-0.000400
14326,-5.635951,0.557849,-5.434838,-0.010392,-0.057956,-0.012657
14341,-5.705382,0.574608,-5.499481,0.011191,-0.046631,-0.043567
14356,-5.679046,0.225055,-5.549759,0.006928,-0.017853,-0.047031
14371,-5.791574,-0.007183,-5.616797,-0.029311,-0.009060,-0.012124
14386,-5.717353,0.035913,-5.528212,-0.071545,0.014123,0.025847
14401,-5.585672,0.328006,-5.521029,-0.096060,0.015721,0.045832
14416,-5.528212,0.395043,-5.506664,-0.096992,0.010392,0.047697
14431,-5.616797,0.390255,-5.453991,-0.095793,0.001332,0.056757
14446,-5.600038,0.450110,-5.578490,-0.091397,-0.025847,0.058755
14461,-5.444415,0.639252,-5.487510,-0.066349,-0.051427,0.036106
14476,-5.351041,1.067814,-5.319916,-0.007727,-0.081671,-0.024115
14491,-5.623980,0.785298,-5.389348,0.048763,-0.085801,-0.087933
14506,-5.920861,0.292093,-5.525817,0.054492,-0.075142,-0.087933
14521,-5.825093,-0.002394,-5.394136,0.010925,-0.039436,-0.033441
14536,-5.722142,0.136469,-5.422867,-0.029311,-0.019851,0.022783
14551,-5.631162,0.373495,-5.437232,-0.036505,-0.028511,0.045299
14566,-5.573701,0.488417,-5.348647,-0.014389,-0.050361,0.045965
14581,-5.638345,0.301669,-5.379771,0.000000,-0.091263,0.054492
14596,-5.513846,0.641646,-5.329493,0.024248,-0.115112,0.041701
14611,-5.750873,0.806846,-5.372589,0.078074,-0.129368,-0.010658
14626,-5.777209,0.677559,-5.291186,0.098458,-0.102721,-0.063018
14641,-5.882554,0.361524,-5.319916,0.103787,-0.100590,-0.081404
14656,-5.899313,-0.090980,-5.365406,0.062485,-0.071012,-0.053026
14671,-5.947197,-0.129287,-5.360618,-0.003331,-0.041701,0.003730
14686,-5.928043,0.299275,-5.365406,-0.018786,-0.012391,0.019585
14701,-5.803545,0.579397,-5.377377,-0.007994,-0.008926,0.004130
14716,-5.691017,0.497994,-5.243302,0.022649,-0.004263,-0.015188
14731,-5.743690,0.237026,-5.425261,0.026646,-0.014389,-0.017587
14746,-5.779603,0.169988,-5.343858,0.017986,-0.024515,-0.014789
14761,-5.537788,0.292093,-5.410896,0.025181,-0.038904,-0.037438
14776,-5.817910,0.028730,-5.272032,-0.022516,-0.054092,-0.019052
14791,-6.093243,0.244209,-5.422867,-0.020784,-0.041968,-0.004796
14806,-5.990293,0.320823,-5.279215,-0.028378,-0.031842,0.002665
14821,-5.762844,0.469264,-5.317522,-0.011458,-0.021850,-0.009326
14836,-5.664681,0.378284,-5.413290,0.023715,-0.020784,-0.023982
14851,-5.743690,0.045490,-5.379771,0.000666,-0.015455,-0.008793
14866,-5.849035,0.026336,-5.396531,-0.013590,-0.015055,0.007328
14881,-5.791574,0.038307,-5.396531,-0.045032,-0.021450,0.029844
14896,-5.758055,0.155623,-5.204994,-0.072877,-0.046231,0.056623
14911,-6.054936,0.588974,-5.209783,-0.066616,-0.037305,0.064617
14926,-6.074090,0.761356,-5.197812,-0.039037,0.000400,0.032908
14941,-5.925649,0.897826,-5.317522,0.030776,0.027979,-0.013590
14956,-5.822699,0.445322,-5.295974,0.061153,0.026513,-0.033841
14971,-5.896919,0.047884,-5.398925,0.054758,0.036772,-0.024914
14986,-5.940014,-0.057461,-5.317522,0.016254,0.031309,0.002265
15001,-5.803545,0.076614,-5.298368,-0.010925,0.025047,0.018519
15016,-5.743690,0.160412,-5.386954,-0.022916,0.011858,0.021317
15031,-5.772420,0.102951,-5.398925,-0.033175,-0.003864,0.012657
15046,-5.865794,0.198719,-5.336676,-0.035040,-0.005729,0.010259
15061,-5.839458,0.265756,-5.319916,-0.037438,-0.002931,0.007194
15076,-5.829881,0.380678,-5.276821,-0.063685,-0.008527,0.025847
15091,-5.911284,0.548272,-5.147533,-0.061553,0.001199,0.008260
15106,-6.011840,0.715866,-5.456386,-0.004530,0.005329,-0.044499
15121,-5.930438,0.407014,-5.384560,0.078340,-0.034374,-0.091130
15136,-5.748478,-0.069432,-5.181052,-0.001332,0.004130,-0.037305
15151,-5.772420,0.035913,-5.379771,0.009193,0.034640,-0.016387
15166,-5.959168,0.090980,-5.374983,-0.019185,0.030910,0.013323
15181,-5.844246,0.248997,-5.212177,-0.014256,0.012524,0.027179
15196,-5.770026,0.304064,-5.295974,-0.011591,-0.007061,0.029711
15211,-5.710171,0.287304,-5.327099,-0.002398,-0.025181,0.025447
15226,-5.887342,0.323217,-5.243302,0.005329,-0.045832,0.015988
15241,-5.983110,0.454898,-5.204994,0.025181,-0.027312,-0.017720
15256,-5.944803,0.414197,-5.279215,0.037038,-0.009859,-0.044366
15271,-5.918467,0.102951,-5.307945,0.026513,0.004397,-0.055158
15286,-5.997475,-0.160412,-5.432444,-0.017453,0.024248,-0.032242
15301,-5.973533,-0.124498,-5.269638,-0.066882,0.040369,-0.001998
15316,-5.908890,0.213084,-5.279215,-0.084868,0.045432,0.003064
15331,-5.815516,0.409408,-5.293580,-0.069413,0.048896,-0.018119
15346,-5.870583,0.244209,-5.336676,-0.051827,0.042368,-0.029711
15361,-5.880159,0.079009,-5.212177,-0.064217,0.033708,-0.023449
15376,-5.798757,0.215478,-5.315128,-0.068348,0.036505,-0.012257
15391,-5.734113,0.282516,-5.260061,-0.068881,0.022783,-0.009060
15406,-5.870583,0.337582,-5.262455,-0.049962,0.018119,-0.017853
15421,-5.930438,0.323217,-5.348647,-0.029711,0.015188,-0.020118
15436,-5.786786,0.232238,-5.303157,-0.024515,0.018919,-0.019319
15451,-5.789180,0.158017,-5.374983,-0.027312,0.020917,-0.009992
15466,-5.856217,0.112527,-5.382165,-0.037571,0.017587,-0.004130
15481,-5.930438,0.110133,-5.252879,-0.045965,0.021850,-0.001199
15496,-5.904101,0.177171,-5.329493,-0.061819,0.013323,0.011058
15511,-5.798757,0.184354,-5.379771,-0.064750,0.019452,0.012391
15526,-5.870583,0.270545,-5.319916,-0.070080,0.016387,0.007861
15541,-5.916072,0.280122,-5.329493,-0.063418,0.014389,-0.001199
15556,-5.810728,0.287304,-5.322310,-0.058222,0.014655,-0.003198
15571,-5.781997,0.244209,-5.240908,-0.060221,0.017587,0.010126
15586,-5.832275,0.237026,-5.391742,-0.040769,0.010259,0.019452
15601,-5.844246,0.471658,-5.250484,-0.017453,-0.003597,0.029844
15616,-5.702988,0.749385,-5.281609,0.036239,-0.019851,0.014789
15631,-5.702988,0.656011,-5.279215,0.089931,-0.030510,-0.007061
15646,-5.801151,0.318429,-5.351041,0.114446,-0.043300,-0.001998
15661,-5.942409,-0.026336,-5.276821,0.115645,-0.039969,0.007328
15676,-5.846641,0.155623,-5.219359,0.101256,-0.043034,0.017054
15691,-5.781997,0.143652,-5.274426,0.094861,-0.043700,0.007861
15706,-5.861006,-0.045490,-5.279215,0.079672,-0.045832,0.012124
15721,-6.019023,0.076614,-5.262455,0.066482,-0.040902,0.029178
15736,-5.896919,0.196325,-5.341464,0.070613,-0.046231,0.025181
15751,-5.781997,0.373495,-5.298368,0.087933,-0.048363,0.006262
15766,-5.837064,0.361524,-5.238513,0.120441,-0.037305,-0.025314
15781,-5.925649,0.055067,-5.161899,0.097925,-0.038371,-0.035706
15796,-6.019023,0.067038,-5.363012,0.098058,-0.020784,-0.058489
15811,-5.992687,-0.150835,-5.310339,0.064217,-0.016387,-0.051294
15826,-6.069301,-0.256180,-5.219359,0.012391,-0.001732,-0.027979
15841,-6.378153,-0.299275,-4.707000,-0.061953,0.107384,0.008127
15856,-6.196194,0.268151,-5.379771,-0.038504,0.008127,-0.003464
15871,-5.760449,0.124498,-5.300763,-0.040103,0.014655,-0.006795
15886,-5.872977,0.268151,-5.181052,-0.025047,0.023182,-0.026779
15901,-6.011840,0.179565,-5.269638,0.003464,0.018119,-0.047164
15916,-5.997475,0.296881,-5.214571,0.022383,0.022250,-0.073410
15931,-5.911284,0.043096,-5.269638,0.037438,0.028911,-0.083936
15946,-5.750873,-0.402226,-5.298368,-0.005462,0.016920,-0.038371
15961,-5.877765,-0.287304,-5.322310,-0.016254,0.018786,0.002931
15976,-6.007052,0.102951,-5.267244,-0.010392,0.000666,0.014922
15991,-5.844246,0.316035,-5.221754,0.015322,-0.006129,-0.003064
16006,-5.784391,0.442927,-5.207388,0.060087,-0.039703,-0.026779
16021,-5.937620,0.150835,-5.284003,0.111914,-0.032508,-0.063285
16036,-5.884948,-0.033519,-5.327099,0.132432,-0.052227,-0.076874
16051,-5.801151,-0.004788,-5.267244,0.127369,-0.074876,-0.059554
16066,-6.047753,0.076614,-4.972757,0.119508,-0.083136,-0.077407
16081,-6.026206,-0.114922,-5.341464,0.143623,-0.123905,-0.050628
16096,-6.059724,-0.227449,-5.300763,0.139493,-0.106718,-0.038637
16111,-5.832275,-0.251391,-5.190629,0.150818,-0.126836,-0.015188
16126,-5.947197,-0.038307,-5.209783,0.131233,-0.134963,-0.018119
16141,-6.098032,-0.380678,-5.118803,0.154015,-0.122440,0.000533
16156,-6.232107,-0.299275,-5.152322,0.135896,-0.123905,-0.007461
16171,-6.167463,-0.447716,-5.121197,0.138560,-0.080338,0.002931
16186,-6.078878,-0.773327,-5.049371,0.086334,-0.061953,0.040636
16201,-6.287174,-0.799663,-5.193023,0.018652,-0.013723,0.069547
16216,-6.133945,-0.636858,-5.164293,-0.032908,0.004130,0.108850
16231,-6.064513,-0.179565,-5.070919,-0.029178,0.012790,0.090730
16246,-6.121974,-0.040701,-5.066131,0.003864,0.012257,0.048763
16261,-6.229712,-0.090980,-5.063736,0.020784,0.015855,0.016521
16276,-6.098032,-0.265756,-5.164293,0.019585,0.006129,0.008660
16291,-6.078878,-0.387861,-5.097255,0.018519,0.021450,0.006662
16306,-6.042965,-0.014365,-5.252879,0.011325,0.004663,0.016920
16321,-5.961562,-0.723049,-5.188235,-0.014655,0.021583,0.005596
16336,-6.126762,-0.442927,-5.099649,0.003198,0.033308,0.007061
16351,-6.019023,-0.294487,-5.123591,-0.004130,0.017587,0.029178
16366,-6.023811,-0.131681,-5.023035,-0.008127,-0.007861,0.036106
16381,-6.086061,0.174777,-5.056554,0.044366,0.016521,0.039170
16396,-6.296751,-0.337582,-4.984728,0.018652,-0.049029,0.119109
16411,-5.765238,-0.043096,-5.118803,0.045698,0.015322,0.119775
16426,-5.983110,-0.007183,-5.102044,0.056623,-0.020784,0.123239
16441,-6.148310,-0.081403,-5.097255,0.088732,-0.007061,0.112714
16456,-6.090849,-0.071826,-5.066131,0.105919,0.014655,0.087000
16471,-6.157887,-0.354342,-5.159504,0.098058,0.019052,0.077407
16486,-6.004658,-0.502782,-5.149928,0.072611,0.046764,0.062752
16501,-6.026206,-0.548272,-5.200206,0.041168,0.063018,0.051294
16516,-6.086061,-0.641646,-5.073313,0.009726,0.055824,0.043167
16531,-6.093243,-0.476446,-5.051765,-0.029444,0.037838,0.028645
16546,-6.399701,-0.411803,-4.769250,-0.016521,0.096992,-0.018519
16561,-6.246472,-0.457293,-4.884171,-0.080072,0.087799,-0.004663
16576,-6.272809,-0.421380,-5.149928,-0.059288,0.094061,-0.021850
16591,-6.033388,-0.387861,-5.125986,-0.067149,0.065283,-0.031309
16606,-5.942409,-0.260968,-5.216965,-0.087533,0.074743,-0.034773
16621,-6.064513,-0.313640,-5.279215,-0.073810,0.090997,-0.044499
16636,-6.148310,-0.330400,-5.149928,-0.071945,0.097792,-0.048363
16651,-6.074090,-0.198719,-5.216965,-0.058222,0.109916,-0.067548
16666,-5.839458,-0.158017,-5.183446,-0.027046,0.111914,-0.102588
16681,-5.772420,-0.421380,-5.207388,-0.037172,0.121240,-0.118709
16696,-5.925649,-0.577003,-5.279215,-0.059688,0.107784,-0.116444
16711,-5.937620,-0.423774,-5.477933,-0.082070,0.060487,-0.121640
16726,-5.580884,-0.782904,-5.221754,-0.130167,0.076475,-0.099257
16741,-6.236896,0.035913,-4.982334,-0.080472,0.009326,-0.115511
16756,-6.236896,0.134075,-4.592079,-0.051028,0.009859,-0.106052
16771,-6.490681,0.031125,-4.788404,-0.034507,0.111381,-0.119908
16786,-6.181828,-0.244209,-5.231330,-0.056090,0.083536,-0.132565
16801,-5.980716,-0.639252,-5.358223,-0.087799,0.077674,-0.122440
16816,-5.844246,-0.227449,-5.391742,-0.050628,0.064084,-0.143890
16831,-5.750873,-0.505177,-5.367800,-0.068081,0.072211,-0.107118
16846,-5.513846,-0.950498,-5.248090,-0.092862,0.020518,-0.027845
16861,-5.427655,-1.194707,-5.473145,-0.187057,-0.021051,0.106718
16876,-5.463568,-0.842759,-5.367800,-0.241415,-0.102188,0.208507
16891,-5.851429,0.524330,-5.346252,-0.163342,-0.147354,0.214236
16906,-5.724536,0.476446,-5.082890,-0.068348,-0.131366,0.176398
16921,-6.591237,0.926556,-4.910508,0.024781,-0.149885,0.079539
16936,-6.373365,0.146046,-4.941632,0.078473,-0.071279,-0.002265
16951,-6.447585,-0.126893,-5.303157,0.061153,-0.063818,-0.001332
16966,-5.849035,-0.603339,-5.111620,0.076741,-0.064617,0.025714
16981,-6.081272,-0.885855,-5.291186,-0.028378,-0.051028,0.114845
16996,-5.789180,-0.629675,-5.228936,-0.048363,-0.039969,0.165606
17011,-6.023811,-0.684742,-5.264850,-0.090331,-0.090597,0.252740
17026,-5.837064,-0.763750,-5.178658,-0.060887,-0.049962,0.313493
17041,-6.019023,-1.017536,-5.327099,-0.114712,-0.009060,0.417014
17056,-6.107608,0.464475,-5.094861,-0.041168,-0.095127,0.421810
17071,-6.272809,0.339977,-4.862624,-0.062352,-0.079006,0.381308
17086,-6.287174,0.577003,-4.944026,-0.092729,-0.044766,0.308697
17101,-5.999869,1.192312,-5.147533,0.018119,-0.054625,0.157746
17116,-6.114791,0.730232,-5.066131,0.147487,-0.069280,0.049162
17131,-6.251261,-0.263362,-5.097255,0.140959,-0.052760,0.056090
17146,-6.016629,-0.328006,-5.068525,0.083136,-0.048363,0.104853
17161,-6.038177,-0.272939,-5.142745,0.034240,-0.076741,0.147620
17176,-6.098032,-0.136469,-5.171475,0.040502,-0.060887,0.149086
17191,-6.210559,-0.476446,-5.183446,-0.008527,-0.085801,0.162809
17206,-6.251261,0.043096,-5.123591,0.015322,-0.047297,0.136029
17221,-5.925649,-0.277727,-5.020641,-0.023582,-0.060620,0.132299
17236,-6.083666,0.057461,-5.343858,-0.069813,-0.051960,0.095793
17251,-6.406884,0.402226,-5.142745,-0.032642,-0.000933,-0.005329
17266,-6.272809,0.150835,-4.896142,-0.020518,0.046764,-0.067681
17281,-6.239290,-0.308852,-4.944026,-0.085135,0.073144,-0.066882
17296,-6.246472,-0.632069,-4.577713,-0.195051,0.105119,-0.037305
17311,-6.411672,-0.229843,-5.238513,-0.253139,0.063685,-0.010126
17326,-5.892130,0.081403,-5.226542,-0.239417,0.097259,-0.015855
17341,-6.129156,0.232238,-5.145139,-0.194251,0.051161,-0.043833
17356,-6.009446,0.248997,-5.142745,-0.176265,0.065816,-0.087266
17371,-6.210559,-0.117316,-5.037400,-0.209972,0.039303,-0.096326
17386,-6.165069,-0.095768,-5.013458,-0.246078,0.081937,-0.080338
17401,-6.258443,-0.543484,-4.656722,-0.297905,0.028778,-0.036905
17416,-6.397307,0.450110,-5.161899,-0.320421,0.090864,0.003064
17431,-5.887342,0.146046,-5.125986,-0.378377,0.061953,0.042101
17446,-6.129156,0.694318,-5.207388,-0.274723,0.077008,-0.017853
17461,-5.892130,0.600945,-5.001487,-0.246211,0.046764,-0.041968
17476,-6.124368,0.632069,-5.214571,-0.208374,0.079139,-0.054492
17491,-6.054936,0.047884,-5.075707,-0.183992,0.073810,-0.047164
17506,-6.131550,-0.114922,-5.061342,-0.251940,0.059688,0.014522
17521,-6.131550,0.134075,-5.164293,-0.232089,0.064217,0.014522
17536,-6.076484,0.124498,-5.267244,-0.249942,0.040103,0.048363
17551,-5.887342,0.000000,-5.269638,-0.293375,0.058489,0.105386
17566,-6.030994,0.471658,-5.023035,-0.223562,0.039037,0.078340
17581,-6.157887,0.933739,-5.360618,-0.238750,0.016787,0.094194
17596,-6.114791,0.146046,-5.128380,-0.247810,0.048096,0.113913
17611,-6.098032,0.397437,-4.989516,-0.215302,0.089265,0.117110
17626,-6.126762,0.830788,-5.082890,-0.157746,0.041568,0.115378
17641,-5.971139,0.713472,-5.137957,-0.155881,0.008527,0.140825
17656,-6.033388,0.672771,-5.070919,-0.133631,-0.017187,0.155614
17671,-6.071695,0.840365,-5.020641,-0.117643,-0.044899,0.146155
17686,-5.971139,0.751779,-5.130774,-0.092196,-0.049429,0.139626
17701,-6.131550,0.565032,-5.149928,-0.067282,-0.066749,0.136429
17716,-5.973533,0.627281,-5.104438,-0.058489,-0.081538,0.152017
17731,-6.040571,0.665588,-5.181052,-0.052227,-0.071279,0.163741
17746,-6.019023,0.720655,-5.085284,-0.055557,-0.048763,0.177730
17761,-6.181828,0.749385,-5.135562,-0.041302,-0.039570,0.184259
17776,-6.172252,0.945710,-5.128380,-0.017054,-0.012657,0.174400
17791,-6.035782,0.713472,-5.154716,-0.037038,0.017986,0.189188
17806,-6.198588,0.821211,-5.214571,-0.042634,0.055158,0.200913
17821,-6.256049,0.560243,-5.111620,-0.069413,0.081538,0.234887
17836,-6.299145,0.615310,-5.181052,-0.108717,0.151884,0.260067
17851,-6.019023,0.648829,-5.233725,-0.138560,0.166539,0.255538
17866,-5.901707,0.905008,-5.171475,-0.152949,0.203711,0.215168
17881,-6.174646,0.667982,-5.183446,-0.182926,0.227959,0.169070
17896,-5.940014,0.691924,-5.190629,-0.209839,0.235553,0.105253
17911,-5.908890,0.830788,-5.118803,-0.245279,0.243014,0.069147
17926,-5.808333,0.943315,-5.066131,-0.262998,0.241681,0.040636
17941,-5.997475,1.125275,-5.073313,-0.277654,0.233954,0.058755
17956,-6.102820,1.635240,-5.272032,-0.219698,0.292443,0.031443
17971,-5.868188,1.561020,-5.286397,-0.168671,0.345335,-0.017720
17986,-5.662287,1.335965,-5.317522,-0.106718,0.375712,-0.081138
18001,-5.659893,1.029507,-5.422867,-0.094727,0.385438,-0.112181
18016,-5.743690,0.775721,-5.451597,-0.100323,0.403824,-0.131499
18031,-5.566519,0.644040,-5.394136,-0.141358,0.388769,-0.123905
18046,-5.317522,0.811634,-5.408502,-0.166939,0.338407,-0.104986
18061,-5.485116,1.098939,-5.525817,-0.177730,0.294841,-0.112314
18076,-5.374983,1.510741,-5.154716,-0.145888,0.236086,-0.137228
18091,-5.518635,1.666364,-5.269638,-0.115645,0.186923,-0.155214
18106,-5.358223,1.412579,-5.485116,-0.055557,0.172668,-0.192652
18121,-5.319916,0.957681,-5.461174,-0.048230,0.113779,-0.185058
18136,-5.372589,0.744597,-5.379771,-0.081404,0.053426,-0.151617
18151,-5.343858,1.096544,-5.463568,-0.096459,0.006129,-0.130167
18166,-5.173870,1.082179,-5.523423,-0.095260,-0.035839,-0.118709
18181,-5.226542,1.185130,-5.451597,-0.093928,-0.100590,-0.106851
18196,-5.439626,1.216254,-5.456386,-0.040369,-0.120841,-0.134697
18211,-5.516241,1.074997,-5.437232,-0.045165,-0.162675,-0.134164
18226,-5.755661,1.012747,-5.645527,-0.023982,-0.112181,-0.128835
18241,-5.604826,0.835576,-5.465962,-0.037704,-0.065949,-0.112181
18256,-5.846641,1.084573,-5.573701,-0.053959,-0.054092,-0.084735
18271,-5.889736,1.077391,-5.427655,-0.034240,-0.009859,-0.085934
18286,-5.568913,1.103727,-5.410896,-0.029577,-0.012923,-0.088199
18301,-5.549759,1.151611,-5.427655,-0.010792,-0.024515,-0.087266
18316,-5.571307,1.252167,-5.485116,0.024115,-0.027979,-0.114845
18331,-5.516241,1.199495,-5.437232,0.066882,-0.052893,-0.142691
18346,-5.530606,1.154005,-5.351041,0.097259,-0.056757,-0.149752
18361,-5.664681,0.984017,-5.473145,0.111648,-0.050495,-0.132698
18376,-5.822699,1.024718,-5.240908,0.133098,-0.044366,-0.106052
18391,-5.803545,1.113304,-5.382165,0.145489,-0.029044,-0.078473
18406,-5.676652,1.012747,-5.437232,0.152816,-0.020651,-0.053959
18421,-5.705382,1.017536,-5.449203,0.192786,0.005462,-0.051161
18436,-5.691017,0.859518,-5.408502,0.215168,0.015588,-0.047297
18451,-5.679046,0.857124,-5.477933,0.244479,0.003997,-0.057556
18466,-5.525817,0.754174,-5.324705,0.246478,-0.038904,-0.073410
18481,-5.592855,0.509965,-5.353435,0.235020,-0.045565,-0.066216
18496,-5.643133,0.639252,-5.267244,0.225161,-0.053026,-0.052893
18511,-5.760449,0.483629,-5.281609,0.235819,-0.113113,-0.063018
18526,-5.679046,0.414197,-5.329493,0.207308,-0.100190,-0.067282
18541,-5.729324,0.418985,-5.336676,0.194518,-0.095260,-0.063018
18556,-5.839458,0.390255,-5.430049,0.193585,-0.067149,-0.062485
18571,-5.825093,0.227449,-5.396531,0.170936,-0.059021,-0.054891
18586,-5.844246,0.311246,-5.363012,0.139626,-0.007594,-0.038504
18601,-5.729324,0.268151,-5.305551,0.124838,0.002531,-0.036372
18616,-5.901707,0.177171,-5.384560,0.094328,0.015455,-0.031043
18631,-5.892130,0.122104,-5.353435,0.056224,0.040103,-0.023715
18646,-5.717353,0.268151,-5.533000,0.033041,0.053426,-0.024648
18661,-5.868188,0.134075,-5.221754,-0.000533,0.044899,-0.006528
18676,-5.928043,0.332794,-5.272032,-0.012790,0.021583,-0.009593
18691,-5.849035,0.296881,-5.343858,-0.021717,0.037971,-0.015855
18706,-5.671864,0.177171,-5.334281,-0.048496,0.028511,-0.001599
18721,-5.597643,0.351948,-5.396531,-0.041835,0.031709,-0.007461
18736,-5.753267,0.428562,-5.439626,-0.042234,0.021051,-0.003198
18751,-5.700594,0.347159,-5.489904,-0.026646,0.000933,-0.013323
18766,-5.600038,0.486023,-5.456386,-0.017054,-0.013856,-0.016920
18781,-5.607220,0.586579,-5.216965,0.009459,-0.029844,-0.037571
18796,-5.889736,0.579397,-5.200206,0.045432,-0.047830,-0.064217
18811,-5.851429,0.325611,-5.403713,0.054092,-0.063285,-0.079539
18826,-5.781997,0.375890,-5.348647,0.050095,-0.040236,-0.079539
18841,-5.743690,0.193930,-5.451597,0.045299,-0.052093,-0.068081
18856,-5.707777,0.193930,-5.358223,0.039836,-0.031443,-0.059688
18871,-5.942409,0.169988,-5.420473,0.026646,-0.019319,-0.050495
18886,-5.748478,0.004788,-5.487510,0.008260,0.011858,-0.029844
18901,-5.645527,0.019154,-5.468357,-0.014789,0.027845,-0.002931
18916,-5.137957,0.409408,-5.482722,-0.025847,-0.057156,-0.015988
18931,-5.729324,0.524330,-5.118803,0.027179,0.021583,-0.079939
18946,-6.062119,0.579397,-4.977545,0.080871,-0.020118,-0.090331
18961,-6.074090,0.277727,-4.831499,0.089265,0.030377,-0.096726
18976,-6.160281,-0.160412,-5.504270,0.022916,0.033308,-0.062752
18991,-6.019023,-0.050278,-5.420473,0.002531,0.011991,-0.064617
19006,-5.767632,0.045490,-5.348647,0.007328,0.045698,-0.087400
19021,-5.700594,0.033519,-5.513846,-0.033175,0.029444,-0.103121
19036,-5.786786,-0.105345,-5.295974,-0.050495,0.029977,-0.119908
19051,-5.686229,-0.414197,-5.537788,-0.096060,0.013057,-0.108583
19066,-5.796362,0.105345,-5.200206,-0.103787,0.047697,-0.099391
19081,-5.401319,-0.079009,-5.394136,-0.146288,-0.002398,-0.079006
19096,-5.707777,-0.028730,-5.252879,-0.144423,0.025580,-0.081005
19111,-5.758055,0.100556,-5.161899,-0.155481,0.004397,-0.053426
19126,-5.746084,0.296881,-5.401319,-0.146288,0.015055,-0.019718
19141,-5.786786,0.189142,-5.252879,-0.152550,0.056090,0.002798
19156,-6.179434,0.521936,-5.097255,-0.133897,0.057156,0.008394
19171,-6.028600,0.241814,-5.398925,-0.111248,0.079939,-0.005196
19186,-5.892130,0.351948,-5.279215,-0.095926,0.056490,-0.023449
19201,-5.772420,0.138864,-5.284003,-0.121640,0.053292,-0.017720
19216,-5.473145,0.409408,-5.219359,-0.105786,0.008127,-0.047430
19231,-5.722142,0.275333,-5.420473,-0.140692,0.001865,-0.051827
19246,-6.270414,0.653617,-5.190629,-0.064750,0.000400,-0.119242
19261,-5.959168,0.284910,-5.248090,-0.094994,0.035306,-0.112580
19276,-5.959168,0.038307,-5.382165,-0.118443,0.065283,-0.080338
19291,-5.774815,0.198719,-5.274426,-0.140426,0.075675,-0.041035
19306,-5.719748,0.337582,-5.363012,-0.131899,0.057023,-0.021450
19321,-5.595249,0.610521,-5.324705,-0.109916,0.035839,-0.030776
19336,-5.796362,0.617704,-5.355829,-0.074077,0.029977,-0.062752
19351,-5.942409,0.562637,-5.351041,-0.034507,0.033574,-0.095394
19366,-5.887342,0.450110,-5.394136,-0.013456,0.063018,-0.110582
19381,-5.796362,0.311246,-5.372589,-0.008660,0.061286,-0.114446
19396,-5.679046,0.105345,-5.274426,-0.037571,0.072078,-0.086600
19411,-5.827487,-0.323217,-5.485116,-0.142691,0.044233,0.000533
19426,-6.042965,0.086191,-5.420473,-0.156280,0.080738,0.029044
19441,-5.767632,0.086191,-5.236119,-0.255404,0.058355,0.100190
19456,-5.899313,0.543484,-5.403713,-0.237685,0.072078,0.101922
19471,-5.758055,0.134075,-5.312734,-0.264997,0.009726,0.123372
19486,-6.002264,0.806846,-5.312734,-0.284582,-0.014922,0.098858
19501,-5.875371,0.837971,-5.293580,-0.204910,0.004263,0.039969
19516,-6.526594,0.627281,-5.123591,-0.158812,0.000000,-0.022383
19531,-6.212953,0.169988,-4.920084,-0.188522,0.024781,-0.009859
19546,-5.305551,-0.505177,-5.590461,-0.331080,0.094861,0.113113
19561,-6.813898,0.189142,-4.778827,-0.351198,0.261799,0.079806
19576,-5.204994,0.775721,-5.695806,-0.406622,0.103387,0.142957
19591,-5.544971,0.433351,-5.066131,-0.361323,0.118309,0.067282
19606,-5.664681,-0.146046,-5.918467,-0.512274,0.222496,0.149885
19621,-5.245696,-0.155623,-5.559336,-0.304034,0.262466,0.086334
19636,-7.338228,0.952892,-5.238513,-0.338807,0.085801,0.128835
19651,-4.548983,1.477222,-5.307945,-0.338274,0.143623,0.124704
19666,-5.647922,1.120486,-5.803545,-0.193718,0.124704,0.052626
19681,-4.888960,1.400608,-5.406107,-0.126836,0.050761,0.024648
19696,-4.280833,0.196325,-6.081272,-0.184525,0.155081,0.056623
19711,-6.325481,0.773327,-5.734113,-0.109250,0.086201,0.031709
19726,-4.838682,0.931344,-5.204994,-0.225694,0.081804,0.098058
19741,-6.009446,0.608127,-5.585672,-0.210372,0.175599,0.126303
19756,-5.331887,0.861913,-5.518635,-0.206375,0.074343,0.087666
19771,-5.822699,0.505177,-5.348647,-0.187057,0.204910,0.035040
19786,-5.200206,0.483629,-5.983110,-0.312960,0.264597,0.094727
19801,-6.038177,1.120486,-5.592855,-0.275123,0.209972,0.088466
19816,-4.527435,0.940921,-5.688623,-0.476835,0.152550,0.164674
19831,-5.279215,1.426944,-5.779603,-0.376778,0.177064,0.101123
19846,-5.099649,1.740585,-5.770026,-0.226626,0.086067,0.019185
19861,-4.879383,1.192312,-5.729324,-0.189721,0.044766,0.065283
19876,-4.781221,1.424550,-5.791574,-0.093395,-0.047164,0.048363
19891,-4.874595,1.290475,-5.736507,-0.067815,-0.015588,0.037704
19906,-5.097255,1.774103,-5.473145,0.016920,-0.033308,-0.037438
19921,-5.195417,1.781286,-5.477933,0.137095,-0.056224,-0.138294
19936,-5.157110,1.405396,-5.540183,0.228891,-0.086334,-0.218899
19951,-5.351041,1.496376,-5.837064,0.297772,-0.107917,-0.272724
19966,-5.451597,1.429338,-5.779603,0.373314,-0.117910,-0.332412
19981,-5.513846,1.187524,-5.695806,0.333478,-0.074476,-0.306832
19996,-5.439626,0.711078,-5.549759,0.306299,-0.067948,-0.274323
20011,-5.573701,0.665588,-5.707777,0.256737,-0.058888,-0.231556
20026,-5.561730,0.574608,-5.528212,0.227559,-0.058355,-0.187323
20041,-5.461174,0.830788,-5.547365,0.221830,-0.033308,-0.160544
20056,-5.382165,0.859518,-5.638345,0.227825,-0.032109,-0.158545
20071,-5.358223,0.895431,-5.494693,0.258469,-0.051960,-0.179063
20086,-5.434838,0.667982,-5.544971,0.269926,-0.036905,-0.181194
20101,-5.576096,0.804452,-5.576096,0.305233,-0.046364,-0.216234
20116,-5.430049,0.694318,-5.310339,0.289378,-0.088066,-0.202378
20131,-5.415684,0.251391,-5.544971,0.287380,-0.034507,-0.188256
20146,-5.832275,0.395043,-5.492299,0.283783,-0.041168,-0.164807
20161,-5.638345,0.167594,-5.425261,0.245012,-0.055691,-0.135096
20176,-5.456386,0.268151,-5.566519,0.243813,-0.037038,-0.135096
20191,-5.659893,0.047884,-5.585672,0.196383,-0.022516,-0.095926
20206,-5.612009,0.260968,-5.178658,0.193718,-0.036372,-0.088865
20221,-5.770026,0.098162,-5.394136,0.161077,-0.025714,-0.079939
20236,-5.712565,0.287304,-5.470751,0.158012,0.005329,-0.074876
20251,-5.722142,0.289698,-5.319916,0.130966,-0.016920,-0.063551
20266,-5.688623,0.028730,-5.473145,0.123239,-0.018519,-0.065949
20281,-5.681440,0.071826,-5.446809,0.105786,-0.031443,-0.069280
20296,-5.537788,0.172383,-5.497087,0.108051,-0.057956,-0.079139
20311,-5.470751,0.105345,-5.437232,0.109116,-0.077274,-0.081404
20326,-5.595249,0.079009,-5.525817,0.122306,-0.084069,-0.067681
20341,-5.533000,0.193930,-5.468357,0.151750,-0.098724,-0.079539
20356,-5.463568,0.452504,-5.465962,0.196916,-0.124571,-0.109250
20371,-5.626374,0.316035,-5.422867,0.242481,-0.124571,-0.159744
20386,-5.825093,-0.016759,-5.487510,0.261933,-0.156946,-0.158545
20401,-5.698200,-0.155623,-5.367800,0.252073,-0.149219,-0.158412
20416,-5.724536,-0.244209,-5.456386,0.247011,-0.148420,-0.159478
20431,-5.679046,-0.179565,-5.473145,0.234887,-0.148953,-0.154282
20446,-5.884948,-0.280122,-5.336676,0.239550,-0.126037,-0.166406
20461,-6.011840,-0.531513,-5.346252,0.222230,-0.124571,-0.150418
20476,-5.772420,-0.605733,-5.329493,0.184126,-0.108983,-0.132565
20491,-5.856217,-0.612916,-5.300763,0.155081,-0.092596,-0.116044
20506,-5.908890,-0.574608,-5.317522,0.134031,-0.089398,-0.100989
20521,-5.932832,-0.610521,-5.382165,0.114446,-0.083270,-0.086600
20536,-5.762844,-0.612916,-5.406107,0.100989,-0.073810,-0.074609
20551,-5.731719,-0.536301,-5.274426,0.092995,-0.085401,-0.068614
20566,-5.834670,-0.545878,-5.353435,0.101123,-0.088332,-0.072744
20581,-5.925649,-0.553061,-5.379771,0.104853,-0.078606,-0.069413
20596,-5.808333,-0.339977,-5.307945,0.121374,-0.074343,-0.075942
20611,-5.896919,-0.529119,-5.300763,0.124305,-0.065283,-0.089665
20626,-5.963956,-0.799663,-5.272032,0.120308,-0.043966,-0.097659
20641,-5.983110,-0.869095,-5.157110,0.086734,-0.038371,-0.091663
20656,-5.940014,-0.984017,-5.260061,0.055557,-0.030377,-0.073677
20671,-5.875371,-1.017536,-5.238513,0.013190,-0.009992,-0.040902
20686,-5.951985,-1.012747,-5.248090,-0.025980,0.006395,-0.009459
20701,-5.904101,-0.849942,-5.264850,-0.052493,0.020917,0.010126
20716,-5.995081,-0.610521,-5.073313,-0.038904,0.040902,0.001332
20731,-5.872977,-0.596156,-5.319916,-0.037305,0.022916,-0.005063
20746,-5.841852,-0.644040,-5.310339,-0.025847,0.022916,-0.005862
20761,-5.925649,-0.481235,-5.243302,-0.014922,0.002398,-0.009326
20776,-5.987898,-0.548272,-5.193023,0.009593,0.006928,-0.025980
20791,-5.793968,-0.471658,-5.334281,0.023182,-0.025580,-0.022649
20806,-5.758055,-0.600945,-5.231330,0.041701,-0.031309,-0.019319
20821,-5.947197,-0.531513,-5.245696,0.070479,-0.042501,-0.025580
20836,-5.923255,-0.474052,-5.118803,0.093928,-0.064617,-0.043700
20851,-5.856217,-0.608127,-5.279215,0.111781,-0.035040,-0.069014
20866,-5.956774,-0.679953,-5.214571,0.109116,-0.056090,-0.092329
20881,-6.066907,-1.010353,-5.238513,0.097525,-0.034640,-0.083669
20896,-6.026206,-1.170765,-5.173870,0.078207,-0.021583,-0.057956
20911,-5.839458,-1.237802,-5.190629,0.020518,-0.000133,-0.030243
20926,-5.937620,-1.158794,-5.200206,-0.008527,0.016387,-0.014389
20941,-6.052542,-1.034295,-5.104438,-0.042767,0.012923,0.005862
20956,-5.899313,-0.845153,-5.137957,-0.037704,0.012124,-0.001066
20971,-5.846641,-0.658405,-5.260061,-0.031576,-0.010792,-0.017720
20986,-5.865794,-0.670376,-5.197812,-0.016254,-0.008527,-0.024781
21001,-6.167463,-0.768539,-5.243302,-0.009726,-0.006262,-0.026513
21016,-6.035782,-0.835576,-5.142745,-0.020784,-0.007194,-0.012391
21031,-5.837064,-0.782904,-5.185841,-0.016254,0.005063,-0.012124
21046,-5.884948,-0.861913,-5.267244,-0.015588,-0.000533,-0.005063
21061,-5.937620,-0.828394,-5.195417,-0.006928,-0.010792,-0.005596
21076,-5.920861,-0.732626,-5.106832,0.009193,-0.021051,-0.006129
21091,-5.896919,-0.682347,-5.181052,0.030510,-0.023449,-0.017720
21106,-5.959168,-0.869095,-5.123591,0.046498,-0.028645,-0.020917
21121,-6.107608,-0.864307,-4.991910,0.065150,-0.027046,-0.034107
21136,-6.016629,-1.063026,-5.200206,0.039170,-0.032242,-0.023848
21151,-5.882554,-1.082179,-5.111620,0.017453,-0.045832,-0.028778
21166,-5.954380,-1.242591,-5.171475,0.005995,-0.042101,-0.000533
21181,-6.011840,-1.137246,-5.114015,-0.029844,-0.021983,0.038904
21196,-6.095637,-0.957681,-5.178658,-0.032908,-0.017187,0.042900
21211,-6.011840,-0.960075,-5.183446,-0.037305,0.002265,0.044899
21226,-6.023811,-0.928950,-5.147533,-0.042101,0.016920,0.046498
21241,-6.112397,-0.864307,-5.114015,-0.041568,0.018919,0.050095
21256,-6.136339,-0.940921,-5.171475,-0.048629,0.053292,0.045299
21271,-6.016629,-0.909797,-5.166687,-0.061686,0.061286,0.047564
21286,-5.894525,-0.981623,-5.135562,-0.076342,0.054492,0.054225
21301,-6.066907,-1.051054,-5.243302,-0.092596,0.063018,0.059155
21316,-6.057330,-0.950498,-5.207388,-0.107784,0.068747,0.061153
21331,-5.971139,-0.711078,-5.097255,-0.104853,0.062086,0.049562
21346,-6.102820,-0.756568,-5.202600,-0.108717,0.079139,0.024381
21361,-6.095637,-0.991199,-5.171475,-0.123505,0.090864,0.006395
21376,-6.165069,-1.086968,-5.094861,-0.153482,0.106585,0.012524
21391,-6.028600,-0.909797,-5.233725,-0.173467,0.125504,0.008793
21406,-5.846641,-0.928950,-5.200206,-0.211971,0.130833,0.021317
21421,-5.995081,-0.816423,-5.248090,-0.230224,0.152150,0.025447
21436,-6.057330,-0.871489,-5.305551,-0.260201,0.156547,0.036639
21451,-5.856217,-0.861913,-5.228936,-0.278187,0.177064,0.046764
21466,-5.911284,-0.952892,-5.238513,-0.318822,0.184259,0.064617
21481,-5.896919,-0.924162,-5.310339,-0.346534,0.200513,0.085135
21496,-6.009446,-0.802058,-5.288792,-0.378510,0.199047,0.102188
21511,-5.896919,-0.682347,-5.319916,-0.400626,0.209040,0.109383
21526,-5.777209,-0.562637,-5.236119,-0.430070,0.305499,0.174933
21541,-5.686229,-0.201113,-5.391742,-0.417547,0.286314,0.147753
21556,-5.681440,-0.007183,-5.439626,-0.359724,0.189188,0.090464
21571,-5.669469,0.227449,-5.418078,-0.324018,0.193718,0.054492
21586,-5.626374,-0.007183,-5.410896,-0.257403,0.182394,0.018519
21601,-5.600038,-0.067038,-5.336676,-0.227959,0.178397,-0.004930
21616,-5.815516,-0.229843,-5.650316,-0.212371,0.161077,-0.012923
21631,-5.513846,-0.428562,-5.518635,-0.212637,0.179995,-0.009726
21646,-5.839458,-0.524330,-5.042189,-0.234887,0.188922,0.002531
21661,-5.908890,0.198719,-5.592855,-0.294175,0.168138,0.065150
21676,-5.351041,-0.079009,-5.597643,-0.238351,0.183593,0.053692
21691,-5.252879,-0.588974,-5.863400,-0.340539,0.181727,0.124838
21706,-5.650316,0.335188,-5.853823,-0.199847,0.175599,0.059021
21721,-5.640739,0.184354,-5.442020,-0.194384,0.191720,0.057956
21736,-5.537788,0.565032,-5.743690,-0.214236,0.178263,0.095127
21751,-5.432444,0.292093,-5.616797,-0.121240,0.203311,0.051427
21766,-5.307945,-0.351948,-6.114791,-0.200380,0.173600,0.115245
21781,-5.817910,0.043096,-5.396531,-0.105786,0.219165,0.066482
21796,-5.456386,0.509965,-5.638345,-0.195583,0.223828,0.149086
21811,-5.485116,-0.081403,-5.736507,-0.227959,0.257403,0.204510
21826,-5.410896,0.002394,-5.791574,-0.260734,0.259801,0.260201
21841,-5.322310,0.093374,-5.762844,-0.258202,0.284848,0.283783
21856,-4.824317,0.351948,-5.822699,-0.244346,0.258868,0.282850
21871,-4.742914,0.802058,-5.707777,-0.182660,0.241015,0.225827
21886,-4.716577,0.833182,-5.664681,-0.090997,0.143623,0.134031
21901,-4.912902,0.553061,-5.710171,-0.033974,0.101655,0.070746
21916,-5.006276,0.205901,-5.815516,-0.037438,0.059421,0.051161
21931,-4.879383,0.196325,-5.717353,-0.047697,0.008260,0.047164
21946,-5.066131,0.126893,-5.784391,-0.071412,-0.026113,0.050761
21961,-5.106832,0.160412,-5.892130,-0.094861,-0.052626,0.080605
21976,-5.027823,0.294487,-5.872977,-0.113380,-0.070479,0.101123
21991,-4.929661,0.612916,-5.894525,-0.090997,-0.096459,0.097925
22006,-5.097255,0.857124,-5.729324,-0.044632,-0.128302,0.060620
22021,-5.118803,1.067814,-5.643133,0.057689,-0.170802,-0.030377
22036,-5.157110,0.924162,-5.861006,0.137095,-0.181994,-0.107784
22051,-5.085284,0.632069,-5.738902,0.187590,-0.205443,-0.164274
22066,-5.295974,0.169988,-5.700594,0.179596,-0.208907,-0.166539
22081,-5.492299,-0.141258,-5.659893,0.135363,-0.206508,-0.135896
22096,-5.312734,-0.019154,-5.712565,0.090331,-0.206508,-0.111115
22111,-5.135562,0.186748,-5.705382,0.073410,-0.217700,-0.111248
22126,-5.339070,-0.035913,-5.643133,0.048230,-0.249542,-0.104187
22141,-5.497087,-0.086191,-5.621585,0.029044,-0.265130,-0.076075
22156,-5.319916,0.007183,-5.667075,0.021583,-0.279119,-0.043567
22171,-5.104438,0.162806,-5.702988,0.041435,-0.321087,-0.021583
22186,-4.948815,1.096544,-5.805939,0.165074,-0.346668,-0.032508
22201,-5.408502,1.343147,-6.038177,0.326283,-0.316158,-0.175199
22216,-5.456386,0.512359,-6.088455,0.450188,-0.304567,-0.294308
22231,-5.549759,1.089362,-5.281609,0.596077,-0.399028,-0.356394
22246,-6.090849,0.881066,-5.171475,0.615662,-0.335476,-0.363588
22261,-6.488286,-0.081403,-5.317522,0.631783,-0.345868,-0.388636
22276,-6.689399,-0.881066,-4.750096,0.550245,-0.152017,-0.319089
22291,-6.418855,-1.381454,-5.046977,0.346534,-0.105519,-0.181861
22306,-6.169858,-1.845930,-5.058948,0.172401,-0.016387,-0.060487
22321,-6.251261,-1.972822,-5.336676,-0.003997,0.031443,0.047430
22336,-6.062119,-0.952892,-5.190629,-0.100323,0.032508,0.092862
22351,-5.853823,-0.519542,-5.386954,-0.147487,0.053959,0.059821
22366,-5.825093,-0.395043,-5.453991,-0.156680,0.039436,0.013323
22381,-5.954380,-0.390255,-5.336676,-0.147753,0.069413,-0.035839
22396,-5.887342,-0.696713,-5.391742,-0.159877,0.076075,-0.036106
22411,-5.719748,-0.718261,-5.372589,-0.192919,0.099257,0.002665
22426,-5.722142,-0.495600,-5.348647,-0.218766,0.103521,0.038770
22441,-5.669469,-0.213084,-5.422867,-0.204110,0.102588,0.036639
22456,-5.808333,-0.117316,-5.346252,-0.171602,0.084202,0.011991
22471,-5.655104,-0.086191,-5.336676,-0.140559,0.081937,-0.007727
22486,-5.726930,-0.239420,-5.315128,-0.133231,0.064351,-0.018519
22501,-5.770026,-0.354342,-5.511452,-0.133764,0.087799,-0.012790
22516,-5.928043,-0.495600,-5.588067,-0.157879,0.121640,0.021317
22531,-5.734113,-0.538695,-5.408502,-0.205443,0.117910,0.062619
22546,-5.540183,-0.160412,-5.255273,-0.194651,0.189588,0.063685
22561,-6.124368,-0.193930,-5.248090,-0.245012,0.206242,0.123639
22576,-5.717353,-0.555455,-5.444415,-0.281784,0.164008,0.177331
22591,-5.595249,0.110133,-5.420473,-0.264597,0.221564,0.126170
22606,-5.724536,-0.586579,-5.195417,-0.285115,0.053426,0.159211
22621,-5.087678,0.287304,-5.533000,-0.188789,0.154681,0.103121
22636,-5.430049,-0.292093,-5.743690,-0.208907,0.061553,0.089265
22651,-4.340688,0.107739,-5.956774,-0.150818,0.056490,0.014256
22666,-5.612009,-0.074220,-5.621585,-0.172401,0.088066,0.084069
22681,-3.665523,-0.256180,-7.242460,-0.203311,0.225427,0.085801
22696,-5.901707,0.366313,-5.980716,0.019585,-0.064750,-0.044899
22711,-5.449203,0.373495,-5.082890,-0.065283,-0.003331,0.079939
22726,-5.018247,0.483629,-5.157110,-0.022783,-0.051294,0.043034
22741,-6.256049,0.512359,-5.140351,-0.010392,0.000933,0.077674
22756,-5.741296,0.794875,-5.284003,0.016254,-0.022516,0.071412
22771,-5.999869,0.708684,-5.070919,0.087000,-0.044233,0.029178
22786,-5.626374,0.675165,-5.078102,0.124305,-0.084602,-0.015455
22801,-6.138733,0.459687,-5.020641,0.157080,-0.081271,-0.064351
22816,-6.143521,0.110133,-5.090073,0.148553,-0.102455,-0.088066
22831,-5.808333,-0.265756,-5.382165,0.093129,-0.078074,-0.078207
22846,-5.640739,-0.244209,-5.473145,0.058755,-0.078606,-0.064617
22861,-5.729324,-0.191536,-5.607220,0.030377,-0.073544,-0.035972
22876,-5.655104,-0.023942,-5.482722,0.033175,-0.076208,-0.015455
22891,-5.521029,0.287304,-5.389348,0.056224,-0.081804,-0.023982
22906,-5.513846,0.292093,-5.590461,0.109116,-0.084069,-0.045032
22921,-5.487510,0.270545,-5.434838,0.163608,-0.105119,-0.072345
22936,-5.702988,0.047884,-5.461174,0.201845,-0.124971,-0.091663
22951,-5.573701,0.026336,-5.382165,0.215835,-0.140159,-0.104587
22966,-5.590461,0.114922,-5.370194,0.238884,-0.182127,-0.131366
22981,-5.758055,0.119710,-5.439626,0.272058,-0.197449,-0.188256
22996,-5.839458,-0.210690,-5.367800,0.305100,-0.217567,-0.222763
23011,-5.822699,-0.304064,-5.171475,0.317357,-0.223296,-0.245945
23026,-5.758055,-0.459687,-5.329493,0.313093,-0.235420,-0.253539
23041,-5.923255,-0.761356,-5.248090,0.295640,-0.213570,-0.241948
23056,-6.057330,-1.007959,-5.238513,0.261799,-0.186657,-0.199847
23071,-5.978322,-0.964863,-5.341464,0.215568,-0.160410,-0.154548
23086,-5.904101,-1.036689,-5.310339,0.173201,-0.130034,-0.107518
23101,-5.930438,-1.106121,-5.159504,0.122839,-0.100323,-0.064750
23116,-6.141127,-1.082179,-5.212177,0.076608,-0.078873,-0.034107
23131,-6.035782,-1.000776,-5.288792,0.038637,-0.045565,-0.006528
23146,-5.944803,-0.864307,-5.099649,0.004397,-0.033708,0.006928
23161,-6.100426,-0.852336,-5.178658,0.008527,-0.033974,-0.012257
23176,-6.033388,-0.974440,-5.209783,-0.040636,-0.020784,-0.001332
23191,-6.102820,-0.895431,-5.152322,-0.064351,0.000533,0.005995
23206,-5.956774,-0.873884,-5.209783,-0.093129,-0.004530,0.019052
23221,-5.913678,-0.919373,-5.137957,-0.110582,0.019718,0.034507
23236,-6.198588,-0.758962,-5.171475,-0.126836,0.022250,0.037704
23251,-6.169858,-0.684742,-5.159504,-0.134963,0.053426,0.035573
23266,-6.052542,-0.672771,-5.233725,-0.133231,0.088332,0.038637
23281,-5.951985,-0.742203,-5.291186,-0.142025,0.105652,0.044100
23296,-6.033388,-0.852336,-5.181052,-0.164141,0.114845,0.055025
23311,-5.999869,-0.938527,-5.221754,-0.198781,0.119908,0.076075
23326,-5.961562,-0.790087,-5.221754,-0.240083,0.143357,0.104054
23341,-6.033388,-0.751779,-5.214571,-0.278587,0.190121,0.145755
23356,-6.107608,-0.713472,-5.252879,-0.330413,0.218499,0.190521
23371,-6.107608,-0.543484,-5.322310,-0.343070,0.229557,0.197848
23386,-5.770026,-0.316035,-5.305551,-0.346002,0.225161,0.188789
23401,-5.760449,-0.287304,-5.372589,-0.341205,0.260067,0.194917
23416,-5.750873,-0.165200,-5.396531,-0.339873,0.250741,0.176798
23431,-5.851429,-0.100556,-5.353435,-0.310695,0.228891,0.140292
23446,-5.813122,0.014365,-5.487510,-0.287513,0.268194,0.126037
23461,-5.528212,-0.019154,-5.372589,-0.274590,0.256737,0.100856
23476,-5.765238,-0.153229,-5.549759,-0.271126,0.245012,0.082470
23491,-5.693411,-0.174777,-5.552154,-0.271392,0.263132,0.084069
23506,-5.561730,-0.122104,-5.451597,-0.279652,0.258202,0.087666
23521,-5.525817,-0.052672,-5.590461,-0.288979,0.245145,0.092596
23536,-5.477933,0.033519,-5.449203,-0.288712,0.237818,0.082070
23551,-5.681440,0.067038,-5.614403,-0.304433,0.228358,0.089665
23566,-5.511452,0.167594,-5.616797,-0.292842,0.239150,0.088865
23581,-5.274426,0.155623,-5.578490,-0.280452,0.225560,0.067282
23596,-5.418078,0.189142,-5.489904,-0.270459,0.196783,0.061953
23611,-5.444415,0.234632,-5.489904,-0.269926,0.182260,0.083669
23626,-5.243302,0.256180,-5.552154,-0.271792,0.162276,0.091263
23641,-5.149928,0.471658,-5.612009,-0.295507,0.151617,0.108317
23656,-5.468357,0.507571,-5.528212,-0.206908,0.116977,0.083802
23671,-5.279215,0.739808,-5.628768,-0.204377,0.072744,0.072345
23686,-5.145139,0.708684,-5.758055,-0.211305,0.057956,0.052893
23701,-5.810728,0.746991,-5.664681,-0.121907,0.067149,0.020118
23716,-5.461174,0.818817,-5.724536,-0.101522,0.083403,0.013590
23731,-5.518635,0.531513,-5.607220,-0.054492,0.107384,-0.016654
23746,-5.166687,0.203507,-6.172252,-0.109383,0.097525,0.048896
23761,-5.212177,0.588974,-5.755661,-0.064084,0.095394,0.038237
23776,-5.001487,0.339977,-5.930438,-0.106851,0.073277,0.075809
23791,-5.214571,0.715866,-5.887342,-0.044766,0.028245,0.056890
23806,-5.049371,0.627281,-5.506664,-0.029044,-0.017054,0.054225
23821,-5.073313,0.450110,-5.655104,-0.021450,-0.084602,0.060887
23836,-5.066131,0.378284,-5.681440,-0.028378,-0.134564,0.080738
23851,-5.315128,0.373495,-5.758055,-0.039969,-0.176265,0.094328
23866,-5.322310,0.572214,-5.652710,-0.045965,-0.193052,0.106052
23881,-5.245696,0.725443,-5.571307,-0.022250,-0.228492,0.097659
23896,-5.348647,0.811634,-5.674258,0.027979,-0.233421,0.054891
23911,-5.590461,0.725443,-5.734113,0.063551,-0.212770,0.018919
23926,-5.449203,0.531513,-5.872977,0.119508,-0.228625,-0.002931
23941,-5.561730,-0.608127,-5.389348,-0.002931,-0.176798,0.099923
23956,-5.367800,0.723049,-5.691017,-0.055557,-0.206242,0.102455
23971,-5.463568,0.758962,-5.492299,0.044766,-0.177064,0.025447
23986,-5.406107,0.644040,-5.432444,0.017853,-0.250741,0.023982
24001,-5.659893,0.337582,-5.691017,0.083136,-0.236352,-0.020251
24016,-5.940014,-0.067038,-5.413290,0.043700,-0.198781,0.015055
24031,-5.858612,0.093374,-5.305551,-0.079806,-0.150685,0.092596
24046,-5.856217,0.529119,-5.588067,-0.042767,-0.122706,0.070613
24061,-5.377377,0.905008,-5.444415,-0.015988,-0.140026,0.072478
24076,-5.865794,0.670376,-5.497087,0.100723,-0.166406,0.029044
24091,-6.177040,-0.035913,-5.190629,-0.049962,-0.061420,0.072877
24106,-6.193799,0.974440,-5.470751,-0.052626,-0.033041,0.064351
24121,-5.772420,0.797269,-5.295974,0.046897,-0.028245,-0.021317
24136,-5.700594,0.430956,-5.406107,0.014922,-0.024515,-0.008527
24151,-5.889736,0.459687,-5.398925,0.011325,-0.009992,-0.007328
24166,-5.784391,0.440533,-5.442020,0.009459,-0.008260,-0.004397
24181,-5.729324,0.584185,-5.305551,0.012657,-0.000133,-0.018386
24196,-5.827487,0.488417,-5.355829,0.015188,0.027179,-0.025714
24211,-5.944803,0.375890,-5.401319,0.009726,0.039969,-0.031709
24226,-5.908890,0.421380,-5.358223,-0.001599,0.052360,-0.028778
24241,-5.770026,0.500388,-5.353435,0.005329,0.067149,-0.028778
24256,-5.643133,0.414197,-5.384560,0.004663,0.071945,-0.028112
24271,-5.772420,0.328006,-5.403713,0.001599,0.072744,-0.029311
24286,-5.841852,0.409408,-5.386954,0.001998,0.102322,-0.030377
24301,-5.865794,0.354342,-5.382165,-0.014123,0.116977,-0.023315
24316,-5.901707,0.368707,-5.518635,-0.020384,0.155081,-0.019319
24331,-6.038177,0.371101,-5.513846,-0.040103,0.181061,0.007461
24346,-5.889736,0.359130,-5.398925,-0.046364,0.203044,0.030776
24361,-5.679046,0.574608,-5.513846,-0.039037,0.205842,0.046764
24376,-5.453991,0.577003,-5.453991,-0.016121,0.206375,0.043833
24391,-5.432444,0.497994,-5.592855,0.003331,0.191453,0.045299
24406,-5.449203,0.313640,-5.444415,0.003064,0.154948,0.051161
24421,-5.497087,0.260968,-5.470751,-0.017320,0.131233,0.069813
24436,-5.489904,0.284910,-5.616797,-0.041701,0.139360,0.083270
24451,-5.523423,0.138864,-5.576096,-0.071412,0.129368,0.103920
24466,-5.571307,0.399832,-5.540183,-0.089132,0.122306,0.105386
24481,-5.547365,0.387861,-5.547365,-0.099524,0.133764,0.101922
24496,-5.403713,0.474052,-5.695806,-0.099657,0.137495,0.096992
24511,-5.365406,0.457293,-5.566519,-0.095793,0.116311,0.092596
24526,-5.401319,0.600945,-5.554548,-0.090198,0.107917,0.081671
24541,-5.319916,0.610521,-5.564125,-0.059421,0.095926,0.055557
24556,-5.190629,0.773327,-5.607220,-0.037571,0.073677,0.030776
24571,-5.415684,0.665588,-5.650316,-0.016254,0.058755,0.001466
24586,-5.434838,0.550666,-5.521029,0.001332,0.051560,-0.026779
24601,-5.461174,0.392649,-5.674258,-0.011325,0.044766,-0.032508
24616,-5.236119,0.428562,-5.619191,-0.027446,0.041302,-0.027046
24631,-5.327099,0.502782,-5.619191,-0.031709,0.018786,-0.025580
24646,-5.365406,0.565032,-5.631162,-0.019185,0.001199,-0.030910
24661,-5.207388,0.622492,-5.612009,-0.008394,-0.033574,-0.032375
24676,-5.207388,0.634463,-5.635951,0.004663,-0.066216,-0.039969
24691,-5.279215,0.462081,-5.612009,0.008926,-0.097525,-0.032375
24706,-5.442020,0.418985,-5.650316,-0.001066,-0.118842,-0.010126
24721,-5.499481,0.567426,-5.497087,0.002132,-0.123505,-0.004796
24736,-5.518635,0.718261,-5.616797,0.028112,-0.120841,-0.010392
24751,-5.537788,0.615310,-5.588067,0.051827,-0.128568,-0.030510
24766,-5.583278,0.517148,-5.626374,0.083669,-0.136962,-0.025314
24781,-5.497087,0.512359,-5.530606,0.085135,-0.136562,-0.005196
24796,-5.487510,0.466869,-5.470751,0.080738,-0.158145,0.019319
24811,-5.439626,0.691924,-5.566519,0.114046,-0.160277,0.013323
24826,-5.664681,0.713472,-5.525817,0.150551,-0.167738,-0.017853
24841,-5.731719,0.615310,-5.513846,0.183859,-0.170003,-0.050894
24856,-5.652710,0.363919,-5.468357,0.212237,-0.172002,-0.081138
24871,-5.652710,0.011971,-5.540183,0.175865,-0.143357,-0.055025
24886,-5.829881,-0.124498,-5.363012,0.125637,-0.124704,-0.009326
24901,-5.702988,-0.023942,-5.477933,0.082870,-0.128701,0.039037
24916,-5.518635,0.208296,-5.434838,0.065816,-0.129900,0.060221
24931,-5.659893,0.397437,-5.351041,0.074210,-0.144023,0.054891
24946,-5.887342,0.320823,-5.489904,0.094594,-0.164541,0.025714
24961,-5.781997,0.189142,-5.401319,0.118842,-0.171602,-0.002132
24976,-5.796362,0.076614,-5.374983,0.105386,-0.157746,0.000400
24991,-5.923255,0.172383,-5.262455,0.087266,-0.138694,-0.010792
25006,-6.114791,-0.093374,-5.446809,0.070879,-0.103254,-0.015455
25021,-6.028600,-0.186748,-5.410896,0.031309,-0.065017,0.013723
25036,-5.892130,-0.100556,-5.367800,-0.007061,-0.047031,0.038104
25051,-5.834670,0.035913,-5.281609,-0.033841,-0.033441,0.050361
25066,-5.889736,0.177171,-5.303157,-0.037838,-0.020384,0.053959
25081,-5.865794,0.253785,-5.286397,-0.030110,-0.030776,0.045698
25096,-5.758055,0.390255,-5.401319,-0.016920,-0.042634,0.028645
25111,-5.781997,0.328006,-5.257667,0.004930,-0.061686,0.009060
25126,-5.925649,0.241814,-5.221754,0.020518,-0.079539,-0.018119
25141,-5.975927,0.088585,-5.252879,0.015322,-0.082737,-0.021983
25156,-5.861006,0.114922,-5.358223,0.003198,-0.067149,-0.020784
25171,-6.066907,0.095768,-5.310339,-0.014123,-0.035839,-0.029577
25186,-6.136339,-0.148441,-5.413290,-0.043167,-0.010525,-0.015855
25201,-6.052542,-0.126893,-5.212177,-0.078340,0.005596,0.009859
25216,-5.887342,0.071826,-5.238513,-0.104587,0.003064,0.035573
25231,-5.717353,0.280122,-5.176264,-0.095394,-0.011191,0.033441
25246,-5.822699,0.407014,-5.248090,-0.076208,-0.032908,0.017720
25261,-5.940014,0.323217,-5.212177,-0.059688,-0.040502,0.005329
25276,-5.916072,0.342371,-5.250484,-0.037172,-0.058755,-0.014655
25291,-5.911284,0.215478,-5.219359,-0.021317,-0.041568,-0.022383
25306,-6.131550,0.028730,-5.284003,-0.028645,-0.031043,0.004663
25321,-6.143521,0.186748,-5.236119,-0.031842,-0.010126,0.019851
25336,-5.985504,0.375890,-5.147533,-0.011591,-0.006395,0.011858
25351,-5.643133,0.220267,-5.676652,0.033574,-0.010525,-0.012790
25366,-5.925649,0.246603,-5.193023,0.058222,0.011591,-0.031709
25381,-5.973533,-0.050278,-5.209783,0.040369,-0.010126,-0.021450
25396,-5.844246,-0.114922,-5.159504,0.019452,-0.018519,-0.000666
25411,-5.956774,0.011971,-5.171475,-0.012524,-0.025447,0.014389
25426,-5.973533,0.007183,-5.293580,-0.025847,-0.001332,0.014389
25441,-6.074090,0.043096,-5.260061,-0.046764,0.008127,0.010525
25456,-5.963956,-0.019154,-5.307945,-0.063818,0.025580,0.021184
25471,-5.932832,-0.011971,-5.224148,-0.094727,0.031975,0.045965
25486,-6.030994,0.076614,-5.190629,-0.099923,0.053159,0.057689
25501,-6.074090,0.213084,-5.195417,-0.108317,0.053959,0.063685
25516,-5.916072,0.289698,-5.238513,-0.092596,0.047830,0.045698
25531,-5.832275,0.248997,-5.245696,-0.087933,0.049162,0.040769
25546,-5.906496,0.193930,-5.219359,-0.089265,0.037438,0.036905
25561,-6.019023,0.320823,-5.176264,-0.085401,0.019319,0.030377
25576,-5.975927,0.452504,-5.195417,-0.063018,0.028511,0.014789
25591,-5.846641,0.433351,-5.214571,-0.041302,0.021184,0.013323
25606,-5.880159,0.284910,-5.293580,-0.021850,0.017853,0.007194
25621,-5.892130,0.292093,-5.272032,-0.013190,0.004663,0.017720
25636,-5.966351,0.347159,-5.252879,0.000133,0.003997,0.023182
25651,-5.779603,0.395043,-5.149928,0.014256,-0.001199,0.023315
25666,-5.940014,0.514753,-5.161899,0.037172,-0.004530,-0.001066
25681,-6.090849,0.220267,-5.262455,0.038237,0.015988,-0.015055
25696,-6.071695,0.026336,-5.185841,0.024781,0.035706,-0.002798
25711,-5.923255,-0.007183,-5.300763,-0.009992,0.050894,0.027312
25726,-5.899313,0.126893,-5.219359,-0.040236,0.070213,0.057956
25741,-5.791574,0.210690,-5.221754,-0.038504,0.057556,0.052760
25756,-5.803545,0.239420,-5.267244,-0.026513,0.037438,0.040502
25771,-5.829881,0.196325,-5.212177,-0.025847,0.031309,0.024515
25786,-6.021417,0.088585,-5.248090,-0.036905,0.030243,0.017054
25801,-6.057330,0.217872,-5.224148,-0.054092,0.038237,0.022649
25816,-5.928043,0.232238,-5.173870,-0.067548,0.047031,0.021051
25831,-5.990293,0.308852,-5.291186,-0.065550,0.056757,0.012124
25846,-5.920861,0.342371,-5.317522,-0.050495,0.052227,0.010259
25861,-5.851429,0.407014,-5.264850,-0.032775,0.035040,0.016387
25876,-5.683835,0.579397,-5.195417,-0.000799,0.010925,0.012124
25891,-5.762844,0.514753,-5.219359,0.034773,-0.017853,0.003198
25906,-5.940014,0.275333,-5.281609,0.067415,-0.041168,0.007461
25921,-5.892130,0.495600,-5.374983,0.042368,0.009726,0.037704
25936,-6.030994,0.040701,-5.305551,0.029977,-0.012257,0.032109
25951,-5.966351,-0.014365,-5.250484,0.019052,0.025580,0.025980
25966,-6.224924,-0.112527,-5.238513,-0.012257,0.072211,0.030510
25981,-6.210559,-0.198719,-5.334281,-0.059288,0.124838,0.047430
25996,-6.083666,-0.062249,-5.250484,-0.107251,0.172534,0.078473
26011,-6.121974,-0.043096,-5.315128,-0.156547,0.208907,0.101522
26026,-5.992687,0.260968,-5.231330,-0.177464,0.225161,0.100723
26041,-5.815516,0.541090,-5.291186,-0.159478,0.225827,0.066482
26056,-5.633556,0.557849,-5.303157,-0.123106,0.222763,0.014655
26071,-5.774815,0.253785,-5.453991,-0.129101,0.220631,0.002132
26086,-5.779603,-0.050278,-5.363012,-0.156413,0.225827,0.019185
26101,-5.758055,0.076614,-5.406107,-0.193985,0.211704,0.038770
26116,-5.679046,0.234632,-5.408502,-0.212504,0.213969,0.053959
26131,-5.631162,0.421380,-5.537788,-0.210505,0.226626,0.056090
26146,-5.743690,0.536301,-5.499481,-0.203977,0.251541,0.056357
26161,-5.604826,0.617704,-5.528212,-0.176265,0.277121,0.028378
26176,-5.480328,0.658405,-5.456386,-0.149352,0.271392,0.016254
26191,-5.482722,0.555455,-5.533000,-0.166139,0.244346,0.019052
26206,-5.717353,0.428562,-5.415684,-0.166406,0.236219,0.020118
26221,-5.415684,0.488417,-5.602432,-0.167871,0.201845,0.019851
26236,-5.272032,0.531513,-5.485116,-0.169603,0.175066,0.043567
26251,-5.284003,0.916979,-5.501875,-0.141758,0.116577,0.024648
26266,-5.415684,1.005565,-5.497087,-0.110049,0.098458,-0.000133
26281,-5.578490,0.878672,-5.475539,-0.068747,0.063551,-0.028378
26296,-5.250484,0.948104,-5.389348,-0.036772,0.038504,-0.031309
26311,-5.403713,0.730232,-5.552154,-0.022516,0.041035,-0.036106
26326,-5.475539,0.591368,-5.635951,-0.014655,0.001998,-0.035306
26341,-5.310339,0.562637,-5.669469,-0.024781,-0.039037,-0.021317
26356,-5.135562,0.555455,-5.446809,-0.018386,-0.078207,-0.017853
26371,-5.142745,0.565032,-5.607220,-0.029844,-0.140959,0.006795
26386,-5.295974,0.663194,-5.580884,-0.013989,-0.181994,0.007328
26401,-5.401319,0.708684,-5.600038,-0.003198,-0.239683,0.011858
26416,-5.245696,1.067814,-5.358223,0.028245,-0.260334,0.002398
26431,-5.712565,1.101333,-5.461174,0.089398,-0.269127,-0.042234
26446,-5.882554,1.034295,-5.559336,0.167338,-0.254738,-0.096992
26461,-6.011840,0.732626,-5.473145,0.209706,-0.215968,-0.121907
26476,-5.798757,0.514753,-5.449203,0.223162,-0.202778,-0.117776
26491,-5.659893,0.433351,-5.363012,0.225294,-0.201179,-0.110315
26506,-5.638345,0.471658,-5.243302,0.229957,-0.255005,-0.114312
26521,-5.750873,0.330400,-5.212177,0.230224,-0.302835,-0.093928
26536,-5.894525,0.555455,-5.092467,0.261400,-0.314292,-0.087666
26551,-5.781997,0.672771,-5.367800,0.330147,-0.324152,-0.104054
26566,-6.215347,0.725443,-5.245696,0.348133,-0.356927,-0.137095
26581,-6.339846,0.596156,-5.190629,0.430737,-0.278587,-0.200247
26596,-5.875371,0.320823,-5.240908,0.458449,-0.264864,-0.215435
26611,-6.459556,-1.098939,-4.390966,0.279919,-0.115911,-0.113247
26626,-6.473921,0.854730,-5.446809,0.310029,-0.119642,-0.081804
26641,-5.509058,-0.981623,-4.999093,0.303501,-0.102322,-0.107917
26656,-5.896919,-0.011971,-5.556942,0.326683,-0.189188,-0.087533
26671,-5.315128,-0.648829,-5.351041,0.324418,-0.108051,-0.075009
26686,-5.659893,-0.797269,-5.360618,0.313893,-0.167072,-0.077008
26701,-6.337452,-1.007959,-4.979939,0.223296,-0.080205,-0.030510
26716,-6.540959,-0.969652,-5.006276,0.127636,0.001066,-0.012923
26731,-6.603208,-1.199495,-5.157110,0.001332,0.113380,-0.009726
26746,-6.447585,-1.434127,-4.958392,-0.151217,0.154415,0.037971
26761,-6.426037,-1.321599,-5.070919,-0.305499,0.214369,0.113113
26776,-6.105214,-0.864307,-5.137957,-0.402758,0.188789,0.172934
26791,-6.011840,-0.237026,-5.046977,-0.431669,0.210772,0.223029
26806,-5.901707,0.361524,-5.193023,-0.401692,0.216767,0.202245
26821,-5.856217,0.620098,-5.360618,-0.372914,0.156946,0.132032
26836,-5.999869,0.687136,-5.291186,-0.267129,0.152816,0.037038
26851,-5.765238,0.452504,-5.212177,-0.196383,0.209573,-0.009193
26866,-6.033388,-0.155623,-5.152322,-0.172668,0.166006,-0.015988
26881,-6.172252,-0.160412,-5.346252,-0.219965,0.205576,0.027312
26896,-5.956774,-0.023942,-5.240908,-0.221697,0.202911,0.038504
26911,-5.863400,0.215478,-5.427655,-0.200913,0.224628,0.026247
26926,-5.846641,0.581791,-5.549759,-0.128568,0.258735,-0.009193
26941,-6.191405,-1.647211,-4.984728,-0.273124,0.284848,0.109916
26956,-5.588067,0.519542,-6.011840,-0.350398,0.205443,0.075409
26971,-5.552154,0.229843,-5.248090,-0.234221,0.322686,0.007861
26986,-5.767632,0.023942,-5.437232,-0.295507,0.260067,0.029178
27001,-5.935226,0.093374,-5.542577,-0.307498,0.313360,0.044366
27016,-5.710171,0.344765,-5.468357,-0.332012,0.334410,0.064217
27031,-5.544971,0.409408,-5.530606,-0.314825,0.316424,0.053559
27046,-5.463568,0.497994,-5.525817,-0.281784,0.297905,0.025714
27061,-5.523423,0.588974,-5.693411,-0.253273,0.261533,0.005063
27076,-5.396531,0.648829,-5.583278,-0.218100,0.235020,-0.019185
27091,-5.370194,0.608127,-5.408502,-0.182926,0.216234,-0.031309
27106,-5.386954,0.598550,-5.501875,-0.172002,0.198381,-0.018253
27121,-5.415684,0.830788,-5.717353,-0.216767,0.164807,0.042234
27136,-5.260061,0.584185,-5.609614,-0.163208,0.138960,0.035040
27151,-5.032612,1.115698,-5.561730,-0.116178,0.115511,0.023315
27166,-5.183446,1.003170,-5.674258,-0.038504,0.074743,-0.002665
27181,-5.317522,0.974440,-5.635951,0.028911,0.050495,-0.037838
27196,-5.410896,0.754174,-5.564125,0.074876,0.045165,-0.063685
27211,-5.367800,0.418985,-5.724536,0.078207,0.040902,-0.064084
27226,-5.401319,0.234632,-5.729324,0.049296,0.054358,-0.046364
27241,-5.518635,0.146046,-5.746084,-0.006262,0.060221,-0.012391
27256,-5.463568,0.289698,-5.695806,-0.044366,0.076608,0.013456
27271,-5.288792,0.368707,-5.815516,-0.061686,0.081138,0.024248
27286,-5.178658,0.414197,-5.676652,-0.068214,0.067149,0.026646
27301,-5.226542,0.435745,-5.662287,-0.064484,0.050361,0.025447
27316,-5.281609,0.481235,-5.676652,-0.060354,0.028645,0.024248
27331,-5.164293,0.754174,-5.683835,-0.052626,0.013190,0.012124
27346,-5.360618,0.857124,-5.726930,-0.016521,0.000933,-0.017054
27361,-5.470751,0.469264,-5.710171,0.011058,0.003597,-0.035573
27376,-5.511452,0.596156,-5.662287,0.023182,0.010792,-0.033841
27391,-5.432444,0.541090,-5.801151,0.027979,0.029311,-0.034773
27406,-5.396531,0.435745,-5.688623,0.023982,0.051161,-0.029844
27421,-5.461174,0.339977,-5.702988,0.009326,0.049429,-0.023715
27436,-5.363012,0.208296,-5.731719,-0.019985,0.060487,-0.000666
27451,-5.207388,0.299275,-5.643133,-0.049828,0.054092,0.018119
27466,-5.360618,-0.699107,-5.303157,-0.186124,0.111115,0.090864
27481,-5.224148,1.027112,-5.786786,-0.072478,0.020917,0.039969
27496,-5.116409,1.017536,-5.614403,-0.053426,-0.008926,0.030776
27511,-5.322310,0.857124,-5.726930,0.015322,-0.039969,-0.015055
27526,-5.195417,0.586579,-5.688623,0.043167,-0.042501,-0.027046
27541,-5.413290,0.442927,-5.729324,0.047164,-0.026513,-0.021450
27556,-5.449203,0.378284,-5.679046,0.036772,-0.025314,-0.012524
27571,-5.394136,0.270545,-5.777209,0.014655,-0.022516,0.004796
27586,-5.245696,0.313640,-5.628768,-0.011724,-0.023582,0.008926
27601,-5.451597,0.378284,-5.779603,-0.021184,-0.012923,-0.000400
27616,-5.489904,0.318429,-5.647922,-0.025047,-0.006662,-0.008127
27631,-5.473145,0.433351,-5.714959,-0.024781,-0.001732,-0.014922
27646,-5.442020,0.339977,-5.712565,-0.028511,0.018786,-0.014256
27661,-5.506664,0.241814,-5.849035,-0.049695,0.034374,0.009193
27676,-5.396531,0.282516,-5.770026,-0.066482,0.042767,0.025181
27691,-5.298368,0.447716,-5.698200,-0.067149,0.045299,0.028645
27706,-5.346252,0.447716,-5.681440,-0.066216,0.048629,0.032508
27721,-5.384560,0.433351,-5.669469,-0.076075,0.050495,0.033708
27736,-5.533000,0.481235,-5.743690,-0.090730,0.069280,0.029711
27751,-5.418078,0.447716,-5.717353,-0.095527,0.068881,0.029844
27766,-5.252879,0.481235,-5.784391,-0.094727,0.073810,0.029977
27781,-5.363012,0.399832,-5.777209,-0.110182,0.088599,0.034240
27796,-5.391742,0.447716,-5.717353,-0.113113,0.099391,0.037305
27811,-5.374983,0.411803,-5.758055,-0.134031,0.107251,0.047830
27826,-5.216965,0.407014,-5.758055,-0.149619,0.126969,0.049695
27841,-5.389348,0.486023,-5.791574,-0.182127,0.129767,0.053692
27856,-5.298368,0.304064,-5.810728,-0.186923,0.120974,0.040636
27871,-5.135562,0.624887,-5.827487,-0.179862,0.101922,0.028511
27886,-5.221754,0.593762,-5.944803,-0.177997,0.142158,0.013456
27901,-5.195417,0.533907,-5.858612,-0.185325,0.146421,-0.000266
27916,-5.173870,0.148441,-6.227318,-0.215035,0.124971,-0.011325
27931,-5.116409,0.579397,-5.908890,-0.222629,0.131366,-0.007194
27946,-5.070919,0.545878,-5.803545,-0.230890,0.148819,0.011191
27961,-5.104438,0.507571,-5.722142,-0.261266,0.140159,0.028511
27976,-5.279215,0.675165,-5.770026,-0.259135,0.136429,0.032242
27991,-5.121197,0.854730,-5.746084,-0.237685,0.124438,0.040103
28006,-4.955997,1.261744,-5.875371,-0.208374,0.122440,0.034907
28021,-5.001487,1.130063,-5.904101,-0.197848,0.139360,0.035040
28036,-5.152322,1.189918,-5.789180,-0.159611,0.107118,0.025847
28051,-5.051765,1.134852,-5.758055,-0.110982,0.091530,0.017453
28066,-5.035006,1.074997,-5.686229,-0.103387,0.096726,0.013989
28081,-5.087678,1.367089,-5.841852,-0.047830,0.067149,-0.013723
28096,-5.176264,1.000776,-5.820304,-0.034507,0.071945,-0.018652
28111,-5.008670,0.873884,-5.884948,-0.024515,0.039570,-0.012790
28126,-4.886566,0.828394,-5.817910,-0.036106,0.017986,0.016121
28141,-4.824317,0.981623,-5.731719,-0.037571,-0.016654,0.032908
28156,-4.857835,1.139640,-5.839458,-0.006528,-0.056490,0.020118
28171,-4.879383,1.154005,-5.729324,0.023715,-0.095660,0.010392
28186,-4.946421,1.335965,-5.827487,0.082870,-0.124172,-0.024381
28201,-5.027823,1.103727,-5.774815,0.110582,-0.127502,-0.047031
28216,-5.190629,1.031901,-5.796362,0.135496,-0.140692,-0.063418
28231,-5.193023,1.034295,-5.762844,0.159877,-0.145489,-0.081138
28246,-5.233725,0.847547,-5.753267,0.166672,-0.143623,-0.068614
28261,-5.173870,0.658405,-5.813122,0.147620,-0.123505,-0.026513
28276,-5.106832,0.768539,-5.815516,0.148819,-0.137228,0.004130
28291,-5.142745,0.620098,-5.832275,0.127103,-0.121107,0.057822
28306,-4.876989,0.502782,-5.657498,0.117910,-0.164008,0.100323
28321,-4.922479,0.699107,-5.564125,0.092196,-0.184126,0.150418
