T,AX,AY,AZ,GX,GY,GZ
46,-4.103662,1.108515,-6.339846,0.004930,0.031443,-0.005462
61,-3.933673,1.103727,-6.452374,-0.057156,0.021450,0.013323
76,-4.039018,1.244985,-6.359000,-0.080605,0.000400,0.021051
91,-4.048595,1.407791,-6.428432,-0.061819,-0.003198,0.018253
106,-4.072537,1.300051,-6.387730,-0.021850,-0.010658,0.018519
121,-3.924097,1.139640,-6.414066,-0.025314,-0.005862,0.034907
136,-3.952827,1.244985,-6.325481,-0.031576,0.005596,0.035173
151,-4.182670,1.161188,-6.375759,-0.050361,0.022383,0.033441
166,-4.197035,1.216254,-6.402095,-0.072478,0.029977,0.034507
181,-4.017470,1.529895,-6.373365,-0.056490,0.027979,0.006262
196,-4.017470,1.458069,-6.454768,-0.026247,0.016254,-0.014123
211,-4.074931,1.230620,-6.404490,-0.015055,0.003597,-0.017453
226,-4.175488,1.285686,-6.382942,-0.010525,-0.001066,-0.008127
241,-4.177882,1.338359,-6.363788,0.009459,0.006395,-0.008394
256,-4.122815,1.173159,-6.445191,0.004130,-0.002398,0.002665
271,-4.120421,1.165976,-6.356606,-0.009326,0.000666,0.009459
286,-4.094085,1.163582,-6.337452,-0.026380,-0.007328,0.014789
301,-3.859453,1.211466,-6.428432,-0.059688,-0.004663,0.020784
316,-3.912126,1.292869,-6.327875,-0.062219,-0.007861,0.021983
331,-4.091691,1.501164,-6.411672,-0.044632,0.000666,0.015721
346,-4.161122,1.398214,-6.301539,0.003331,0.013856,-0.012524
361,-4.029441,1.323994,-6.339846,0.009992,0.022916,-0.022783
376,-4.000711,1.235408,-6.414066,0.006129,0.017187,-0.024648
391,-4.082114,1.084573,-6.378153,-0.032508,0.010392,-0.008926
406,-4.029441,1.094150,-6.406884,-0.070080,0.003997,0.010658
421,-4.019865,1.204283,-6.270414,-0.091263,-0.000799,0.023582
436,-4.017470,1.252167,-6.318298,-0.071145,-0.003331,0.034907
451,-4.170699,1.343147,-6.299145,-0.045565,0.001466,0.037038
466,-4.118027,1.381454,-6.179434,-0.015721,0.012391,0.029577
481,-4.031836,1.412579,-6.284780,0.017320,0.024248,0.006928
496,-3.991134,1.240196,-6.344635,0.025714,0.038104,-0.005462
511,-4.101267,1.017536,-6.337452,-0.012790,0.049029,0.004663
526,-4.034230,1.142034,-6.471527,-0.049695,0.037038,0.016121
541,-3.919308,1.371878,-6.519411,-0.057822,0.002798,0.020917
556,-4.041412,1.331176,-6.442797,-0.035839,-0.006129,0.016121
571,-4.197035,1.335965,-6.337452,-0.016521,-0.000533,0.024381
586,-4.256891,1.438915,-6.311116,0.016920,0.018919,0.012124
601,-4.122815,1.280898,-6.330269,0.029044,0.041302,-0.003730
616,-3.964798,1.259350,-6.430826,-0.001066,0.044499,0.000400
631,-4.027047,1.137246,-6.533776,-0.050894,0.024381,0.010392
646,-4.134786,1.189918,-6.426037,-0.109783,0.001066,0.018386
661,-4.094085,1.448492,-6.440403,-0.113113,0.004263,0.002132
676,-3.981557,1.587356,-6.406884,-0.041435,0.001332,-0.033841
691,-4.149151,1.333570,-6.359000,0.015188,0.001998,-0.051694
706,-4.220977,1.120486,-6.507440,0.020384,-0.004930,-0.036505
721,-4.000711,1.101333,-6.490681,0.003997,-0.010392,0.003064
736,-3.986346,1.070208,-6.447585,-0.036905,0.003597,0.035173
751,-4.151546,1.175553,-6.459556,-0.068348,0.025181,0.045965
766,-4.098873,1.122881,-6.392519,-0.106718,0.034773,0.048096
781,-3.983952,1.316811,-6.325481,-0.121640,0.025980,0.032109
796,-3.914520,1.345541,-6.435614,-0.114046,0.021583,0.023449
811,-4.192247,1.563414,-6.366182,-0.060221,0.011858,-0.001998
826,-4.280833,1.513135,-6.433220,0.013590,0.009859,-0.040902
841,-4.060566,1.197101,-6.507440,0.023182,0.011325,-0.039170
856,-3.962404,1.029507,-6.430826,-0.031709,0.019052,-0.010658
871,-4.067749,1.211466,-6.327875,-0.074609,0.019851,0.013323
886,-4.086902,1.364695,-6.318298,-0.063418,0.005063,0.014123
901,-4.113238,1.455675,-6.421249,-0.020384,0.007994,0.001998
916,-4.060566,1.276109,-6.435614,-0.014655,0.003730,0.008793
931,-4.199430,1.403002,-6.411672,-0.025447,0.011325,0.013323
946,-4.144363,1.493982,-6.370971,-0.007994,0.025314,-0.011458
961,-4.118027,1.424550,-6.347029,0.011325,0.034240,-0.039703
976,-3.943250,1.292869,-6.378153,0.001732,0.020384,-0.048496
991,-4.072537,1.163582,-6.414066,-0.018919,-0.003198,-0.034107
1006,-4.110844,0.986411,-6.387730,-0.087400,-0.016521,0.003730
1021,-4.036624,1.175553,-6.363788,-0.127902,0.012657,0.028911
1036,-4.151546,1.400608,-6.282385,-0.114979,0.019452,0.021583
1051,-4.137180,1.575385,-6.268020,-0.041701,0.038104,-0.016787
1066,-4.062960,1.668759,-6.277597,0.038104,0.034640,-0.059021
1081,-3.986346,1.369483,-6.351817,0.079139,0.020384,-0.073277
1096,-4.048595,0.986411,-6.533776,0.040902,-0.003597,-0.051427
1111,-4.106056,0.806846,-6.548141,-0.046897,-0.024115,0.002265
1126,-3.969586,1.233014,-6.514623,-0.107118,-0.000933,0.035306
1141,-4.077325,1.613692,-6.279991,-0.085801,-0.024515,0.027845
1156,-4.259285,1.577779,-6.306327,-0.011991,-0.023582,-0.009060
1171,-4.268862,1.338359,-6.260838,0.015188,-0.002931,-0.030643
1186,-4.144363,1.273715,-6.325481,0.014655,0.031176,-0.045832
1201,-3.981557,1.244985,-6.457162,0.005329,0.042900,-0.051960
1216,-4.036624,1.292869,-6.416461,0.003198,0.039037,-0.066749
1231,-4.029441,1.055843,-6.380548,-0.011858,0.007461,-0.068614
1246,-3.995923,1.000776,-6.406884,-0.061553,-0.015721,-0.037704
1261,-4.161122,1.024718,-6.411672,-0.069813,0.028645,-0.000666
1276,-4.158728,1.010353,-6.342240,-0.081005,0.043567,0.022649
1291,-4.005499,1.192312,-6.210559,-0.071812,0.041835,0.038504
1306,-3.897760,1.302446,-6.155492,-0.048763,0.017587,0.010126
1321,-4.091691,1.458069,-6.157887,0.020651,0.088066,-0.045565
1336,-3.895366,1.120486,-6.138733,0.051028,0.064884,-0.077141
1351,-3.873818,1.003170,-6.294356,0.023449,0.048496,-0.069813
1366,-3.749320,0.885855,-6.387730,-0.004130,0.002665,-0.046498
1381,-3.919308,0.816423,-6.435614,-0.069946,-0.043300,0.001998
1396,-4.285621,0.890643,-6.339846,-0.088865,-0.007328,0.045565
1411,-4.369418,1.218649,-6.299145,-0.083802,0.037571,0.059288
1426,-4.096479,1.553837,-6.177040,-0.002531,0.063685,0.027712
1441,-3.938462,1.458069,-6.382942,0.064884,0.066616,-0.009859
1456,-3.945644,1.072602,-6.332664,0.065550,0.075276,-0.006928
1471,-4.046201,0.842759,-6.402095,-0.009859,0.037172,0.032508
1486,-3.964798,1.089362,-6.449979,-0.086467,0.023315,0.072478
1501,-4.161122,1.407791,-6.308722,-0.100989,0.023049,0.068881
1516,-4.283227,1.618480,-6.493075,-0.022649,0.040636,0.027579
1531,-4.230554,1.419762,-6.399701,0.018253,0.045432,0.004530
1546,-4.012682,1.400608,-6.416461,0.035440,0.048629,-0.004530
1561,-4.005499,1.345541,-6.545747,0.035306,0.035706,-0.006262
1576,-4.079720,1.194707,-6.378153,0.027046,0.043567,-0.004263
1591,-4.168305,1.185130,-6.509834,0.006262,0.056090,-0.008660
1606,-3.995923,1.089362,-6.548141,-0.062619,0.059688,-0.004530
1621,-3.854665,1.192312,-6.488286,-0.105786,0.039703,0.008260
1636,-4.003105,1.599327,-6.495469,-0.069813,0.003198,-0.007727
1651,-4.158728,1.386243,-6.459556,-0.000533,-0.014389,-0.032375
1666,-4.072537,1.077391,-6.449979,0.014655,-0.021717,-0.025314
1681,-4.077325,0.957681,-6.452374,-0.022649,0.009193,-0.001199
1696,-4.091691,1.012747,-6.385336,-0.068614,0.014256,0.034107
1711,-4.055778,1.101333,-6.428432,-0.098191,-0.000266,0.048896
1726,-4.010288,1.335965,-6.397307,-0.096726,0.011991,0.034640
1741,-3.888184,1.474828,-6.318298,-0.063951,0.005862,0.010525
1756,-3.998317,1.292869,-6.303933,-0.029178,-0.006662,-0.000533
1771,-4.158728,0.991199,-6.306327,-0.053292,0.009726,0.007461
1786,-4.082114,1.115698,-6.390124,-0.064484,0.029844,0.024515
1801,-3.897760,1.297657,-6.380548,-0.057156,0.029711,0.026913
1816,-3.983952,1.331176,-6.402095,-0.029444,0.023848,0.013989
1831,-4.000711,1.206678,-6.327875,-0.015855,0.015855,0.007727
1846,-3.971981,1.161188,-6.473921,-0.030377,0.001599,0.018786
1861,-3.974375,1.067814,-6.327875,-0.059954,0.008793,0.037172
1876,-4.019865,1.244985,-6.315904,-0.075942,0.023315,0.046631
1891,-4.062960,1.197101,-6.378153,-0.075009,0.026247,0.045565
1906,-3.931279,1.302446,-6.454768,-0.072744,0.032908,0.039037
1921,-3.876213,1.273715,-6.373365,-0.076475,0.018253,0.037838
1936,-4.029441,1.431733,-6.351817,-0.060087,0.010525,0.029844
1951,-4.141969,1.295263,-6.378153,-0.030377,0.007461,0.016521
1966,-4.065354,1.283292,-6.440403,-0.019851,0.016787,0.012657
1981,-4.060566,1.228225,-6.481104,-0.037438,0.018119,0.030243
1996,-4.019865,1.228225,-6.409278,-0.060887,0.021717,0.040369
2011,-4.065354,1.254562,-6.438008,-0.060354,0.018786,0.034907
2026,-3.895366,1.343147,-6.332664,-0.053692,0.020384,0.029711
2041,-3.950433,1.412579,-6.301539,-0.038904,0.022649,0.018519
2056,-4.120421,1.381454,-6.394913,-0.013057,0.033841,-0.000666
2071,-4.108450,1.343147,-6.481104,-0.003730,0.025181,-0.012391
2086,-3.981557,1.350330,-6.603208,-0.007328,0.014922,-0.012124
2101,-3.988740,1.261744,-6.545747,-0.012923,-0.006129,-0.010259
2116,-4.094085,1.173159,-6.497863,-0.030510,-0.007194,0.001732
2131,-4.170699,1.204283,-6.454768,-0.041701,-0.004397,0.008527
2146,-4.106056,1.170765,-6.368577,-0.051427,0.000933,0.018519
2161,-3.969586,1.288080,-6.459556,-0.063285,0.001332,0.027845
2176,-4.058172,1.225831,-6.445191,-0.065550,-0.017453,0.039436
2191,-4.144363,1.285686,-6.414066,-0.063951,-0.032109,0.046231
2206,-4.003105,1.216254,-6.404490,-0.070213,-0.026380,0.052360
2221,-3.988740,1.276109,-6.246472,-0.080605,-0.015588,0.065017
2236,-3.986346,1.422156,-6.366182,-0.074343,0.006528,0.063418
2251,-4.082114,1.309628,-6.402095,-0.084335,0.025980,0.060620
2266,-3.981557,1.558625,-6.449979,-0.063951,0.020118,0.034773
2281,-3.904943,1.505953,-6.411672,-0.051560,0.003198,0.012790
2296,-3.983952,1.395820,-6.359000,-0.039303,-0.023449,0.006795
2311,-4.161122,1.283292,-6.268020,-0.037571,-0.025847,0.016787
2326,-4.134786,1.297657,-6.234501,-0.040236,-0.002398,0.026247
2341,-4.067749,1.460463,-6.229712,-0.024248,0.047963,0.009593
2356,-4.003105,1.414973,-6.313510,0.003064,0.069547,-0.011458
2371,-3.993528,1.309628,-6.409278,-0.000799,0.066482,-0.017054
2386,-3.885789,1.218649,-6.272809,-0.039170,0.024515,-0.005862
2401,-3.926491,1.256956,-6.294356,-0.061953,0.004930,0.013456
2416,-4.098873,1.268927,-6.181828,-0.064884,0.010525,0.035040
2431,-4.118027,1.407791,-6.076484,-0.033308,0.043966,0.044766
2446,-4.019865,1.498770,-6.124368,-0.012391,0.049429,0.040769
2461,-3.902549,1.474828,-6.227318,-0.029178,0.054625,0.042634
2476,-3.897760,1.470040,-6.320693,-0.046498,0.051294,0.033708
2491,-4.079720,1.529895,-6.315904,-0.054492,0.057689,0.011858
2506,-4.027047,1.474828,-6.366182,-0.060753,0.066216,-0.004130
2521,-4.036624,1.592144,-6.454768,-0.063418,0.042101,-0.015988
2536,-4.062960,1.486799,-6.500257,-0.042234,0.028112,-0.016654
2551,-4.165911,1.300051,-6.481104,-0.023715,0.024248,0.005462
2566,-4.039018,1.400608,-6.464345,-0.018386,0.034107,0.017720
2581,-3.924097,1.400608,-6.572083,-0.023049,0.042234,0.024648
2596,-4.050989,1.362301,-6.617573,-0.052093,0.054358,0.014922
2611,-4.118027,1.520318,-6.382942,-0.067282,0.050628,0.002531
2626,-4.067749,1.671153,-6.430826,-0.033175,0.037704,-0.033175
2641,-3.945644,1.505953,-6.402095,-0.004130,0.025047,-0.052760
2656,-4.050989,1.273715,-6.660669,-0.008394,0.012257,-0.037704
2671,-4.189853,1.113304,-6.631938,-0.026513,0.024248,-0.009726
2686,-4.027047,1.335965,-6.540959,-0.029977,0.028911,0.005329
2701,-3.904943,1.505953,-6.557718,-0.011458,0.023715,0.002531
2716,-3.890578,1.443704,-6.466739,-0.004263,0.022116,-0.009859
2731,-3.969586,1.398214,-6.478710,-0.009593,0.020118,-0.020917
2746,-3.967192,1.319205,-6.459556,-0.025047,0.012790,-0.017187
2761,-3.878607,1.300051,-6.464345,-0.060887,0.010925,-0.016787
2776,-3.955221,1.362301,-6.449979,-0.099790,-0.006662,-0.005862
2791,-4.079720,1.419762,-6.447585,-0.081138,-0.015322,-0.017320
2806,-4.015076,1.587356,-6.418855,-0.037438,-0.023848,-0.028245
2821,-3.976769,1.407791,-6.421249,-0.000799,-0.031043,-0.033175
2836,-4.062960,1.149217,-6.347029,0.002665,-0.011591,-0.007861
2851,-4.031836,1.003170,-6.272809,-0.045965,0.000533,0.031043
2866,-3.924097,1.165976,-6.234501,-0.085401,0.025847,0.067015
2881,-3.842694,1.395820,-6.339846,-0.097259,0.002132,0.076874
2896,-3.871424,1.508347,-6.311116,-0.077940,-0.013723,0.063018
2911,-3.955221,1.561020,-6.284780,-0.037038,-0.004530,0.024381
2926,-4.058172,1.458069,-6.306327,0.015455,0.017187,-0.012790
2941,-3.926491,1.359907,-6.390124,0.024781,0.019851,-0.016521
2956,-3.857059,1.065420,-6.351817,-0.012524,0.018519,0.011458
2971,-3.976769,1.139640,-6.361394,-0.061686,0.004796,0.041835
2986,-3.979163,1.436521,-6.337452,-0.074077,-0.004930,0.059954
3001,-3.976769,1.613692,-6.287174,-0.050228,0.013723,0.046631
3016,-3.912126,1.666364,-6.251261,-0.007594,0.040103,0.016387
3031,-4.000711,1.541866,-6.306327,0.018786,0.051161,-0.017587
3046,-3.881001,1.398214,-6.258443,0.017320,0.038904,-0.033841
3061,-3.919308,1.312023,-6.390124,-0.010126,0.025047,-0.026247
3076,-3.995923,1.295263,-6.394913,-0.044100,0.023315,-0.009060
3091,-4.113238,1.297657,-6.349423,-0.048629,0.033175,0.010126
3106,-4.046201,1.362301,-6.359000,-0.053159,0.032375,0.019185
3121,-3.902549,1.558625,-6.430826,-0.047697,0.026779,0.026113
3136,-4.003105,1.517924,-6.428432,-0.024648,0.033041,0.013856
3151,-4.077325,1.450886,-6.490681,-0.025847,0.052227,-0.001466
3166,-4.055778,1.491588,-6.466739,-0.026513,0.054625,-0.016787
3181,-3.926491,1.403002,-6.524199,-0.034374,0.041035,-0.020118
3196,-3.885789,1.414973,-6.488286,-0.048363,0.012124,-0.018386
3211,-4.180276,1.414973,-6.433220,-0.034374,-0.004663,-0.019585
3226,-4.194641,1.333570,-6.416461,-0.022783,0.023315,-0.011325
3241,-3.983952,1.470040,-6.457162,-0.001732,0.042501,-0.007194
3256,-3.849876,1.458069,-6.483498,0.012524,0.037172,-0.006662
3271,-3.995923,1.216254,-6.483498,0.024914,0.017320,-0.003997
3286,-3.969586,1.130063,-6.540959,-0.029444,0.007194,0.016787
3301,-3.847482,1.314417,-6.325481,-0.068214,-0.009593,0.036239
3316,-4.094085,1.472434,-6.315904,-0.066349,0.021850,0.021717
3331,-4.120421,1.613692,-6.311116,-0.015455,0.037704,-0.014389
3346,-3.967192,1.568202,-6.414066,0.028245,0.049962,-0.032508
3361,-3.813963,1.450886,-6.507440,0.050095,0.038104,-0.042368
3376,-3.816357,1.359907,-6.600814,0.038770,0.019985,-0.035173
3391,-3.986346,1.074997,-6.404490,-0.007727,0.007994,-0.011724
3406,-3.993528,1.185130,-6.433220,-0.055557,-0.000266,0.002798
3421,-3.981557,1.359907,-6.323087,-0.055824,0.018519,0.007461
3436,-3.957615,1.618480,-6.313510,-0.022250,0.032642,-0.010658
3451,-4.007894,1.520318,-6.550536,0.028112,0.035306,-0.033308
3466,-3.914520,1.285686,-6.557718,0.031709,0.051161,-0.037704
3481,-3.849876,1.434127,-6.619967,0.041835,0.028511,-0.045165
3496,-3.912126,1.182736,-6.471527,0.022916,0.022383,-0.033308
3511,-3.988740,1.613692,-6.478710,0.053559,0.031975,-0.048096
3526,-4.072537,1.391031,-6.337452,0.067548,0.020251,-0.074077
3541,-3.907337,1.204283,-6.390124,0.047297,0.035306,-0.076475
3556,-4.000711,1.161188,-6.385336,0.010392,0.062752,-0.070746
3571,-3.962404,1.118092,-6.548141,-0.031043,0.063818,-0.053692
3586,-3.907337,1.175553,-6.576872,-0.061819,0.040769,-0.021850
3601,-3.734955,1.295263,-6.452374,-0.058489,0.007461,-0.009060
3616,-3.871424,1.355118,-6.335058,-0.029044,0.004530,-0.008793
3631,-4.113238,1.271321,-6.277597,0.004796,0.008394,-0.020651
3646,-4.168305,1.199495,-6.284780,0.015588,0.020917,-0.028511
3661,-3.993528,1.094150,-6.457162,-0.012257,0.041701,-0.025714
3676,-3.780444,1.036689,-6.466739,-0.046498,0.027845,-0.005196
3691,-3.979163,1.101333,-6.493075,-0.080605,0.023715,0.004397
3706,-4.027047,1.256956,-6.481104,-0.087400,0.018519,0.000000
3721,-3.881001,1.556231,-6.368577,-0.000933,0.042234,-0.018519
3736,-3.866636,1.350330,-6.270414,0.054625,0.046897,-0.032375
3751,-4.031836,1.125275,-6.347029,0.069147,0.069014,-0.031709
3766,-4.079720,1.027112,-6.430826,0.029311,0.094194,-0.016254
3781,-3.926491,1.058237,-6.404490,0.001865,0.087799,-0.001466
3796,-3.682282,1.185130,-6.567295,-0.036772,0.074743,0.006262
3811,-3.780444,1.199495,-6.591237,-0.054092,0.029311,-0.003064
3826,-3.948039,1.331176,-6.567295,-0.050095,0.003864,-0.015055
3841,-3.960010,1.386243,-6.555324,-0.009060,0.021051,-0.043300
3856,-3.859453,1.446098,-6.399701,0.047297,0.027179,-0.076208
3871,-3.974375,1.288080,-6.497863,0.077008,0.025447,-0.100323
3886,-3.964798,0.984017,-6.416461,0.070213,0.027046,-0.095926
3901,-3.885789,0.876278,-6.569689,0.004397,0.021583,-0.057822
3916,-3.804386,0.928950,-6.550536,-0.058489,-0.012391,-0.009326
3931,-4.010288,0.905008,-6.574478,-0.057822,-0.019585,0.039303
3946,-4.094085,0.885855,-6.619967,-0.086067,-0.030110,0.077008
3961,-4.039018,1.218649,-6.473921,-0.100456,0.001199,0.084335
3976,-3.849876,1.422156,-6.464345,-0.052093,-0.002531,0.065017
3991,-3.960010,1.455675,-6.291962,-0.012923,0.035972,0.019718
4006,-3.907337,1.386243,-6.390124,0.057156,0.047564,-0.025980
4021,-3.828328,1.132457,-6.509834,0.047297,0.042767,-0.048363
4036,-3.706224,0.857124,-6.600814,-0.013323,0.014522,-0.026646
4051,-3.845088,0.902614,-6.660669,-0.092995,-0.018253,0.011191
4066,-3.909731,1.070208,-6.483498,-0.131233,-0.038637,0.040769
4081,-3.967192,1.158794,-6.497863,-0.075542,-0.022783,0.060620
4096,-4.046201,1.233014,-6.430826,-0.111115,-0.010658,0.075009
4111,-3.916914,1.347936,-6.268020,-0.057289,0.031443,0.050361
4126,-3.964798,1.446098,-6.442797,-0.020251,0.030510,0.013590
4141,-3.809175,1.309628,-6.528988,-0.006662,0.020784,-0.006262
4156,-3.742137,1.074997,-6.540959,-0.030110,0.003864,-0.003331
4171,-3.849876,0.974440,-6.473921,-0.071145,-0.010658,0.011991
4186,-3.995923,1.007959,-6.366182,-0.081804,-0.016387,0.028511
4201,-4.034230,1.247379,-6.344635,-0.068747,0.008127,0.029711
4216,-3.842694,1.283292,-6.502652,-0.042368,0.036106,0.015855
4231,-3.957615,1.309628,-6.404490,-0.046498,0.025580,0.015322
4246,-3.952827,1.271321,-6.435614,-0.036639,0.029577,0.007194
4261,-3.943250,1.199495,-6.493075,-0.021717,-0.008394,0.006928
4276,-3.900155,1.206678,-6.449979,-0.036505,0.005862,0.020917
4291,-3.926491,1.098939,-6.473921,-0.058355,0.012790,0.027046
4306,-4.019865,1.206678,-6.349423,-0.067415,0.027712,0.030510
4321,-3.974375,1.278504,-6.440403,-0.069280,0.053159,0.027446
4336,-3.869030,1.319205,-6.490681,-0.059021,0.044632,0.015721
4351,-3.883395,1.359907,-6.469133,-0.039436,0.044899,-0.003464
4366,-3.955221,1.321599,-6.478710,-0.019185,0.039836,-0.011591
4381,-3.924097,1.170765,-6.387730,0.003597,0.040769,-0.017320
4396,-3.742137,1.211466,-6.483498,0.008260,0.044366,-0.009326
4411,-3.849876,1.077391,-6.519411,0.004263,0.037305,0.002931
4426,-3.921702,0.926556,-6.572083,-0.038504,0.037305,0.031576
4441,-3.907337,1.122881,-6.459556,-0.094328,0.041835,0.060487
4456,-3.799598,1.367089,-6.418855,-0.096992,0.025314,0.065816
4471,-3.813963,1.680730,-6.442797,-0.039570,0.019052,0.035839
4486,-3.960010,1.426944,-6.550536,0.020384,0.024515,0.000799
4501,-3.907337,1.211466,-6.490681,0.011991,0.029711,-0.005862
4516,-3.842694,1.165976,-6.464345,-0.028645,0.025047,0.002398
4531,-3.804386,1.101333,-6.507440,-0.078740,0.028245,0.008260
4546,-3.881001,1.323994,-6.603208,-0.071145,0.019585,0.010925
4561,-3.940856,1.335965,-6.526594,-0.074343,0.010792,0.009326
4576,-3.792415,1.395820,-6.399701,-0.058622,0.006395,0.011325
4591,-3.854665,1.326388,-6.433220,-0.047031,0.018919,0.016920
4606,-4.003105,1.247379,-6.505046,-0.044899,0.029844,0.025447
4621,-3.962404,1.331176,-6.538565,-0.066616,0.025980,0.042101
4636,-3.792415,1.446098,-6.509834,-0.053292,0.021317,0.019585
4651,-3.883395,1.426944,-6.438008,-0.023049,0.024914,-0.008793
4666,-3.871424,1.297657,-6.505046,-0.026913,0.020651,-0.015855
4681,-3.778050,1.218649,-6.550536,-0.038904,0.013723,-0.006528
4696,-3.840299,1.194707,-6.461950,-0.058622,0.003064,0.007194
4711,-3.979163,1.364695,-6.514623,-0.063951,0.004130,0.014256
4726,-3.912126,1.386243,-6.603208,-0.038770,0.013323,0.015188
4741,-3.849876,1.350330,-6.569689,-0.029711,0.013590,0.008394
4756,-3.849876,1.403002,-6.576872,-0.034773,0.009459,0.008127
4771,-3.926491,1.235408,-6.653486,-0.048096,0.003198,0.003730
4786,-3.835511,1.106121,-6.469133,-0.075542,-0.006262,0.021983
4801,-3.720589,1.156399,-6.636727,-0.095793,-0.026247,0.036239
4816,-3.847482,1.218649,-6.564901,-0.093395,-0.047830,0.055424
4831,-4.029441,1.182736,-6.495469,-0.091130,-0.052893,0.078207
4846,-3.818752,1.228225,-6.421249,-0.102455,-0.043833,0.094861
4861,-4.007894,1.216254,-6.509834,-0.135096,0.009992,0.102455
4876,-3.940856,1.546654,-6.512228,-0.121773,0.031309,0.072611
4891,-3.718195,1.663970,-6.416461,-0.073011,0.020651,0.023582
4906,-3.620033,1.757344,-6.390124,-0.010925,0.010392,-0.032375
4921,-3.687071,1.532289,-6.337452,0.029711,-0.014123,-0.058089
4936,-4.003105,1.177947,-6.318298,0.021983,-0.026913,-0.044100
4951,-4.175488,1.197101,-6.368577,0.001466,0.011058,-0.014922
4966,-3.938462,1.256956,-6.421249,-0.005995,0.032508,0.007861
4981,-3.806781,1.280898,-6.433220,-0.037038,0.033308,0.033708
4996,-3.722984,1.290475,-6.488286,-0.057556,0.027312,0.045965
5011,-3.821146,1.326388,-6.373365,-0.083936,0.010925,0.046098
5026,-3.823540,1.541866,-6.217741,-0.070213,0.002398,0.035440
5041,-3.780444,1.599327,-6.339846,-0.036505,0.018652,0.009060
5056,-3.921702,1.448492,-6.296751,-0.001466,0.027845,-0.005995
5071,-3.974375,1.367089,-6.421249,0.014789,0.037438,-0.007461
5086,-3.902549,1.242591,-6.476315,-0.006129,0.035839,0.009193
5101,-3.763685,1.242591,-6.478710,-0.056090,0.027312,0.034240
5116,-3.801992,1.331176,-6.421249,-0.092196,0.023449,0.037305
5131,-3.924097,1.505953,-6.452374,-0.096593,0.041302,0.022916
5146,-3.840299,1.606509,-6.337452,-0.075409,0.039170,-0.003064
5161,-3.830723,1.735796,-6.507440,-0.015721,0.029577,-0.015988
5176,-3.890578,1.412579,-6.531382,0.021051,0.019052,-0.020917
5191,-4.029441,1.154005,-6.490681,0.010126,0.018919,0.004796
5206,-3.895366,1.113304,-6.404490,-0.050628,0.011991,0.041302
5221,-3.871424,1.333570,-6.473921,-0.106052,0.022116,0.057822
5236,-3.955221,1.673547,-6.370971,-0.079672,0.043833,0.028511
5251,-3.847482,1.889025,-6.392519,0.002531,0.036505,-0.034507
5266,-3.835511,1.668759,-6.517017,0.064084,0.022516,-0.069547
5281,-3.790021,1.288080,-6.651092,0.062352,0.013456,-0.058355
5296,-3.969586,1.058237,-6.639121,-0.014789,0.018119,-0.012524
5311,-4.031836,1.242591,-6.538565,-0.053692,0.043300,0.019452
5326,-3.933673,1.517924,-6.560112,-0.055158,0.043034,0.027446
5341,-3.780444,1.532289,-6.521805,-0.028511,0.038504,0.010925
5356,-3.852270,1.501164,-6.612785,0.016920,0.021450,-0.017320
5371,-3.873818,1.383849,-6.581660,0.020251,-0.009326,-0.024914
5386,-3.866636,1.170765,-6.548141,-0.007594,-0.011591,-0.012391
5401,-3.876213,1.297657,-6.533776,-0.027979,0.006528,0.006662
5416,-3.900155,1.321599,-6.519411,-0.045832,0.013989,0.015721
5431,-3.873818,1.395820,-6.497863,-0.057689,0.015188,0.010392
5446,-3.787627,1.522712,-6.447585,-0.047963,0.002798,-0.002398
5461,-3.725378,1.498770,-6.423643,-0.035306,0.002265,-0.019718
5476,-3.809175,1.491588,-6.438008,-0.018386,-0.007861,-0.031176
5491,-3.924097,1.189918,-6.342240,-0.043833,-0.007061,-0.024781
5506,-3.897760,1.359907,-6.533776,-0.053692,0.019319,-0.021717
5521,-3.847482,1.374272,-6.536170,-0.055557,0.036239,-0.008793
5536,-3.730166,1.556231,-6.430826,-0.039170,0.016654,-0.013190
5551,-3.861847,1.541866,-6.574478,0.002132,-0.001332,-0.034240
5566,-3.950433,1.244985,-6.318298,-0.003464,-0.013723,-0.030910
5581,-3.749320,1.393425,-6.323087,0.006928,0.005063,-0.037704
5596,-3.897760,1.321599,-6.275203,0.009992,0.033974,-0.026380
5611,-3.964798,1.091756,-6.426037,-0.027446,0.050361,-0.013190
5626,-3.859453,1.079785,-6.521805,-0.074876,0.036239,0.010658
5641,-3.737349,1.419762,-6.488286,-0.091930,0.004796,0.026380
5656,-3.876213,1.525106,-6.370971,-0.079672,-0.012391,0.019319
5671,-4.132392,1.601721,-6.342240,-0.025181,0.021051,-0.022250
5686,-3.938462,1.604115,-6.320693,0.028911,0.026779,-0.054625
5701,-3.801992,1.266533,-6.399701,0.035040,0.044766,-0.049695
5716,-3.799598,1.132457,-6.457162,-0.017320,0.047564,-0.024248
5731,-3.895366,1.182736,-6.505046,-0.066083,0.036239,-0.000933
5746,-3.914520,1.448492,-6.402095,-0.083403,0.040236,0.002398
5761,-3.864241,1.620875,-6.452374,-0.058622,0.033974,-0.015855
5776,-3.845088,1.549048,-6.476315,-0.035440,0.019718,-0.034773
5791,-3.919308,1.285686,-6.560112,-0.026646,0.019585,-0.033308
5806,-3.835511,1.338359,-6.478710,-0.036106,0.023715,-0.017054
5821,-3.859453,1.304840,-6.466739,-0.048496,0.040103,-0.005729
5836,-3.751714,1.472434,-6.349423,-0.017054,0.037971,-0.012923
5851,-3.895366,1.668759,-6.404490,-0.028245,0.048763,-0.045299
5866,-4.132392,1.431733,-6.509834,0.017187,0.041968,-0.061953
5881,-3.756502,1.173159,-6.385336,-0.017720,0.030510,-0.045032
5896,-3.718195,1.233014,-6.473921,-0.040502,0.029444,-0.035173
5911,-3.955221,1.240196,-6.543353,-0.050761,0.028778,-0.021051
5926,-3.936068,1.434127,-6.526594,-0.027712,0.031842,-0.028511
5941,-3.816357,1.343147,-6.497863,-0.011191,0.027712,-0.034507
5956,-3.892972,1.333570,-6.588843,0.005063,0.035839,-0.039570
5971,-3.955221,1.177947,-6.557718,0.029444,0.013323,-0.029044
5986,-3.945644,1.041478,-6.672640,0.018119,0.023315,-0.021450
6001,-3.869030,1.211466,-6.643909,-0.025314,0.027179,-0.007727
6016,-3.816357,1.247379,-6.612785,-0.043300,0.023848,-0.005196
6031,-3.878607,1.335965,-6.560112,-0.054492,0.023982,-0.006395
6046,-3.892972,1.434127,-6.473921,-0.019585,0.025447,-0.027046
6061,-3.811569,1.491588,-6.440403,0.014789,0.027446,-0.046897
6076,-3.847482,1.391031,-6.584054,0.047031,0.017853,-0.064217
6091,-3.926491,1.113304,-6.639121,0.044499,0.019452,-0.063551
6106,-3.818752,1.034295,-6.619967,-0.005196,0.028778,-0.039303
6121,-3.754108,1.108515,-6.548141,-0.027845,0.016387,-0.002531
6136,-3.756502,1.163582,-6.505046,-0.085668,0.000000,0.019585
6151,-3.888184,1.453280,-6.469133,-0.033308,0.045299,-0.021317
6166,-3.938462,1.482011,-6.296751,0.025714,0.081005,-0.060087
6181,-3.773262,1.541866,-6.330269,0.083403,0.096726,-0.093795
6196,-3.711013,1.304840,-6.497863,0.123639,0.106052,-0.103254
6211,-3.679888,1.149217,-6.548141,0.135363,0.059288,-0.100190
6226,-3.670311,0.794875,-6.500257,0.065017,0.011991,-0.076342
6241,-3.806781,0.682347,-6.497863,-0.056090,-0.028245,-0.011991
6256,-3.852270,0.940921,-6.394913,-0.144556,-0.012923,0.033708
6271,-3.897760,1.383849,-6.339846,-0.110182,0.014123,0.026513
6286,-3.892972,1.264138,-6.461950,-0.043034,0.050095,0.006662
6301,-3.720589,1.276109,-6.564901,-0.034240,0.049695,-0.007061
6316,-3.682282,1.177947,-6.521805,-0.027712,0.035972,-0.003730
6331,-3.861847,1.173159,-6.411672,-0.022383,0.035440,-0.011591
6346,-3.940856,1.352724,-6.454768,-0.003730,0.030243,-0.021450
6361,-3.732560,1.242591,-6.483498,0.022649,-0.012257,-0.031709
6376,-3.730166,0.890643,-6.679822,-0.054492,-0.013190,-0.003064
6391,-3.940856,0.866701,-6.687005,-0.121374,-0.012257,0.040769
6406,-3.881001,1.194707,-6.569689,-0.106185,0.000266,0.054891
6421,-3.847482,1.376666,-6.643909,-0.069946,0.007994,0.030243
6436,-3.801992,1.376666,-6.562507,-0.004130,0.033175,-0.009726
6451,-3.895366,1.312023,-6.538565,0.009060,0.038504,-0.040769
6466,-3.900155,1.067814,-6.612785,0.015988,0.035173,-0.023449
6481,-3.782839,1.041478,-6.665457,-0.025980,0.012923,0.013190
6496,-3.739743,1.067814,-6.756437,-0.052093,-0.008394,0.051028
6511,-3.912126,1.027112,-6.572083,-0.091397,-0.035972,0.073810
6526,-3.869030,1.271321,-6.347029,-0.072877,-0.025314,0.062885
6541,-3.897760,1.347936,-6.394913,-0.048496,-0.001066,0.029044
6556,-3.799598,1.491588,-6.528988,-0.012524,0.021717,-0.016121
6571,-3.883395,1.438915,-6.603208,0.043034,0.022250,-0.048496
6586,-3.873818,1.127669,-6.447585,0.068214,0.022116,-0.055691
6601,-3.849876,0.907402,-6.579266,0.021051,0.014655,-0.023315
6616,-3.849876,0.871489,-6.557718,-0.061686,0.007194,0.023315
6631,-3.883395,1.053449,-6.617573,-0.105253,-0.003198,0.049828
6646,-3.811569,1.355118,-6.528988,-0.083003,-0.008527,0.043966
6661,-3.801992,1.489193,-6.454768,-0.036905,-0.015455,0.018386
6676,-3.751714,1.319205,-6.378153,-0.001066,-0.012124,-0.005995
6691,-3.828328,1.204283,-6.404490,0.011058,-0.003331,-0.005729
6706,-3.964798,1.094150,-6.483498,-0.019585,0.013856,0.009593
6721,-3.876213,1.340753,-6.406884,-0.043034,0.009859,0.009859
6736,-3.732560,1.273715,-6.562507,-0.046498,0.003864,0.000799
6751,-3.936068,1.175553,-6.713341,-0.072211,-0.009459,0.000933
6766,-3.921702,1.312023,-6.734890,-0.061020,-0.034640,-0.010658
6781,-3.665523,1.252167,-6.411672,-0.052093,-0.046897,-0.027179
6796,-3.677494,1.276109,-6.387730,-0.070346,-0.017320,-0.028778
6811,-3.928885,1.355118,-6.342240,-0.045299,-0.009859,-0.033574
6826,-4.106056,1.350330,-6.426037,0.005862,0.017187,-0.049429
6841,-3.974375,1.079785,-6.505046,0.017853,0.030510,-0.044366
6856,-3.921702,0.821211,-6.655880,-0.038770,0.033041,-0.003331
6871,-3.931279,1.015141,-6.691793,-0.097525,-0.000799,0.035440
6886,-3.885789,1.369483,-6.715735,-0.074609,-0.040769,0.039969
6901,-3.816357,1.254562,-6.581660,-0.050228,-0.046364,0.039969
6916,-3.883395,1.292869,-6.555324,-0.053825,-0.017720,0.035040
6931,-3.964798,1.280898,-6.457162,-0.056757,-0.005063,0.024515
6946,-4.015076,1.307234,-6.591237,-0.037571,0.009193,0.003331
6961,-3.864241,1.268927,-6.574478,-0.025047,0.001599,-0.016121
6976,-3.790021,1.316811,-6.596025,-0.002265,-0.028778,-0.021184
6991,-3.878607,1.108515,-6.689399,0.001865,-0.058755,-0.016254
7006,-3.962404,0.981623,-6.481104,-0.035440,-0.070746,0.015855
7021,-4.024653,0.955286,-6.490681,-0.077940,-0.064217,0.050228
7036,-3.993528,1.259350,-6.428432,-0.085534,-0.033708,0.046897
7051,-3.859453,1.424550,-6.426037,-0.027845,-0.011325,0.007727
7066,-3.833117,1.446098,-6.569689,0.016121,-0.028911,-0.018119
7081,-3.708618,1.271321,-6.567295,0.045299,-0.043433,-0.037438
7096,-3.775656,0.943315,-6.505046,0.011991,-0.058755,-0.019985
7111,-4.022259,0.830788,-6.382942,-0.049162,-0.044366,0.021051
7126,-4.074931,1.106121,-6.399701,-0.071012,-0.030110,0.045565
7141,-4.041412,1.244985,-6.222530,-0.046631,-0.014389,0.049296
7156,-3.950433,1.314417,-6.454768,-0.004663,-0.014789,0.045698
7171,-4.017470,1.187524,-6.581660,0.006928,-0.035972,0.040369
7186,-4.017470,1.108515,-6.531382,0.010392,-0.022116,0.038504
7201,-3.909731,1.027112,-6.373365,-0.025580,-0.007194,0.045965
7216,-3.811569,1.211466,-6.500257,-0.061020,-0.005196,0.055025
7231,-3.859453,1.381454,-6.454768,-0.051161,-0.012790,0.031709
7246,-4.077325,1.486799,-6.296751,-0.047031,-0.015055,0.003864
7261,-4.041412,1.323994,-6.327875,-0.014522,-0.026247,-0.017587
7276,-3.957615,1.381454,-6.416461,0.000933,-0.025580,-0.026779
7291,-4.015076,1.249773,-6.330269,0.031975,-0.016654,-0.030243
7306,-4.175488,0.984017,-6.490681,0.016654,-0.006662,-0.005862
7321,-4.067749,0.885855,-6.392519,-0.035839,-0.015455,0.044366
7336,-3.940856,1.125275,-6.423643,-0.076342,-0.032109,0.068214
7351,-3.995923,1.273715,-6.354211,-0.079006,-0.041302,0.067948
7366,-4.103662,1.256956,-6.315904,-0.074609,-0.042501,0.065150
7381,-4.216189,1.204283,-6.361394,-0.051161,-0.027979,0.063685
7396,-4.003105,1.551443,-6.325481,0.002265,-0.020118,0.035839
7411,-4.053383,1.400608,-6.423643,0.034907,0.008394,0.001332
7426,-4.146757,1.256956,-6.574478,0.048363,0.007328,-0.008527
7441,-4.043807,1.098939,-6.399701,0.020251,-0.007727,0.005596
7456,-3.943250,1.101333,-6.469133,-0.020784,-0.013723,0.030510
7471,-3.993528,1.163582,-6.327875,-0.057556,-0.015455,0.051028
7486,-4.103662,1.276109,-6.232107,-0.057423,-0.010126,0.051560
7501,-4.173093,1.472434,-6.272809,-0.029711,0.014123,0.032242
7516,-4.043807,1.570596,-6.382942,0.019585,0.028778,-0.004796
7531,-3.967192,1.364695,-6.354211,0.051960,0.024115,-0.041835
7546,-4.084508,1.063026,-6.562507,0.035706,0.000133,-0.038904
7561,-4.048595,0.936133,-6.531382,-0.021317,-0.012524,0.001199
7576,-3.998317,0.871489,-6.500257,-0.114046,-0.021184,0.054758
7591,-3.969586,1.410185,-6.335058,-0.126969,-0.026646,0.065283
7606,-4.086902,1.616086,-6.387730,-0.058089,-0.053159,0.026113
7621,-4.089296,1.458069,-6.279991,0.028511,-0.060354,-0.016920
7636,-4.027047,1.130063,-6.387730,0.017720,-0.043167,-0.012923
7651,-4.144363,1.091756,-6.394913,0.009992,-0.011591,-0.018919
7666,-4.192247,1.000776,-6.397307,-0.024381,0.023982,-0.010259
7681,-4.110844,1.060631,-6.402095,-0.067282,0.006795,0.011858
7696,-3.988740,1.165976,-6.289568,-0.083403,0.005329,0.021583
7711,-4.072537,1.314417,-6.306327,-0.055025,0.008926,0.017587
7726,-4.098873,1.383849,-6.222530,-0.010259,-0.007061,0.008527
7741,-4.082114,1.280898,-6.359000,0.021850,-0.015588,-0.016920
7756,-3.976769,1.077391,-6.337452,0.017187,-0.008127,-0.017320
7771,-3.943250,0.943315,-6.404490,-0.037438,-0.009060,0.015588
7786,-4.115633,1.012747,-6.339846,-0.088199,-0.000933,0.044499
7801,-4.122815,1.352724,-6.239290,-0.075142,0.014789,0.038371
7816,-4.017470,1.549048,-6.200982,-0.036106,0.027845,0.000799
7831,-3.993528,1.331176,-6.289568,-0.001732,0.024115,-0.016920
7846,-4.139575,1.053449,-6.327875,-0.008660,0.010792,-0.007194
7861,-4.146757,1.082179,-6.342240,-0.057423,0.025047,0.017587
7876,-4.082114,1.185130,-6.284780,-0.075009,0.035040,0.030776
7891,-4.003105,1.312023,-6.354211,-0.079939,0.028378,0.041035
7906,-4.103662,1.304840,-6.268020,-0.048230,0.012524,0.037704
7921,-4.242526,1.237802,-6.311116,-0.021051,0.018652,0.039170
7936,-4.098873,1.015141,-6.354211,-0.063285,0.029444,0.060753
7951,-3.873818,1.479617,-6.363788,-0.056890,0.021184,0.038770
7966,-4.091691,1.283292,-6.411672,-0.051960,0.023182,0.020251
7981,-4.103662,1.177947,-6.399701,-0.074077,0.017187,0.022783
7996,-3.993528,1.326388,-6.234501,-0.087400,0.011724,0.025580
8011,-3.969586,1.515530,-6.335058,-0.052227,0.003464,0.012524
8026,-4.187459,1.254562,-6.296751,-0.018919,-0.000266,0.010392
8041,-4.252102,1.235408,-6.306327,-0.016920,0.014256,0.025847
8056,-4.120421,1.189918,-6.327875,-0.041835,0.044233,0.035706
8071,-4.029441,1.242591,-6.332664,-0.063818,0.039969,0.047031
8086,-3.993528,1.309628,-6.452374,-0.056224,0.020784,0.036239
8101,-4.204218,1.189918,-6.414066,-0.059554,0.015055,0.041168
8116,-4.144363,1.288080,-6.272809,-0.085135,0.024115,0.050228
8131,-4.168305,1.379060,-6.330269,-0.075675,0.037438,0.051294
8146,-4.161122,1.462857,-6.378153,-0.061819,0.061286,0.038637
8161,-4.077325,1.572991,-6.378153,-0.001466,0.045165,-0.001599
8176,-3.933673,1.400608,-6.457162,0.016121,0.036905,-0.021717
8191,-3.991134,1.043872,-6.538565,-0.030377,0.030776,-0.009593
8206,-4.082114,1.225831,-6.454768,-0.077807,0.016787,0.021983
8221,-4.086902,1.448492,-6.447585,-0.066482,0.009593,0.023715
8236,-4.029441,1.462857,-6.359000,-0.027312,0.007461,0.010525
8251,-3.988740,1.450886,-6.416461,0.004530,0.031176,-0.004663
8266,-4.242526,1.276109,-6.454768,-0.002798,0.048629,-0.007328
8281,-4.201824,1.285686,-6.536170,-0.017187,0.044632,-0.003997
8296,-4.012682,1.244985,-6.517017,-0.028378,0.023182,0.005063
8311,-4.072537,1.079785,-6.528988,-0.055824,0.002665,0.024781
8326,-4.077325,1.225831,-6.382942,-0.088332,-0.018919,0.044499
8341,-3.976769,1.462857,-6.181828,-0.076342,-0.005596,0.038237
8356,-4.137180,1.568202,-6.222530,-0.047297,0.012923,0.008793
8371,-4.153940,1.491588,-6.335058,0.003331,0.048763,-0.024781
8386,-4.017470,1.422156,-6.354211,0.020784,0.034640,-0.037704
8401,-3.902549,1.206678,-6.438008,-0.005862,0.023449,-0.030910
8416,-3.981557,1.022324,-6.418855,-0.065150,0.008926,-0.003064
8431,-4.127604,1.154005,-6.447585,-0.106452,0.010259,0.021583
8446,-4.062960,1.321599,-6.428432,-0.087799,0.015455,0.032109
8461,-4.015076,1.503559,-6.373365,-0.055025,0.011991,0.025580
8476,-4.010288,1.434127,-6.342240,-0.011191,0.021051,0.007461
8491,-4.197035,1.355118,-6.435614,0.005995,0.026380,0.003198
8506,-4.098873,1.412579,-6.339846,0.016920,0.023982,0.000266
8521,-3.979163,1.235408,-6.445191,0.002531,0.028378,0.006395
8536,-4.060566,1.192312,-6.481104,-0.028911,0.022116,0.017720
8551,-4.074931,1.223437,-6.421249,-0.070213,0.012124,0.037438
8566,-3.943250,1.623269,-6.347029,-0.036106,-0.004397,0.026913
8581,-3.940856,1.620875,-6.306327,0.011325,-0.015855,0.005995
8596,-4.053383,1.448492,-6.315904,0.013590,0.004263,-0.002265
8611,-4.182670,1.309628,-6.382942,0.000266,0.035839,-0.005196
8626,-4.015076,1.388637,-6.423643,-0.018786,0.036239,-0.014256
8641,-3.955221,1.381454,-6.402095,-0.053426,0.014655,-0.016521
8656,-4.113238,1.165976,-6.548141,-0.070479,0.028378,0.001865
8671,-4.232948,1.436521,-6.447585,-0.064617,0.018119,-0.003997
8686,-4.046201,1.551443,-6.356606,-0.038770,0.009726,-0.019585
8701,-3.892972,1.309628,-6.354211,0.002398,0.008260,-0.017453
8716,-4.022259,1.130063,-6.339846,-0.029178,0.012923,0.014789
8731,-4.146757,1.247379,-6.414066,-0.048496,0.011325,0.027579
8746,-4.082114,1.333570,-6.342240,-0.076608,0.019718,0.030510
8761,-3.957615,1.400608,-6.347029,-0.083403,0.023315,0.009326
8776,-3.962404,1.450886,-6.464345,-0.068881,0.016654,-0.014655
8791,-4.106056,1.393425,-6.370971,-0.040369,0.015455,-0.031043
8806,-4.082114,1.333570,-6.359000,-0.025047,0.013057,-0.032109
8821,-4.019865,1.266533,-6.318298,-0.012124,0.005196,-0.027979
8836,-3.969586,1.170765,-6.347029,-0.029444,0.010925,-0.008793
8851,-4.134786,1.134852,-6.327875,-0.060620,0.017453,0.017587
8866,-4.055778,1.331176,-6.385336,-0.060354,0.023582,0.028511
8881,-4.041412,1.472434,-6.387730,-0.042767,0.031842,0.024248
8896,-4.015076,1.561020,-6.311116,-0.009859,0.026779,-0.000266
8911,-4.048595,1.359907,-6.416461,-0.010392,0.013590,-0.005862
8926,-3.991134,1.314417,-6.440403,-0.008527,-0.003064,0.000400
8941,-3.945644,1.254562,-6.296751,-0.031576,-0.017853,0.019985
8956,-3.974375,1.247379,-6.251261,-0.053692,0.017187,0.042368
8971,-4.199430,1.319205,-6.217741,-0.054891,0.034107,0.039969
8986,-4.012682,1.414973,-6.327875,-0.043700,0.033841,0.037038
9001,-3.921702,1.443704,-6.433220,-0.044366,0.030776,0.023848
9016,-3.835511,1.544260,-6.397307,-0.039037,0.018519,0.004397
9031,-4.053383,1.436521,-6.418855,-0.025447,-0.002798,-0.008527
9046,-4.240131,1.458069,-6.301539,-0.021051,0.004263,0.000533
9061,-4.103662,1.364695,-6.246472,-0.005329,0.032242,-0.000933
9076,-4.005499,1.343147,-6.382942,-0.012790,0.029711,0.012657
9091,-4.153940,1.216254,-6.514623,-0.035706,0.027312,0.020651
9106,-4.067749,1.345541,-6.426037,-0.051827,0.017853,0.034907
9121,-3.957615,1.414973,-6.416461,-0.060087,0.014655,0.044366
9136,-4.098873,1.529895,-6.421249,-0.054758,0.016654,0.032375
9151,-4.139575,1.541866,-6.342240,-0.024115,0.017986,0.005063
9166,-4.103662,1.458069,-6.435614,-0.002665,0.038904,-0.021583
9181,-3.933673,1.467646,-6.481104,-0.002398,0.023449,-0.036239
9196,-3.969586,1.213860,-6.359000,-0.027046,-0.003198,-0.019985
9211,-4.110844,1.161188,-6.399701,-0.070746,-0.004663,0.009593
9226,-4.149151,1.376666,-6.428432,-0.058622,0.013723,0.023848
9241,-3.974375,1.553837,-6.457162,-0.020384,0.024115,0.024381
9256,-3.914520,1.517924,-6.375759,0.020384,0.031709,-0.003730
9271,-4.151546,1.352724,-6.349423,0.025314,0.019319,-0.010126
9286,-4.194641,1.144428,-6.430826,-0.034640,0.002798,0.010525
9301,-4.106056,1.221043,-6.406884,-0.071678,0.008660,0.021583
9316,-4.029441,1.486799,-6.390124,-0.073544,-0.001199,0.024115
9331,-4.031836,1.484405,-6.404490,-0.053292,-0.008260,0.020917
9346,-4.106056,1.441309,-6.421249,-0.035972,-0.012257,0.003730
9361,-3.897760,1.857901,-6.272809,0.011191,-0.016654,-0.036772
9376,-4.027047,1.596933,-6.392519,0.034773,-0.003597,-0.068614
9391,-4.082114,1.534683,-6.435614,0.046498,0.016787,-0.076475
9406,-4.161122,1.034295,-6.291962,-0.024648,0.021983,-0.041568
9421,-4.029441,1.242591,-6.402095,-0.095527,0.012124,-0.009326
9436,-3.950433,1.472434,-6.347029,-0.135496,-0.001332,0.000000
9451,-4.110844,1.606509,-6.325481,-0.118043,0.021051,-0.018386
9466,-4.098873,1.862689,-6.323087,-0.027979,0.021583,-0.067815
9481,-4.067749,1.429338,-6.430826,0.016920,0.007594,-0.093395
9496,-3.988740,1.103727,-6.466739,-0.027845,-0.011058,-0.063951
9511,-4.146757,1.039083,-6.380548,-0.090064,-0.020384,-0.017187
9526,-4.218583,1.319205,-6.193799,-0.107251,-0.010792,0.002665
9541,-4.062960,1.513135,-6.131550,-0.074743,0.015588,-0.008793
9556,-4.072537,1.599327,-6.167463,-0.020384,0.037172,-0.030510
9571,-4.192247,1.381454,-6.387730,0.012124,0.052893,-0.054625
9586,-4.096479,1.244985,-6.514623,-0.002531,0.046364,-0.056890
9601,-3.881001,1.182736,-6.581660,-0.039436,0.019319,-0.042900
9616,-3.924097,1.237802,-6.421249,-0.062485,-0.023848,-0.027579
9631,-4.067749,1.273715,-6.404490,-0.054758,-0.040103,-0.022649
9646,-4.062960,1.407791,-6.196194,-0.017453,-0.020118,-0.035573
9661,-4.165911,1.187524,-6.133945,-0.020784,0.001998,-0.026646
9676,-3.960010,1.106121,-6.279991,-0.036905,0.027845,-0.005063
9691,-4.067749,1.063026,-6.378153,-0.061153,0.036772,0.012923
9706,-4.034230,1.233014,-6.409278,-0.061420,0.019851,0.017853
9721,-4.034230,1.355118,-6.323087,-0.056357,0.014789,0.015988
9736,-4.029441,1.309628,-6.306327,-0.036639,0.013590,0.010792
9751,-4.106056,1.383849,-6.253655,-0.013723,0.033974,-0.001332
9766,-4.177882,1.312023,-6.296751,0.017320,0.027046,-0.007594
9781,-4.046201,1.127669,-6.368577,0.010259,0.037038,0.006928
9796,-3.928885,1.007959,-6.404490,-0.054092,0.033175,0.046764
9811,-4.048595,1.264138,-6.306327,-0.088466,0.034240,0.065683
9826,-4.213795,1.632846,-6.315904,-0.053159,0.038104,0.035839
9841,-4.007894,1.754950,-6.363788,0.019851,-0.011458,-0.017453
9856,-4.058172,1.355118,-6.464345,0.046897,-0.004397,-0.042767
9871,-4.175488,1.084573,-6.426037,-0.006528,0.005063,-0.017853
9886,-4.139575,1.089362,-6.406884,-0.066349,0.011991,0.018519
9901,-4.065354,1.192312,-6.433220,-0.100456,0.014789,0.052760
9916,-4.065354,1.443704,-6.327875,-0.101655,0.022516,0.062752
9931,-4.125209,1.513135,-6.291962,-0.064217,0.029444,0.049162
9946,-4.163517,1.501164,-6.296751,-0.025714,0.024115,0.029444
9961,-4.041412,1.371878,-6.347029,-0.008260,0.023315,0.033175
9976,-3.979163,1.285686,-6.351817,-0.033574,0.019851,0.041835
9991,-3.998317,1.271321,-6.332664,-0.078074,0.015055,0.056357
10006,-4.165911,1.338359,-6.382942,-0.120974,0.023315,0.063418
10021,-4.060566,1.731008,-6.351817,-0.105652,0.028245,0.034907
10036,-3.988740,2.037466,-6.323087,-0.014655,0.021317,-0.017187
10051,-4.082114,1.587356,-6.370971,0.063818,0.016254,-0.052760
10066,-4.201824,1.158794,-6.423643,0.042101,0.022516,-0.043300
10081,-4.206612,1.063026,-6.438008,-0.053825,0.016787,0.010792
10096,-3.967192,1.177947,-6.435614,-0.118975,0.017054,0.052893
10111,-4.027047,1.412579,-6.366182,-0.138560,0.013456,0.057289
10126,-4.108450,1.733402,-6.318298,-0.083136,-0.000933,0.027179
10141,-4.120421,1.687912,-6.277597,-0.007727,0.009326,-0.010792
10156,-4.125209,1.446098,-6.411672,0.019718,0.023848,-0.016521
10171,-4.079720,1.307234,-6.404490,-0.005729,0.028245,-0.002931
10186,-4.074931,1.240196,-6.500257,-0.032242,0.022516,0.022649
10201,-3.962404,1.359907,-6.500257,-0.070213,-0.001998,0.030643
10216,-3.900155,1.450886,-6.452374,-0.072078,0.001199,0.032109
10231,-4.127604,1.527501,-6.368577,-0.077807,-0.009726,0.022783
10246,-4.170699,1.477222,-6.337452,-0.053159,-0.003730,0.015055
10261,-4.039018,1.537077,-6.303933,-0.045432,0.003064,0.008793
10276,-3.921702,1.649605,-6.318298,-0.019985,0.001998,-0.016121
10291,-4.003105,1.692701,-6.347029,0.023049,0.005329,-0.053292
10306,-4.134786,1.386243,-6.411672,0.036106,0.007727,-0.065683
10321,-4.086902,1.314417,-6.493075,0.017853,0.005196,-0.057423
10336,-4.017470,1.266533,-6.370971,-0.032508,-0.005462,-0.038904
10351,-3.797204,1.484405,-6.428432,-0.037438,-0.012257,-0.044899
10366,-4.094085,1.340753,-6.347029,-0.046764,-0.013057,-0.034240
10381,-4.110844,1.400608,-6.287174,-0.047963,-0.023982,-0.020251
10396,-4.065354,1.343147,-6.282385,-0.048763,0.005862,-0.007461
10411,-4.144363,1.371878,-6.375759,-0.044899,0.024781,0.008260
10426,-4.165911,1.319205,-6.301539,-0.055691,0.015988,0.025847
10441,-4.074931,1.355118,-6.368577,-0.044366,0.012657,0.026247
10456,-3.945644,1.477222,-6.117185,-0.043167,-0.003997,0.020251
10471,-4.122815,1.436521,-6.258443,-0.016387,0.012124,0.002132
10486,-4.173093,1.441309,-6.301539,-0.003864,0.025314,-0.008793
10501,-4.098873,1.388637,-6.284780,0.012524,0.017320,-0.021184
10516,-3.952827,1.209072,-6.399701,-0.010925,0.005995,-0.007328
10531,-3.969586,1.132457,-6.356606,-0.062885,-0.011858,0.018786
10546,-4.197035,1.328782,-6.270414,-0.077274,-0.008660,0.023315
10561,-4.223372,1.486799,-6.179434,-0.054492,0.014256,0.005329
10576,-4.058172,1.685518,-6.095637,0.001199,0.018519,-0.026646
10591,-4.058172,1.414973,-6.366182,0.057822,0.018919,-0.048629
10606,-4.161122,1.043872,-6.481104,0.035173,0.017853,-0.017720
10621,-4.074931,1.098939,-6.449979,-0.032109,0.006795,0.026113
10636,-4.027047,1.247379,-6.433220,-0.072744,0.007328,0.055291
10651,-4.000711,1.343147,-6.356606,-0.113646,0.008127,0.062352
10666,-4.070143,1.611298,-6.256049,-0.100323,0.019319,0.045165
10681,-4.137180,1.881842,-6.215347,-0.024914,0.021583,-0.001066
10696,-4.173093,1.790863,-6.306327,0.077008,0.029711,-0.053292
10711,-4.007894,1.371878,-6.313510,0.074876,0.030643,-0.049029
10726,-4.168305,1.000776,-6.452374,0.004397,0.039836,-0.009859
10741,-4.170699,1.187524,-6.471527,-0.073544,0.030110,0.024115
10756,-4.062960,1.331176,-6.459556,-0.127236,0.009459,0.048896
10771,-4.000711,1.587356,-6.349423,-0.121773,-0.000266,0.042634
10786,-4.158728,1.582567,-6.145916,-0.071545,-0.000799,0.019185
10801,-4.079720,1.582567,-6.234501,-0.019985,0.016254,-0.004530
10816,-4.015076,1.474828,-6.282385,0.012257,0.039836,-0.028911
10831,-4.070143,1.438915,-6.270414,-0.001199,0.055691,-0.033574
10846,-4.120421,1.204283,-6.387730,-0.032375,0.041435,-0.015188
10861,-4.058172,1.285686,-6.452374,-0.069547,0.031842,0.006395
10876,-4.091691,1.489193,-6.390124,-0.061686,0.013190,0.014123
10891,-3.986346,1.824382,-6.282385,0.010259,0.010525,-0.025580
10906,-4.115633,1.450886,-6.335058,0.077940,0.018786,-0.055957
10921,-4.216189,1.046266,-6.473921,0.045965,0.030776,-0.031709
10936,-4.017470,1.031901,-6.363788,-0.043700,0.020651,0.021051
10951,-3.940856,1.228225,-6.378153,-0.108450,0.032508,0.070346
10966,-4.165911,1.436521,-6.416461,-0.112447,0.034240,0.066482
10981,-4.110844,1.726219,-6.294356,-0.057956,0.034773,0.027579
10996,-4.079720,1.671153,-6.394913,-0.008926,0.018386,-0.013723
11011,-3.964798,1.417367,-6.387730,0.011724,0.002798,-0.017320
11026,-4.151546,1.197101,-6.404490,-0.024914,-0.001332,0.000133
11041,-4.163517,1.209072,-6.378153,-0.076741,-0.000533,0.026779
11056,-4.118027,1.493982,-6.339846,-0.076342,0.008394,0.022383
11071,-4.007894,1.663970,-6.347029,-0.021051,0.018119,-0.002665
11086,-4.094085,1.429338,-6.481104,0.015855,0.014522,-0.009060
11101,-4.106056,1.314417,-6.344635,0.010525,0.010259,0.004530
11116,-3.967192,1.256956,-6.387730,-0.005862,-0.007461,0.024248
11131,-3.895366,1.300051,-6.370971,-0.052360,-0.015055,0.046231
11146,-4.003105,1.443704,-6.284780,-0.067015,-0.011458,0.045032
11161,-4.173093,1.496376,-6.270414,-0.058089,0.002132,0.027979
11176,-4.019865,1.632846,-6.244078,-0.042101,0.002265,0.005596
11191,-4.053383,1.625663,-6.265626,-0.014256,0.017453,-0.022783
11206,-4.129998,1.426944,-6.272809,0.008127,0.023315,-0.037571
11221,-4.163517,1.283292,-6.335058,-0.007061,0.013856,-0.024515
11236,-3.988740,1.233014,-6.279991,-0.036106,0.001599,0.007061
11251,-4.118027,1.268927,-6.380548,-0.085534,0.012391,0.036639
11266,-4.115633,1.517924,-6.370971,-0.085268,0.033441,0.051827
11281,-4.194641,1.534683,-6.174646,-0.057156,0.046098,0.029711
11296,-4.007894,1.596933,-6.363788,-0.027046,0.050761,0.007328
11311,-4.019865,1.441309,-6.390124,-0.004530,0.038637,-0.006662
11326,-4.113238,1.419762,-6.435614,0.004130,0.021317,-0.002265
11341,-4.127604,1.460463,-6.564901,-0.022383,0.017187,0.007061
11356,-3.948039,1.369483,-6.347029,-0.053026,0.001199,0.013989
11371,-3.943250,1.400608,-6.385336,-0.100590,-0.000533,0.022916
11386,-4.015076,1.486799,-6.385336,-0.116444,-0.000133,0.011724
11401,-4.118027,1.515530,-6.291962,-0.101655,0.004130,-0.011591
11416,-4.060566,1.618480,-6.212953,-0.059421,0.016254,-0.042368
11431,-3.907337,1.661576,-6.296751,0.012257,0.017587,-0.077674
11446,-4.165911,1.304840,-6.378153,0.025181,0.015721,-0.073410
11461,-4.199430,1.276109,-6.320693,-0.002798,0.005462,-0.055424
11476,-4.153940,1.264138,-6.323087,-0.004397,0.013856,-0.037438
11491,-4.065354,1.151611,-6.313510,-0.043433,0.019718,0.004930
11506,-4.132392,1.233014,-6.351817,-0.068481,0.021450,0.037971
11521,-4.072537,1.307234,-6.248867,-0.076874,0.025847,0.045832
11536,-3.981557,1.534683,-6.320693,-0.072478,0.021051,0.046764
11551,-3.902549,1.654393,-6.241684,-0.023582,0.017587,0.031309
11566,-4.156334,1.379060,-6.215347,-0.017054,0.015055,0.025980
11581,-4.240131,1.513135,-6.378153,-0.004930,0.020251,0.017720
11596,-4.101267,1.513135,-6.299145,-0.001466,0.028911,-0.000933
11611,-3.983952,1.477222,-6.330269,-0.006928,0.038104,-0.004930
11626,-4.043807,1.417367,-6.380548,-0.034907,0.032642,-0.004530
11641,-4.086902,1.407791,-6.435614,-0.048096,0.024781,-0.001066
11656,-3.957615,1.537077,-6.306327,-0.064750,0.016787,0.007194
11671,-4.024653,1.369483,-6.344635,-0.051560,0.037704,0.011458
11686,-4.060566,1.532289,-6.380548,-0.069147,0.029444,0.006528
11701,-4.108450,1.400608,-6.370971,-0.069014,0.025314,0.000666
11716,-4.146757,1.419762,-6.315904,-0.076075,0.036372,0.002531
11731,-3.971981,1.680730,-6.162675,-0.056757,0.041568,-0.000133
11746,-4.132392,1.618480,-6.303933,-0.008260,0.024515,-0.016521
11761,-4.240131,1.414973,-6.409278,0.003997,0.026113,-0.024914
11776,-4.161122,1.367089,-6.421249,-0.011591,0.025714,-0.008127
11791,-4.043807,1.335965,-6.607996,-0.049695,0.027179,0.019718
11806,-3.995923,1.467646,-6.471527,-0.081538,0.031443,0.031043
11821,-4.139575,1.561020,-6.452374,-0.077940,0.034107,0.017054
11836,-4.022259,1.644817,-6.445191,-0.045698,0.029844,-0.008394
11851,-3.955221,1.635240,-6.387730,-0.007861,0.015988,-0.025314
11866,-4.060566,1.400608,-6.485892,-0.007461,0.016787,-0.029444
11881,-4.094085,1.343147,-6.416461,-0.020784,0.013190,-0.014922
11896,-4.053383,1.323994,-6.409278,-0.047830,0.003597,0.010925
11911,-4.043807,1.410185,-6.414066,-0.063685,0.014389,0.023715
11926,-4.017470,1.441309,-6.414066,-0.065150,0.019185,0.026779
11941,-3.962404,1.513135,-6.320693,-0.060887,-0.000400,0.018386
11956,-3.926491,1.419762,-6.382942,-0.106985,0.011191,0.041168
11971,-4.065354,1.484405,-6.378153,-0.111115,0.009193,0.045965
11986,-4.194641,1.594538,-6.289568,-0.070879,0.002531,0.011191
12001,-4.000711,1.778892,-6.303933,-0.013057,-0.003864,-0.021317
12016,-4.079720,1.381454,-6.330269,0.016787,0.006795,-0.027179
12031,-4.122815,1.259350,-6.373365,-0.013456,-0.000266,0.000666
12046,-4.096479,1.383849,-6.359000,-0.021717,-0.006795,0.023449
12061,-4.022259,1.517924,-6.301539,-0.014389,-0.002931,0.017720
12076,-3.909731,1.470040,-6.287174,-0.017320,0.012124,0.019851
12091,-4.079720,1.405396,-6.416461,-0.038504,0.031842,0.018519
12106,-3.964798,1.517924,-6.366182,-0.052227,0.034640,0.012657
12121,-3.859453,1.733402,-6.327875,-0.051560,0.022250,-0.002265
12136,-3.969586,1.666364,-6.327875,-0.009593,0.009593,-0.028778
12151,-4.134786,1.431733,-6.433220,0.001066,0.011724,-0.032508
12166,-4.211401,1.283292,-6.409278,-0.010126,0.019452,-0.011458
12181,-4.125209,1.367089,-6.370971,-0.032642,0.028645,0.010925
12196,-3.971981,1.448492,-6.459556,-0.048763,0.032242,0.022250
12211,-3.964798,1.431733,-6.423643,-0.062885,0.023848,0.033041
12226,-4.134786,1.539472,-6.299145,-0.057289,0.018919,0.027579
12241,-4.113238,1.637634,-6.270414,-0.026913,0.017587,0.010658
12256,-4.039018,1.563414,-6.404490,0.004930,0.022783,-0.002398
12271,-4.151546,1.438915,-6.409278,0.010525,0.019851,-0.007594
12286,-4.244920,1.458069,-6.466739,0.017720,0.025580,-0.004263
12301,-4.120421,1.374272,-6.476315,-0.003064,0.026913,0.001066
12316,-3.964798,1.383849,-6.502652,-0.039170,0.010259,0.022916
12331,-4.007894,1.331176,-6.521805,-0.073410,-0.010792,0.043966
12346,-4.024653,1.529895,-6.402095,-0.091397,-0.027579,0.048763
12361,-4.027047,1.683124,-6.402095,-0.068881,-0.021051,0.030510
12376,-3.895366,1.716643,-6.330269,-0.031842,-0.002798,0.010126
12391,-4.003105,1.716643,-6.289568,0.014655,0.001199,-0.030377
12406,-4.058172,1.599327,-6.380548,0.053426,-0.001732,-0.043167
12421,-4.058172,1.403002,-6.339846,0.033974,-0.001199,-0.034640
12436,-3.931279,1.206678,-6.466739,-0.025580,-0.003730,0.002265
12451,-4.007894,1.206678,-6.378153,-0.087533,-0.002931,0.040769
12466,-4.146757,1.331176,-6.296751,-0.128568,0.006795,0.056890
12481,-3.981557,1.690306,-6.270414,-0.113513,0.006662,0.048363
12496,-3.847482,1.903390,-6.200982,-0.046364,-0.014522,0.003464
12511,-4.055778,1.781286,-6.315904,0.038237,-0.004530,-0.038770
12526,-4.220977,1.383849,-6.291962,0.046631,0.010925,-0.039703
12541,-4.060566,1.235408,-6.382942,0.001199,0.025314,-0.014655
12556,-3.897760,1.376666,-6.404490,-0.049029,0.017054,0.015322
12571,-3.964798,1.436521,-6.390124,-0.088466,0.000799,0.024115
12586,-4.050989,1.479617,-6.294356,-0.092995,-0.004796,0.014389
12601,-4.062960,1.582567,-6.232107,-0.076741,-0.001332,0.000266
12616,-3.964798,1.723825,-6.136339,-0.031709,0.011325,-0.017453
12631,-3.945644,1.611298,-6.234501,0.014922,0.020384,-0.042101
12646,-4.149151,1.443704,-6.351817,0.023315,0.032642,-0.032642
12661,-4.098873,1.323994,-6.227318,0.007461,0.025714,-0.014922
12676,-4.034230,1.209072,-6.327875,-0.034640,0.032109,0.017986
12691,-4.017470,1.314417,-6.318298,-0.074876,0.021983,0.040369
12706,-4.192247,1.498770,-6.155492,-0.080205,0.013856,0.041568
12721,-4.149151,1.716643,-6.294356,-0.052893,0.025181,0.018652
12736,-3.986346,1.889025,-6.244078,0.020118,0.037838,-0.014789
12751,-4.027047,1.628057,-6.404490,0.081404,0.039703,-0.045165
12766,-4.118027,1.187524,-6.519411,0.068348,0.028378,-0.031842
12781,-4.053383,1.074997,-6.493075,0.004930,0.018786,0.011991
12796,-4.031836,1.170765,-6.423643,-0.079273,0.000400,0.061153
12811,-4.048595,1.436521,-6.342240,-0.105253,0.000933,0.079273
12826,-4.151546,1.589750,-6.359000,-0.091930,0.020251,0.064217
12841,-4.127604,1.874660,-6.342240,-0.048896,0.035440,0.026646
12856,-3.871424,1.944092,-6.311116,0.025181,0.036239,-0.034507
12871,-4.031836,1.541866,-6.452374,0.046764,0.031309,-0.059821
12886,-4.201824,1.273715,-6.502652,-0.000933,0.037704,-0.046098
12901,-4.161122,1.261744,-6.483498,-0.061553,0.038504,-0.014522
12916,-3.976769,1.513135,-6.387730,-0.090864,0.010925,0.002132
12931,-4.029441,1.661576,-6.442797,-0.057956,-0.016654,-0.001199
12946,-4.156334,1.441309,-6.339846,-0.038371,-0.022783,0.006795
12961,-4.120421,1.391031,-6.344635,-0.022250,-0.006129,0.016521
12976,-4.053383,1.395820,-6.308722,-0.019052,0.013590,0.027179
12991,-4.050989,1.486799,-6.361394,-0.015988,0.034107,0.030643
13006,-4.106056,1.357512,-6.426037,-0.022516,0.043300,0.029044
13021,-3.976769,1.448492,-6.361394,-0.035040,0.019985,0.027979
13036,-3.866636,1.558625,-6.301539,-0.036639,-0.007061,0.029844
13051,-3.842694,1.465251,-6.351817,-0.050095,-0.025447,0.017320
13066,-4.129998,1.441309,-6.200982,-0.040769,-0.019185,0.007328
13081,-4.165911,1.577779,-6.186617,-0.005063,0.021051,-0.008394
13096,-4.062960,1.651999,-6.256049,0.021717,0.063551,-0.020917
13111,-4.036624,1.381454,-6.382942,0.032908,0.068614,-0.019851
13126,-4.101267,1.304840,-6.457162,-0.002931,0.048096,0.001732
13141,-3.928885,1.314417,-6.497863,-0.054092,0.008527,0.023582
13156,-3.955221,1.491588,-6.354211,-0.081937,-0.010392,0.035306
13171,-4.094085,1.709460,-6.339846,-0.057956,-0.022116,0.031576
13186,-4.206612,1.673547,-6.265626,-0.004930,0.008793,0.005596
13201,-4.127604,1.474828,-6.375759,0.020917,0.039570,-0.007861
13216,-3.981557,1.431733,-6.332664,0.009459,0.040769,-0.001199
13231,-3.902549,1.398214,-6.327875,-0.028245,0.026513,0.012391
13246,-4.029441,1.374272,-6.279991,-0.065683,0.001599,0.030243
13261,-4.134786,1.541866,-6.289568,-0.057023,-0.002798,0.025580
13276,-4.043807,1.647211,-6.272809,-0.031309,0.007061,0.012657
13291,-4.153940,1.644817,-6.323087,-0.000266,0.024381,-0.005329
13306,-4.158728,1.520318,-6.442797,0.015588,0.015855,-0.011858
13321,-4.139575,1.410185,-6.517017,-0.004663,0.013190,-0.005995
13336,-4.055778,1.369483,-6.466739,-0.037571,0.012790,0.012124
13351,-3.916914,1.422156,-6.399701,-0.078340,-0.000400,0.024781
13366,-4.065354,1.515530,-6.330269,-0.077674,0.003597,0.033841
13381,-4.072537,1.592144,-6.265626,-0.071279,0.022383,0.027712
13396,-3.904943,1.826776,-6.248867,-0.046498,0.013057,0.007061
13411,-3.916914,1.905784,-6.390124,0.022250,0.004130,-0.040236
13426,-4.118027,1.505953,-6.488286,0.039170,0.001732,-0.062219
13441,-4.072537,1.213860,-6.483498,-0.009593,0.006528,-0.043966
13456,-4.003105,1.273715,-6.394913,-0.059688,0.013190,-0.007061
13471,-3.940856,1.412579,-6.438008,-0.065550,0.019985,0.021850
13486,-4.058172,1.326388,-6.390124,-0.075675,0.018253,0.039969
13501,-4.072537,1.563414,-6.385336,-0.051560,0.018253,0.025314
13516,-4.027047,1.558625,-6.279991,-0.022916,0.009326,0.003997
13531,-4.050989,1.335965,-6.246472,-0.040236,0.021051,0.000533
13546,-4.024653,1.470040,-6.392519,-0.042501,0.028911,-0.005462
13561,-4.017470,1.443704,-6.256049,-0.010792,0.015988,-0.011858
13576,-3.988740,1.403002,-6.404490,-0.006395,0.014123,-0.001332
13591,-3.914520,1.355118,-6.275203,-0.012124,0.017054,0.017986
13606,-4.005499,1.482011,-6.337452,-0.012657,0.017853,0.015721
13621,-4.101267,1.493982,-6.342240,-0.003997,0.023582,0.006262
13636,-4.039018,1.364695,-6.351817,-0.034507,0.018519,0.021450
13651,-3.986346,1.539472,-6.337452,-0.042634,0.006928,0.026779
13666,-4.024653,1.608904,-6.320693,-0.025580,0.000666,0.021583
13681,-3.995923,1.568202,-6.169858,0.002398,0.012391,0.006129
13696,-4.058172,1.553837,-6.263232,0.018786,0.027179,-0.010525
13711,-3.993528,1.424550,-6.351817,0.024115,0.036372,-0.022383
13726,-4.173093,1.335965,-6.339846,-0.017054,0.037571,-0.004930
13741,-4.125209,1.417367,-6.323087,-0.047697,0.041568,0.011458
13756,-4.027047,1.515530,-6.351817,-0.041968,0.033041,0.015721
13771,-3.986346,1.611298,-6.397307,-0.034507,0.007061,0.016920
13786,-4.074931,1.450886,-6.385336,-0.029577,-0.001599,0.019718
13801,-4.110844,1.403002,-6.356606,-0.038770,0.013057,0.029044
13816,-4.118027,1.505953,-6.397307,-0.051827,0.038904,0.032908
13831,-3.914520,1.656788,-6.380548,-0.053692,0.027712,0.015188
13846,-3.926491,1.632846,-6.493075,-0.033041,0.018786,-0.021450
13861,-4.062960,1.446098,-6.406884,-0.027046,0.008793,-0.030776
13876,-4.022259,1.400608,-6.426037,-0.049562,-0.004130,-0.010925
13891,-4.031836,1.340753,-6.330269,-0.049029,0.003864,0.005329
13906,-4.122815,1.458069,-6.404490,-0.032242,0.013856,0.015455
13921,-4.110844,1.307234,-6.418855,-0.034640,0.032775,0.018386
13936,-4.010288,1.455675,-6.392519,-0.048096,0.021850,0.025181
13951,-3.871424,1.496376,-6.447585,-0.073277,-0.005729,0.034507
13966,-3.940856,1.527501,-6.318298,-0.082204,-0.025847,0.026247
13981,-4.120421,1.450886,-6.270414,-0.080072,-0.022649,0.023315
13996,-4.141969,1.680730,-6.215347,-0.049962,0.008660,0.007194
14011,-4.041412,1.575385,-6.248867,-0.005196,0.051028,-0.003997
14026,-4.082114,1.474828,-6.311116,-0.009726,0.058089,-0.005196
14041,-3.957615,1.594538,-6.344635,0.001066,0.033441,-0.011591
14056,-3.928885,1.462857,-6.452374,-0.001732,0.007061,-0.012657
14071,-4.036624,1.333570,-6.373365,-0.033041,0.002531,0.012524
14086,-4.015076,1.309628,-6.337452,-0.065949,-0.005862,0.039436
14101,-4.127604,1.448492,-6.323087,-0.088066,0.025580,0.043167
14116,-4.072537,1.594538,-6.332664,-0.081138,0.026513,0.043700
14131,-3.900155,1.812411,-6.323087,-0.022783,0.047430,0.026779
14146,-4.050989,1.709460,-6.299145,0.022916,0.032642,0.000933
14161,-4.101267,1.529895,-6.308722,0.033041,0.018386,-0.001332
14176,-4.144363,1.400608,-6.471527,0.019052,0.014389,0.004663
14191,-4.005499,1.280898,-6.473921,-0.050894,0.006528,0.034907
14206,-3.995923,1.505953,-6.478710,-0.092063,0.001599,0.042234
14221,-4.003105,1.671153,-6.469133,-0.065550,-0.012524,0.019985
14236,-3.926491,1.620875,-6.337452,-0.038104,-0.028778,-0.001466
14251,-3.981557,1.551443,-6.315904,-0.032508,-0.019452,-0.006129
14266,-4.153940,1.549048,-6.296751,-0.025314,0.014389,-0.011325
14281,-4.113238,1.561020,-6.263232,-0.002665,0.036505,-0.009992
14296,-4.010288,1.491588,-6.311116,-0.018919,0.034240,-0.005462
14311,-3.881001,1.628057,-6.445191,0.011591,0.025181,-0.023049
14326,-3.960010,1.290475,-6.368577,-0.019319,0.002531,-0.010126
14341,-4.158728,1.300051,-6.258443,-0.062086,-0.003997,0.023582
14356,-4.204218,1.522712,-6.301539,-0.058355,0.016254,0.033441
14371,-4.050989,1.520318,-6.289568,-0.045032,0.037971,0.027845
14386,-3.967192,1.613692,-6.335058,-0.025314,0.047830,0.014789
14401,-4.039018,1.558625,-6.447585,-0.020118,0.035706,0.009459
14416,-3.950433,1.486799,-6.397307,-0.037038,0.019319,0.006528
14431,-3.804386,1.604115,-6.260838,-0.049029,0.006928,0.004397
14446,-4.041412,1.642422,-6.291962,-0.037704,0.010925,-0.011591
14461,-4.163517,1.587356,-6.337452,-0.024781,0.024914,-0.028645
14476,-4.106056,1.482011,-6.406884,-0.028378,0.039303,-0.030510
14491,-4.055778,1.460463,-6.512228,-0.048896,0.029844,-0.010126
14506,-3.979163,1.474828,-6.440403,-0.068747,0.020784,0.005196
14521,-4.015076,1.493982,-6.452374,-0.056623,-0.011191,0.013456
14536,-4.091691,1.379060,-6.327875,-0.074743,-0.014256,0.025980
14551,-4.137180,1.587356,-6.145916,-0.053159,0.011858,0.013323
14566,-4.003105,1.558625,-6.279991,-0.023582,0.038104,0.009060
14581,-4.089296,1.537077,-6.323087,-0.006928,0.040236,0.005063
14596,-3.993528,1.403002,-6.430826,-0.028378,0.031709,0.014922
14611,-3.928885,1.539472,-6.536170,-0.055025,0.026513,0.020118
14626,-3.864241,1.539472,-6.404490,-0.069813,0.004530,0.011858
14641,-3.960010,1.613692,-6.397307,-0.056490,-0.003997,-0.001199
14656,-4.084508,1.644817,-6.399701,-0.019319,0.007727,-0.018119
14671,-3.967192,1.611298,-6.303933,0.012657,0.024381,-0.029444
14686,-4.000711,1.453280,-6.308722,0.022250,0.043167,-0.023182
14701,-4.079720,1.328782,-6.483498,-0.003064,0.040369,-0.004130
14716,-4.098873,1.247379,-6.435614,-0.048896,0.028911,0.026513
14731,-3.885789,1.338359,-6.342240,-0.104720,0.008394,0.044499
14746,-3.983952,1.723825,-6.382942,-0.079006,0.008127,0.031975
14761,-4.185064,1.654393,-6.409278,-0.022649,0.017720,0.003064
14776,-4.067749,1.395820,-6.488286,-0.018253,0.028645,0.010792
14791,-3.876213,1.587356,-6.574478,-0.002798,0.023582,0.021850
14806,-3.859453,1.319205,-6.433220,-0.038237,0.011058,0.048896
14821,-4.029441,1.510741,-6.387730,-0.063685,0.006129,0.064484
14836,-4.053383,1.623269,-6.291962,-0.061686,-0.011991,0.057423
14851,-4.108450,1.505953,-6.318298,-0.094194,-0.005596,0.067015
14866,-4.209006,1.572991,-6.440403,-0.104587,0.021717,0.063818
14881,-4.060566,1.874660,-6.351817,-0.060221,0.035040,0.020917
14896,-3.957615,1.766921,-6.466739,-0.011325,0.024248,-0.019319
14911,-3.842694,1.482011,-6.545747,-0.021184,0.006129,-0.012524
14926,-3.854665,1.532289,-6.380548,-0.055424,-0.000799,0.009593
14941,-4.101267,1.618480,-6.222530,-0.069014,-0.016521,0.025980
14956,-4.106056,1.671153,-6.248867,-0.038104,0.009459,0.010792
14971,-3.936068,1.747767,-6.258443,-0.019985,0.046231,-0.011058
14986,-3.976769,1.647211,-6.363788,0.001199,0.045565,-0.023982
15001,-4.015076,1.563414,-6.449979,-0.003997,0.012391,-0.027446
15016,-4.072537,1.410185,-6.435614,-0.040369,-0.010126,-0.014256
15031,-4.074931,1.527501,-6.354211,-0.064484,-0.029711,0.008926
15046,-4.003105,1.551443,-6.181828,-0.066749,-0.006928,0.023582
15061,-4.132392,1.642422,-6.323087,-0.050095,0.021051,0.025847
15076,-3.964798,1.699883,-6.327875,-0.010392,0.033308,0.014123
15091,-3.878607,1.608904,-6.438008,-0.011191,0.037172,0.002132
15106,-3.881001,1.529895,-6.433220,-0.044899,0.027712,-0.002531
15121,-3.998317,1.625663,-6.342240,-0.059954,0.007594,-0.010792
15136,-4.072537,1.649605,-6.287174,-0.061420,-0.002531,-0.022516
15151,-4.046201,1.841141,-6.337452,-0.005462,0.015588,-0.040902
15166,-3.718195,1.520318,-6.282385,0.036905,0.003997,-0.059954
15181,-4.149151,1.237802,-6.244078,-0.022783,0.032908,-0.018119
15196,-4.043807,1.520318,-6.323087,-0.052760,0.025580,0.007727
15211,-3.974375,1.505953,-6.251261,-0.074210,0.017054,0.030510
15226,-3.988740,1.580173,-6.191405,-0.080072,0.031842,0.028112
15241,-4.129998,1.668759,-6.234501,-0.052493,0.027979,0.009859
15256,-4.086902,1.714248,-6.378153,-0.005729,0.026113,-0.021717
15271,-3.974375,1.630451,-6.416461,0.015188,0.024781,-0.037704
15286,-3.897760,1.412579,-6.517017,-0.010658,0.009726,-0.022516
15301,-4.060566,1.295263,-6.344635,-0.063551,0.001599,0.009326
15316,-4.091691,1.525106,-6.339846,-0.079672,-0.009193,0.033841
15331,-3.952827,1.707066,-6.200982,-0.070479,0.006395,0.038104
15346,-4.017470,1.771709,-6.332664,-0.038104,0.029444,0.026113
15361,-4.036624,1.750161,-6.406884,-0.016787,0.040236,0.004263
15376,-3.976769,1.683124,-6.454768,-0.002531,0.026247,-0.017720
15391,-3.878607,1.537077,-6.435614,-0.018652,0.017720,-0.021850
15406,-3.909731,1.515530,-6.308722,-0.038371,0.006528,-0.011458
15421,-4.003105,1.522712,-6.212953,-0.046631,0.008394,-0.004796
15436,-4.036624,1.450886,-6.145916,-0.056623,-0.013590,0.014789
15451,-4.043807,1.692701,-6.344635,-0.046764,0.014389,0.012391
15466,-3.957615,1.721431,-6.284780,-0.010392,0.029711,-0.003864
15481,-4.050989,1.474828,-6.438008,-0.015588,0.021051,-0.000933
15496,-3.988740,1.431733,-6.445191,-0.045032,0.020118,0.005862
15511,-3.991134,1.498770,-6.493075,-0.077008,0.006662,0.021317
15526,-3.991134,1.711854,-6.279991,-0.063818,0.004796,0.020651
15541,-4.115633,1.810017,-6.275203,-0.013456,0.025714,-0.002531
15556,-4.091691,1.836353,-6.370971,0.043167,0.027179,-0.038237
15571,-4.046201,1.630451,-6.521805,0.064884,0.010392,-0.051294
15586,-3.957615,1.343147,-6.588843,0.018652,0.011591,-0.025047
15601,-4.029441,1.302446,-6.567295,-0.049562,0.004130,0.017853
15616,-3.878607,1.424550,-6.373365,-0.095260,-0.015455,0.047297
15631,-4.077325,1.561020,-6.253655,-0.100723,0.000000,0.046498
15646,-4.110844,1.711854,-6.256049,-0.049162,0.023182,0.021184
15661,-4.072537,1.474828,-6.205770,-0.059021,0.015988,0.020784
15676,-3.842694,1.833959,-6.327875,-0.035440,0.009992,0.014655
15691,-3.940856,1.644817,-6.476315,0.001466,0.020784,0.006262
15706,-4.094085,1.527501,-6.416461,-0.022783,0.017453,0.014389
15721,-3.957615,1.501164,-6.454768,-0.053825,0.003997,0.039170
15736,-3.981557,1.589750,-6.411672,-0.086067,-0.003064,0.051694
15751,-4.120421,1.802834,-6.263232,-0.093262,0.027312,0.029444
15766,-4.139575,1.877054,-6.359000,-0.045165,0.043034,-0.004796
15781,-3.957615,1.984793,-6.270414,0.023715,0.036505,-0.048629
15796,-3.854665,1.656788,-6.440403,0.040369,0.016920,-0.053825
15811,-3.952827,1.276109,-6.454768,-0.010792,-0.000799,-0.009859
15826,-4.041412,1.350330,-6.394913,-0.068481,-0.015322,0.033175
15841,-4.079720,1.592144,-6.301539,-0.092596,0.006795,0.064484
15856,-3.938462,1.877054,-6.251261,-0.059554,0.014522,0.047430
15871,-3.991134,1.723825,-6.236896,-0.045165,0.015721,0.024914
15886,-4.086902,1.747767,-6.296751,-0.035040,0.020384,0.009859
15901,-4.017470,1.630451,-6.356606,-0.035040,0.020118,-0.010126
15916,-3.928885,1.534683,-6.279991,-0.041701,0.017320,-0.007061
15931,-3.976769,1.613692,-6.284780,-0.050095,0.006528,0.002132
15946,-4.098873,1.580173,-6.275203,-0.048629,0.013323,0.015988
15961,-4.074931,1.666364,-6.186617,-0.061153,0.033175,0.025980
15976,-3.914520,1.900996,-6.294356,-0.029577,0.039170,0.011058
15991,-3.933673,1.757344,-6.442797,-0.008926,0.034640,-0.014655
16006,-4.106056,1.551443,-6.392519,-0.023049,0.032642,-0.017720
16021,-4.084508,1.580173,-6.445191,-0.044766,0.024515,-0.009992
16036,-4.094085,1.671153,-6.402095,-0.053026,0.029844,-0.011591
16051,-4.012682,1.745373,-6.426037,-0.035972,0.020784,-0.017453
16066,-4.072537,1.527501,-6.385336,-0.034107,0.028378,-0.007727
16081,-4.067749,1.572991,-6.461950,-0.042501,0.021983,0.007061
16096,-3.904943,1.575385,-6.332664,-0.044366,0.009859,0.026113
16111,-3.952827,1.575385,-6.308722,-0.064617,0.002931,0.032109
16126,-4.077325,1.810017,-6.277597,-0.037438,0.005596,0.012524
16141,-4.050989,1.702277,-6.318298,0.006262,0.021317,-0.007194
16156,-4.041412,1.608904,-6.447585,0.008127,0.031576,-0.015322
16171,-3.811569,1.539472,-6.555324,-0.023982,0.019718,0.000666
16186,-3.943250,1.546654,-6.521805,-0.053825,0.001599,0.007594
16201,-4.005499,1.568202,-6.392519,-0.061420,-0.024781,0.000400
16216,-3.957615,1.596933,-6.244078,-0.066083,-0.027979,0.003864
16231,-4.118027,1.843535,-6.332664,-0.014123,0.000799,-0.009593
16246,-4.027047,1.601721,-6.165069,0.004397,-0.001466,-0.021184
16261,-3.998317,1.644817,-6.277597,0.015721,0.036905,-0.017853
16276,-3.993528,1.594538,-6.390124,0.009193,0.036905,-0.020518
16291,-3.869030,1.477222,-6.426037,-0.023715,0.011191,0.003198
16306,-3.993528,1.616086,-6.351817,-0.043433,-0.015055,0.018786
16321,-4.127604,1.625663,-6.332664,-0.047297,-0.019452,0.025447
16336,-4.096479,1.666364,-6.265626,-0.054092,0.003331,0.029311
16351,-3.950433,1.723825,-6.296751,-0.035440,0.020384,0.021317
16366,-3.969586,1.731008,-6.361394,0.009859,0.022116,0.003464
16381,-4.012682,1.565808,-6.445191,-0.015455,0.022383,0.007994
16396,-3.861847,1.611298,-6.282385,-0.021717,0.018253,0.010392
16411,-3.931279,1.620875,-6.337452,-0.038637,0.011724,0.007194
16426,-4.029441,1.630451,-6.299145,-0.049296,0.021850,0.001732
16441,-4.211401,1.704672,-6.212953,-0.034640,0.028378,-0.008793
16456,-3.983952,1.690306,-6.323087,-0.011591,0.025314,-0.018919
16471,-3.909731,1.570596,-6.349423,0.006795,0.012124,-0.015322
16486,-3.955221,1.391031,-6.452374,-0.015322,0.003997,0.009726
16501,-4.103662,1.429338,-6.399701,-0.055557,0.001599,0.043167
16516,-3.936068,1.661576,-6.351817,-0.078340,0.003864,0.047430
16531,-3.857059,1.877054,-6.270414,-0.059954,0.000266,0.034773
16546,-4.031836,1.817199,-6.253655,-0.024115,0.011591,0.009459
16561,-4.185064,1.774103,-6.387730,0.000000,0.027579,-0.010525
16576,-4.074931,1.613692,-6.354211,-0.012257,0.024914,-0.007594
16591,-3.919308,1.568202,-6.414066,-0.039037,0.016387,0.002398
16606,-3.924097,1.537077,-6.399701,-0.069280,0.000000,0.010658
16621,-3.995923,1.556231,-6.378153,-0.081538,-0.002931,0.015721
16636,-4.007894,1.711854,-6.287174,-0.094994,0.000000,0.019585
16651,-3.833117,1.881842,-6.162675,-0.062219,0.005862,-0.005063
16666,-4.122815,1.956063,-6.191405,-0.024381,0.033175,-0.033041
16681,-4.182670,1.824382,-6.344635,0.031443,0.019985,-0.064750
16696,-4.048595,1.544260,-6.387730,0.035173,0.029044,-0.062086
16711,-3.936068,1.403002,-6.493075,-0.010658,0.026247,-0.026380
16726,-3.981557,1.446098,-6.519411,-0.065816,0.010392,0.008260
16741,-4.019865,1.651999,-6.485892,-0.080072,0.000133,0.017720
16756,-3.979163,1.731008,-6.354211,-0.065150,0.003464,0.010658
16771,-3.945644,1.678335,-6.335058,-0.065683,0.000666,0.008260
16786,-4.041412,1.651999,-6.373365,-0.041568,0.007328,0.008793
16801,-4.082114,1.599327,-6.370971,-0.052760,0.008926,0.012257
16816,-4.005499,1.704672,-6.287174,-0.030776,0.012790,0.002398
16831,-3.892972,1.850718,-6.325481,-0.003064,0.007328,-0.017453
16846,-4.074931,1.632846,-6.399701,0.023982,0.009859,-0.023315
16861,-4.163517,1.376666,-6.418855,-0.002931,0.008793,-0.007994
16876,-4.086902,1.426944,-6.359000,-0.057289,0.001865,0.021583
16891,-3.995923,1.649605,-6.215347,-0.075009,0.000133,0.027179
16906,-4.072537,1.702277,-6.275203,-0.057423,-0.000133,0.021983
16921,-4.103662,1.673547,-6.256049,-0.044766,0.002398,0.013856
16936,-4.019865,1.812411,-6.311116,-0.007328,0.013323,0.005196
16951,-3.948039,1.771709,-6.330269,0.020784,0.016254,-0.006528
16966,-4.027047,1.527501,-6.399701,-0.008926,0.026779,0.006129
16981,-4.141969,1.534683,-6.258443,-0.035706,0.031176,0.016254
16996,-4.062960,1.735796,-6.339846,-0.065150,0.026779,0.022250
17011,-3.890578,1.783680,-6.215347,-0.045965,0.019319,0.010792
17026,-4.000711,1.697489,-6.375759,-0.023715,0.012257,0.001332
17041,-4.005499,1.618480,-6.272809,-0.011458,0.008660,0.007861
17056,-4.091691,1.675941,-6.279991,-0.016787,0.011458,0.013323
17071,-3.842694,1.793257,-6.301539,-0.002665,-0.001599,0.013190
17086,-3.952827,1.520318,-6.279991,0.000933,0.024515,0.016920
17101,-4.180276,1.611298,-6.227318,-0.025714,0.040236,0.018119
17116,-4.058172,1.728614,-6.277597,-0.020651,0.045832,0.003997
17131,-3.957615,1.766921,-6.335058,-0.020784,0.042368,-0.005862
17146,-3.962404,1.651999,-6.342240,-0.030510,0.038637,-0.015455
17161,-4.067749,1.611298,-6.438008,-0.047697,0.034240,-0.017187
17176,-3.974375,1.663970,-6.282385,-0.060753,0.014655,-0.017054
17191,-3.909731,1.764527,-6.356606,-0.032775,0.000933,-0.013856
17206,-4.110844,1.601721,-6.306327,-0.038904,-0.000799,0.000400
17221,-4.206612,1.580173,-6.428432,-0.045165,0.026247,0.017587
17236,-4.127604,1.613692,-6.368577,-0.064484,0.026113,0.019585
17251,-4.005499,1.671153,-6.505046,-0.065283,0.031842,0.015721
17266,-4.046201,1.663970,-6.473921,-0.054891,0.014123,-0.001732
17281,-4.043807,1.640028,-6.392519,-0.042767,0.001865,-0.004663
17296,-4.067749,1.690306,-6.459556,-0.013456,-0.006662,-0.010925
17311,-4.022259,1.563414,-6.323087,-0.026247,0.007194,0.001199
17326,-3.960010,1.692701,-6.320693,-0.002798,0.003331,0.003198
17341,-4.173093,1.455675,-6.270414,0.000133,-0.000266,0.012657
17356,-4.005499,1.587356,-6.394913,-0.025980,0.004530,0.027446
17371,-3.933673,1.618480,-6.330269,-0.032242,0.013856,0.026247
17386,-3.964798,1.850718,-6.270414,-0.026513,0.000799,0.022783
17401,-4.034230,1.860295,-6.394913,0.018119,-0.020118,-0.012790
17416,-4.048595,1.553837,-6.423643,0.004796,-0.028645,-0.004663
17431,-3.928885,1.541866,-6.217741,-0.029977,-0.008926,0.015055
17446,-3.971981,1.690306,-6.253655,-0.042501,-0.020118,0.023182
17461,-4.173093,1.757344,-6.294356,-0.030510,0.018786,0.006262
17476,-4.110844,1.714248,-6.332664,-0.024381,0.015855,-0.011991
17491,-4.027047,1.577779,-6.351817,-0.034107,0.011058,-0.016254
17506,-3.933673,1.508347,-6.385336,-0.057423,-0.013323,-0.003331
17521,-4.094085,1.623269,-6.270414,-0.055957,-0.039436,0.010525
17536,-4.134786,1.702277,-6.351817,-0.021983,-0.031443,0.012790
17551,-4.019865,1.539472,-6.143521,-0.041168,-0.030243,0.032109
17566,-3.928885,1.640028,-6.124368,-0.055158,0.021450,0.044766
17581,-4.079720,1.821988,-6.220136,-0.038371,0.027179,0.017986
17596,-4.106056,1.807622,-6.315904,-0.023582,0.036505,-0.005063
17611,-4.091691,1.807622,-6.428432,0.005729,0.044233,-0.031576
17626,-3.962404,1.654393,-6.368577,0.017054,0.015055,-0.049429
17641,-4.089296,1.426944,-6.447585,0.007061,-0.005063,-0.025980
17656,-4.165911,1.479617,-6.320693,-0.021850,-0.005063,0.017853
17671,-4.055778,1.414973,-6.332664,-0.052626,-0.000400,0.052227
17686,-4.000711,1.592144,-6.284780,-0.096593,0.015588,0.084735
17701,-4.007894,1.790863,-6.315904,-0.083403,0.018919,0.069813
17716,-4.029441,1.802834,-6.330269,-0.052493,0.027579,0.032242
17731,-3.952827,1.874660,-6.368577,-0.026113,0.003730,0.003864
17746,-4.062960,1.754950,-6.272809,-0.011991,0.007861,-0.019585
17761,-4.094085,1.640028,-6.248867,-0.008127,0.025314,-0.021184
17776,-4.149151,1.599327,-6.265626,-0.013723,0.039969,-0.008260
17791,-3.936068,1.625663,-6.289568,-0.032775,0.038904,0.009992
17806,-3.979163,1.666364,-6.335058,-0.038904,0.026646,0.019319
17821,-4.177882,1.601721,-6.476315,-0.045299,0.024248,0.027046
17836,-4.103662,1.671153,-6.399701,-0.065417,0.014256,0.026646
17851,-4.017470,1.838747,-6.270414,-0.050495,0.009459,0.007861
17866,-4.084508,1.742979,-6.318298,-0.032642,0.016654,-0.013723
17881,-4.163517,1.651999,-6.294356,-0.011991,0.036639,-0.021717
17896,-4.161122,1.651999,-6.378153,-0.003730,0.037305,-0.028645
17911,-3.945644,1.577779,-6.394913,0.011458,0.033175,-0.007194
17926,-3.981557,1.386243,-6.406884,-0.052093,0.011325,0.036905
17941,-3.888184,1.623269,-6.315904,-0.077807,0.011858,0.055691
17956,-4.046201,1.714248,-6.215347,-0.053559,0.003198,0.039303
17971,-4.050989,1.764527,-6.121974,-0.023982,0.012391,0.025047
17986,-4.065354,1.709460,-6.131550,-0.021850,0.042767,0.009992
18001,-3.986346,1.853112,-6.363788,-0.001998,0.046364,-0.009193
18016,-4.084508,1.752556,-6.392519,0.005329,0.032109,-0.024115
18031,-4.024653,1.553837,-6.466739,-0.020251,0.022250,-0.010126
18046,-3.881001,1.570596,-6.409278,-0.073943,0.002665,0.022916
18061,-4.022259,1.647211,-6.272809,-0.091263,0.004796,0.043167
18076,-4.141969,1.903390,-6.296751,-0.051560,0.022116,0.018386
18091,-4.165911,1.960851,-6.299145,-0.012790,0.025847,-0.012391
18106,-4.060566,1.807622,-6.311116,0.014655,0.035573,-0.035972
18121,-4.019865,1.592144,-6.457162,0.007194,0.034640,-0.024914
18136,-4.082114,1.510741,-6.509834,-0.034773,0.014256,-0.000666
18151,-3.928885,1.592144,-6.378153,-0.068614,0.003331,0.024115
18166,-3.943250,1.515530,-6.284780,-0.118176,-0.007727,0.049162
18181,-4.098873,1.793257,-6.275203,-0.125904,0.009193,0.048896
18196,-4.141969,2.003947,-6.459556,-0.042501,0.023715,0.009593
18211,-4.046201,1.812411,-6.421249,0.007061,0.020251,-0.018519
18226,-3.902549,1.642422,-6.457162,0.011591,0.007461,-0.025047
18241,-3.940856,1.479617,-6.426037,-0.030643,-0.008260,-0.002265
18256,-4.048595,1.496376,-6.387730,-0.081404,-0.015988,0.025047
18271,-4.022259,1.616086,-6.287174,-0.110049,-0.003997,0.041835
18286,-3.895366,1.733402,-6.162675,-0.112980,0.011724,0.041302
18301,-3.950433,1.934515,-6.368577,-0.095127,0.016387,0.022649
18316,-4.132392,1.934515,-6.112397,-0.051560,0.006928,-0.010126
18331,-3.971981,1.922544,-6.244078,-0.000533,0.009326,-0.037704
18346,-3.926491,1.671153,-6.447585,-0.006928,0.007861,-0.033041
18361,-3.998317,1.623269,-6.308722,-0.031309,0.000000,-0.011858
18376,-4.187459,1.695095,-6.279991,-0.056757,0.000266,-0.002931
18391,-4.096479,1.848324,-6.359000,-0.067415,0.013057,-0.010658
18406,-4.041412,1.944092,-6.368577,-0.046098,0.021051,-0.035306
18421,-4.041412,1.764527,-6.351817,-0.038637,0.006129,-0.046764
18436,-4.170699,1.721431,-6.505046,-0.051028,0.003464,-0.028378
18451,-4.146757,1.812411,-6.452374,-0.026247,0.004930,-0.025580
18466,-4.082114,1.623269,-6.385336,-0.014256,0.005196,-0.002531
18481,-4.086902,1.479617,-6.347029,-0.071678,0.001865,0.035706
18496,-4.218583,1.656788,-6.256049,-0.098325,-0.005462,0.047031
18511,-4.173093,1.900996,-6.313510,-0.085135,-0.005862,0.027312
18526,-4.082114,1.980005,-6.394913,-0.045565,0.009726,-0.000799
18541,-4.101267,1.838747,-6.382942,-0.023182,0.013323,-0.030110
18556,-4.101267,1.719037,-6.435614,-0.011591,0.002665,-0.043167
18571,-3.957615,1.563414,-6.306327,-0.038371,-0.005462,-0.033441
18586,-3.952827,1.661576,-6.220136,-0.059554,-0.022783,-0.016787
18601,-4.031836,1.742979,-6.217741,-0.042368,-0.030243,-0.017720
18616,-4.120421,1.723825,-6.196194,-0.005862,-0.007328,-0.022116
18631,-4.115633,1.563414,-6.339846,0.019585,0.007061,-0.001732
18646,-4.022259,1.484405,-6.203376,-0.015988,0.018919,0.022516
18661,-3.897760,1.575385,-6.284780,-0.034640,0.010658,0.031842
18676,-4.094085,1.632846,-6.186617,-0.037038,-0.000933,0.035972
18691,-4.065354,1.697489,-6.157887,-0.032375,-0.002531,0.028645
18706,-3.936068,1.817199,-6.186617,-0.015988,-0.008127,0.011325
18721,-3.981557,1.711854,-6.289568,0.001732,-0.010525,-0.003064
18736,-4.070143,1.558625,-6.248867,-0.021983,-0.014922,0.002798
18751,-4.101267,1.589750,-6.270414,-0.032908,-0.009060,0.013723
18766,-4.036624,1.800440,-6.136339,-0.028511,0.004530,0.014922
18781,-4.019865,1.738190,-6.217741,-0.005729,0.004930,0.011724
18796,-4.072537,1.726219,-6.196194,0.002665,0.007994,0.008793
18811,-4.134786,1.745373,-6.234501,-0.009593,0.018786,0.004397
18826,-3.995923,1.707066,-6.363788,-0.029044,0.009992,0.002265
18841,-4.120421,1.671153,-6.294356,-0.040636,-0.003064,0.012257
18856,-4.213795,1.527501,-6.296751,-0.057822,0.003597,0.029444
18871,-4.271256,1.620875,-6.289568,-0.072211,-0.006129,0.062485
18886,-4.127604,1.850718,-6.296751,-0.076075,-0.014789,0.070746
18901,-3.907337,1.783680,-6.232107,-0.060354,-0.010392,0.059421
18916,-4.122815,1.908179,-6.347029,-0.062885,0.002265,0.048230
18931,-4.091691,1.946486,-6.239290,-0.019585,0.014522,0.003864
18946,-3.995923,1.884237,-6.212953,-0.006928,0.013856,-0.015721
18961,-3.988740,1.735796,-6.253655,-0.018253,0.013057,-0.014522
18976,-4.108450,1.659182,-6.272809,-0.047564,0.001066,-0.004930
18991,-4.115633,2.200271,-6.224924,-0.006262,-0.000266,-0.025314
19006,-3.995923,2.554613,-6.282385,0.131366,-0.015588,-0.114579
19021,-4.003105,1.884237,-6.256049,0.235153,-0.030776,-0.176265
19036,-4.192247,1.144428,-6.323087,0.165873,-0.039170,-0.130034
19051,-4.185064,0.902614,-6.347029,0.017853,-0.016121,-0.048629
19066,-4.151546,1.204283,-6.308722,-0.129234,0.010658,0.051694
19081,-4.122815,1.570596,-6.167463,-0.182660,0.026380,0.083270
19096,-4.158728,1.735796,-6.184223,-0.163874,0.033441,0.077141
19111,-4.244920,1.786074,-6.167463,-0.131233,0.039570,0.061420
19126,-4.113238,1.896208,-6.246472,-0.089798,0.022116,0.042634
19141,-3.964798,2.035071,-6.191405,-0.033175,0.002798,0.012657
19156,-4.091691,1.726219,-6.205770,0.011191,0.002798,-0.009992
19171,-4.158728,1.568202,-6.138733,0.003864,0.001998,-0.007194
19186,-4.039018,1.462857,-6.181828,-0.061020,0.011191,0.023449
19201,-3.991134,1.769315,-6.284780,-0.081005,0.045565,0.033441
19216,-4.189853,1.936909,-6.193799,-0.056890,0.043167,0.014789
19231,-4.137180,1.838747,-6.198588,-0.015721,0.039436,-0.026113
19246,-4.041412,1.721431,-6.301539,0.001599,0.024648,-0.033041
19261,-4.175488,1.505953,-6.229712,-0.018786,0.005196,-0.013323
19276,-4.197035,1.534683,-6.186617,-0.047830,0.008793,0.018253
19291,-4.074931,1.651999,-6.210559,-0.054625,0.020251,0.024115
19306,-4.086902,1.884237,-6.179434,-0.033175,0.033841,0.011858
19321,-4.125209,1.738190,-6.275203,-0.007861,0.023182,-0.009859
19336,-4.053383,1.654393,-6.296751,-0.001599,-0.000933,-0.004263
19351,-4.043807,1.443704,-6.224924,-0.036239,-0.008793,0.017587
19366,-4.108450,1.498770,-6.244078,-0.071545,-0.000266,0.043300
19381,-4.163517,1.630451,-6.169858,-0.070479,0.023315,0.049162
19396,-4.127604,1.714248,-6.162675,-0.050495,0.065150,0.044899
19411,-3.969586,1.630451,-6.217741,-0.063285,0.076208,0.055957
19426,-3.924097,1.663970,-6.172252,-0.102455,0.071145,0.065550
19441,-3.971981,1.970428,-6.222530,-0.071412,0.041835,0.035839
19456,-4.062960,2.181118,-6.143521,-0.000533,0.029178,-0.019718
19471,-4.048595,2.039860,-6.311116,0.065550,0.028778,-0.063951
19486,-4.127604,1.448492,-6.323087,0.038371,0.034773,-0.046764
19501,-4.180276,1.395820,-6.404490,-0.027845,0.055557,-0.001332
19516,-4.072537,1.522712,-6.248867,-0.102455,0.051161,0.036372
19531,-3.979163,1.805228,-6.241684,-0.118576,0.046498,0.047564
19546,-3.900155,1.793257,-6.332664,-0.104587,0.033308,0.045299
19561,-4.173093,1.886631,-6.428432,-0.060753,0.018652,0.027046
19576,-4.321534,1.740585,-6.347029,-0.028378,0.033974,0.018786
19591,-4.089296,1.716643,-6.402095,-0.023049,0.042634,0.018519
19606,-3.998317,1.719037,-6.406884,-0.028778,0.047031,0.025047
19621,-4.110844,1.601721,-6.409278,-0.047297,0.033175,0.040103
19636,-4.077325,1.663970,-6.366182,-0.079006,0.018386,0.059421
19651,-4.151546,1.936909,-6.356606,-0.093795,0.031576,0.069946
19666,-4.077325,2.008735,-6.387730,-0.062352,0.012124,0.043966
19681,-4.132392,1.879448,-6.327875,-0.042767,0.024648,0.019985
19696,-4.103662,2.037466,-6.258443,-0.006395,0.032242,-0.015588
19711,-3.983952,2.121263,-6.323087,0.042368,0.004263,-0.041968
19726,-4.122815,1.778892,-6.323087,0.045565,0.000533,-0.043833
19741,-4.098873,1.474828,-6.461950,0.009060,-0.004130,-0.012524
19756,-4.120421,1.489193,-6.399701,-0.060087,-0.013456,0.043300
19771,-3.983952,1.663970,-6.342240,-0.116044,0.001066,0.075809
19786,-3.969586,2.003947,-6.272809,-0.128435,-0.007328,0.068881
19801,-4.022259,1.920150,-6.186617,-0.104587,0.000799,0.039836
19816,-4.175488,2.217031,-6.215347,-0.043300,0.020118,-0.019319
19831,-4.027047,2.054225,-6.337452,0.024781,0.019185,-0.059421
19846,-4.015076,1.817199,-6.392519,0.048763,0.007328,-0.063018
19861,-4.031836,1.496376,-6.416461,0.022116,-0.004663,-0.029977
19876,-4.096479,1.352724,-6.406884,-0.065417,-0.013323,0.031043
19891,-3.964798,1.563414,-6.313510,-0.142025,-0.020118,0.080338
19906,-3.936068,1.877054,-6.191405,-0.158279,-0.017587,0.075809
19921,-4.058172,2.054225,-6.167463,-0.128568,0.004263,0.040502
19936,-4.094085,2.133234,-6.208165,-0.072345,0.018919,0.000666
19951,-3.995923,2.133234,-6.210559,-0.004263,0.021184,-0.048096
19966,-3.809175,1.793257,-6.277597,0.000000,0.001199,-0.052093
19981,-3.890578,1.697489,-6.212953,-0.033708,-0.005329,-0.032375
19996,-4.022259,1.604115,-6.215347,-0.056490,-0.004397,-0.008127
20011,-4.060566,1.527501,-6.196194,-0.133631,0.011458,0.031043
20026,-3.873818,1.922544,-6.177040,-0.170403,0.010925,0.035173
20041,-4.084508,1.886631,-6.186617,-0.188522,0.010792,0.047031
20056,-4.187459,2.454057,-6.023811,-0.117110,0.027979,0.008394
20071,-4.077325,2.384625,-6.102820,0.014123,0.032642,-0.063818
20086,-4.077325,1.798045,-6.239290,0.052227,0.032375,-0.072744
20101,-4.170699,1.513135,-6.179434,-0.006928,0.044233,-0.028378
20116,-4.194641,1.434127,-6.121974,-0.087133,0.037172,0.027845
20131,-4.115633,1.798045,-6.311116,-0.123239,0.027845,0.042234
20146,-3.983952,2.049437,-6.361394,-0.105652,0.025314,0.021850
20161,-4.027047,1.996764,-6.239290,-0.063285,0.024914,-0.006928
20176,-4.101267,2.102109,-6.165069,0.012257,0.025447,-0.024648
20191,-4.125209,1.980005,-6.200982,0.049828,0.016920,-0.028112
20206,-4.022259,1.580173,-6.186617,0.018386,0.032508,-0.005329
20221,-4.156334,1.630451,-6.351817,-0.065816,0.038904,0.034507
20236,-4.086902,1.900996,-6.282385,-0.094994,0.037172,0.040236
20251,-4.005499,2.044648,-6.291962,-0.093795,0.028511,0.026247
20266,-3.830723,2.183512,-6.268020,-0.063285,0.014922,0.001332
20281,-3.950433,2.013524,-6.160281,-0.049296,-0.005729,-0.021450
20296,-4.072537,2.039860,-6.138733,-0.024248,0.007194,-0.036772
20311,-4.108450,1.968034,-6.150704,0.011458,0.036772,-0.041701
20326,-4.139575,1.786074,-6.076484,0.004130,0.063152,-0.035440
20341,-3.955221,1.869871,-6.308722,-0.009859,0.052227,-0.020917
20356,-3.995923,1.721431,-6.404490,-0.024914,0.043833,0.017320
20371,-4.074931,1.838747,-6.591237,-0.022649,0.037571,0.027312
20386,-3.936068,1.944092,-6.411672,-0.053292,-0.000400,0.026913
20401,-3.940856,1.951274,-6.373365,-0.079006,-0.012790,0.012391
20416,-4.118027,2.039860,-6.301539,-0.082070,-0.045165,-0.006795
20431,-4.137180,2.106897,-6.299145,-0.048763,-0.017587,-0.039303
20446,-4.060566,2.059013,-6.308722,-0.014655,-0.000933,-0.069147
20461,-4.015076,2.035071,-6.315904,0.003064,-0.006795,-0.077141
20476,-4.122815,1.853112,-6.445191,0.015455,-0.052493,-0.077940
20491,-4.187459,1.690306,-6.318298,-0.007461,-0.037305,-0.053825
20506,-4.252102,1.644817,-6.323087,-0.023182,-0.013856,-0.019585
20521,-4.163517,1.527501,-6.416461,-0.051560,0.004663,0.021850
20536,-4.180276,1.618480,-6.399701,-0.097259,0.006129,0.057556
20551,-3.964798,1.862689,-6.349423,-0.086067,-0.011325,0.058622
20566,-3.960010,2.035071,-6.179434,-0.050894,-0.025181,0.038104
20581,-4.091691,2.080561,-6.081272,-0.009060,-0.027312,0.008127
20596,-4.146757,1.877054,-6.045359,0.018386,-0.021717,-0.012524
20611,-4.211401,1.723825,-6.107608,0.007194,0.011858,-0.000799
20626,-4.125209,1.754950,-6.215347,-0.025714,0.034773,0.011724
20641,-3.979163,1.872266,-6.167463,-0.016654,0.048629,0.019585
20656,-4.149151,1.786074,-6.220136,-0.024914,0.042634,0.023315
20671,-4.156334,1.826776,-6.184223,-0.035440,0.010525,0.027979
20686,-4.165911,1.845930,-6.205770,-0.053692,0.013323,0.043700
20701,-4.010288,1.800440,-6.291962,-0.080338,-0.010392,0.066216
20716,-4.103662,1.924938,-6.172252,-0.099657,0.000133,0.080338
20731,-4.139575,1.908179,-6.143521,-0.098591,0.002931,0.075809
20746,-3.909731,2.193089,-6.148310,-0.089265,0.028511,0.059688
20761,-3.883395,2.001553,-6.050148,-0.079273,0.025447,0.044233
20776,-3.931279,1.970428,-6.071695,-0.084469,0.003464,0.041968
20791,-3.960010,2.181118,-6.138733,-0.052893,-0.000933,0.023982
20806,-4.046201,2.027889,-6.239290,-0.041835,-0.007861,0.006395
20821,-4.139575,1.855506,-6.251261,-0.071012,-0.002798,0.013323
20836,-4.127604,1.922544,-6.198588,-0.096859,0.012391,0.030776
20851,-4.067749,2.209848,-6.191405,-0.102188,0.010392,0.033841
20866,-4.060566,2.003947,-6.023811,-0.109383,0.002798,0.033974
20881,-4.091691,2.274492,-5.947197,-0.082603,0.035839,0.004530
20896,-4.201824,2.250550,-6.129156,-0.008394,0.048896,-0.028911
20911,-4.192247,2.030283,-6.081272,0.023582,0.034907,-0.047297
20926,-4.086902,1.891419,-6.248867,0.020118,0.021450,-0.029178
20941,-4.149151,1.735796,-6.272809,-0.010925,0.025314,-0.002665
20956,-4.256891,1.774103,-6.325481,-0.043966,0.039570,0.028245
20971,-4.218583,2.020706,-6.344635,-0.024381,0.054358,0.041968
20986,-4.125209,2.236184,-6.514623,-0.007727,0.038104,0.021983
21001,-4.031836,2.205060,-6.493075,0.013989,0.031176,-0.008527
21016,-4.115633,1.999158,-6.548141,-0.008260,0.015588,-0.009593
21031,-4.194641,2.051831,-6.540959,-0.054225,-0.003064,-0.005329
21046,-4.108450,2.051831,-6.418855,-0.074476,-0.016121,0.002398
21061,-3.991134,2.102109,-6.311116,-0.099923,-0.029844,0.005596
21076,-4.137180,2.181118,-6.265626,-0.078473,-0.021317,0.001732
21091,-4.048595,2.138022,-6.066907,-0.052227,-0.038637,-0.019985
21106,-4.144363,2.296039,-6.208165,-0.001332,-0.016254,-0.050495
21121,-4.118027,2.015918,-6.181828,-0.001332,-0.007461,-0.065283
21136,-4.120421,1.829170,-6.136339,-0.022649,0.013190,-0.037838
21151,-4.182670,1.833959,-6.141127,-0.055557,0.011325,-0.012923
21166,-4.153940,1.912967,-6.117185,-0.067149,0.015588,0.003464
21181,-4.050989,1.953669,-6.236896,-0.071945,0.021850,0.010792
21196,-4.120421,1.975216,-6.136339,-0.059021,0.019185,0.007061
21211,-4.141969,2.023100,-6.117185,-0.028511,-0.000400,-0.007194
21226,-4.065354,2.051831,-6.150704,-0.006928,0.001732,-0.016654
21241,-4.024653,1.944092,-6.234501,-0.010658,0.003997,-0.014522
21256,-4.082114,1.764527,-6.289568,-0.026646,0.005596,-0.005995
21271,-4.204218,1.905784,-6.275203,-0.038237,0.015588,0.003064
21286,-4.065354,1.908179,-6.287174,-0.057023,0.019185,0.016521
21301,-3.955221,2.003947,-6.186617,-0.055424,0.009459,0.033841
21316,-4.077325,1.984793,-6.236896,-0.065283,-0.005196,0.033841
21331,-4.153940,2.035071,-6.050148,-0.040769,0.004263,0.015588
21346,-4.168305,2.106897,-6.256049,-0.021583,0.015322,-0.003464
21361,-4.094085,2.135628,-6.224924,0.013323,0.013323,-0.025714
21376,-4.132392,2.020706,-6.287174,0.056623,0.005329,-0.051560
21391,-4.122815,1.766921,-6.229712,0.044100,-0.013190,-0.041568
21406,-4.134786,1.565808,-6.251261,-0.005729,-0.027312,0.001998
21421,-4.170699,1.642422,-6.102820,-0.065683,-0.023848,0.053159
21436,-4.161122,1.795651,-6.062119,-0.086734,0.003864,0.084069
21451,-4.254497,2.027889,-6.030994,-0.069014,0.028112,0.081671
21466,-4.031836,2.229002,-6.121974,-0.023715,0.036239,0.056757
21481,-3.849876,2.090138,-6.093243,0.006262,0.016387,0.033974
21496,-3.878607,2.013524,-6.110003,-0.011724,-0.007061,0.031975
21511,-4.122815,1.941698,-6.066907,-0.038637,-0.001466,0.031443
21526,-4.197035,2.011129,-6.117185,-0.059021,0.003064,0.030776
21541,-4.003105,2.142811,-6.098032,-0.056890,0.024515,0.020518
21556,-4.050989,2.207454,-6.150704,-0.044632,0.040369,-0.001466
21571,-4.046201,2.075773,-6.253655,-0.034773,0.032775,-0.005862
21586,-4.027047,1.968034,-6.208165,-0.055557,0.021051,0.003331
21601,-3.869030,2.025495,-6.234501,-0.083136,0.001066,0.020251
21616,-4.113238,1.984793,-6.007052,-0.099391,0.007061,0.036772
21631,-4.261679,2.219425,-6.028600,-0.095127,0.022383,0.027845
21646,-4.177882,2.343923,-6.086061,-0.044499,0.037305,-0.007994
21661,-4.091691,2.219425,-6.088455,-0.012124,0.039303,-0.027446
21676,-4.055778,2.037466,-6.093243,-0.005329,0.052493,-0.028112
21691,-4.197035,1.915361,-6.236896,-0.024115,0.044899,-0.015188
21706,-4.165911,1.968034,-6.062119,-0.062619,0.034374,0.004130
21721,-4.108450,2.037466,-6.279991,-0.082470,0.038637,0.022116
21736,-4.065354,2.243367,-6.270414,-0.083536,0.027845,0.011591
21751,-4.225766,2.327164,-6.335058,-0.039436,0.009326,0.002531
21766,-4.156334,1.965640,-6.241684,-0.046498,0.033041,0.007328
21781,-4.141969,2.164358,-6.268020,-0.041701,0.029044,0.004397
21796,-3.981557,2.003947,-6.035782,-0.042900,0.022116,0.004663
21811,-4.082114,1.965640,-6.102820,-0.065417,0.045565,0.019585
21826,-4.132392,2.035071,-6.107608,-0.075675,0.026779,0.027712
21841,-4.065354,2.260126,-6.114791,-0.038237,0.048629,0.004263
21856,-3.979163,2.288857,-6.093243,0.004130,0.045832,-0.023449
21871,-3.974375,2.169147,-6.268020,0.031842,0.039969,-0.046098
21886,-4.077325,1.968034,-6.435614,0.019718,0.029844,-0.043034
21901,-4.027047,1.843535,-6.318298,-0.023582,0.035173,-0.020651
21916,-3.976769,1.886631,-6.241684,-0.054625,0.025047,0.008260
21931,-4.271256,1.980005,-6.265626,-0.055691,0.045965,0.018519
21946,-4.211401,2.154782,-6.279991,-0.016787,0.055557,0.007727
21961,-4.134786,2.111686,-6.366182,-0.001998,0.048096,0.005196
21976,-4.098873,2.003947,-6.311116,-0.014123,0.034907,0.010126
21991,-4.125209,1.960851,-6.375759,-0.028378,0.016521,0.019851
22006,-4.199430,2.032677,-6.284780,-0.032642,0.002398,0.016920
22021,-4.029441,2.226608,-6.193799,0.003331,0.003730,-0.004397
22036,-4.134786,2.106897,-6.299145,0.054225,0.008793,-0.009459
22051,-4.254497,1.831564,-6.378153,0.064750,0.022783,0.001998
22066,-4.091691,1.776498,-6.370971,0.015988,0.018652,0.031443
22081,-3.981557,1.860295,-6.327875,-0.043966,-0.014522,0.062619
22096,-3.859453,1.946486,-6.241684,-0.096726,-0.030776,0.071279
22111,-4.079720,2.015918,-6.184223,-0.105386,-0.027046,0.062086
22126,-4.086902,2.379837,-6.081272,-0.063418,-0.011458,0.019319
22141,-4.043807,2.425326,-6.181828,0.016521,-0.005462,-0.037038
22156,-3.986346,2.164358,-6.200982,0.053426,0.004930,-0.061420
22171,-4.074931,1.821988,-6.272809,0.015588,-0.001599,-0.046631
22186,-4.132392,1.783680,-6.311116,-0.027845,-0.018253,-0.017320
22201,-4.022259,1.843535,-6.160281,-0.075409,-0.017720,0.019452
22216,-3.993528,1.891419,-6.047753,-0.109649,-0.005862,0.040369
22231,-4.189853,2.085350,-6.016629,-0.098724,0.012923,0.045165
22246,-4.144363,2.276886,-6.047753,-0.044100,0.039570,0.017853
22261,-3.964798,2.114080,-6.107608,-0.004930,0.031043,0.001199
22276,-3.969586,2.080561,-6.153098,0.002665,0.003464,0.001732
22291,-4.077325,1.934515,-6.181828,-0.003464,-0.004397,0.008260
22306,-4.254497,1.934515,-6.196194,-0.031842,-0.011458,0.021184
22321,-4.103662,1.977611,-6.205770,-0.061553,-0.009326,0.030377
22336,-4.019865,2.140416,-6.256049,-0.085401,0.005862,0.027579
22351,-4.053383,2.205060,-6.186617,-0.076741,0.016654,0.002798
22366,-4.058172,2.205060,-6.148310,-0.062086,0.031309,-0.007861
22381,-4.058172,1.917755,-6.200982,-0.076208,0.022116,0.013323
22396,-3.907337,2.161964,-5.954380,-0.088599,0.028245,0.024914
22411,-4.232948,1.910573,-6.150704,-0.102855,0.033175,0.044899
22426,-4.359841,1.968034,-6.279991,-0.153083,0.044100,0.087666
22441,-4.096479,2.480393,-6.196194,-0.100323,0.047430,0.061020
22456,-4.005499,2.461239,-6.169858,-0.034107,0.008793,0.021983
22471,-4.074931,2.118868,-6.169858,0.002132,0.005063,0.002531
22486,-4.120421,2.013524,-6.093243,-0.013856,0.005196,0.012124
22501,-4.096479,2.183512,-6.145916,-0.035972,0.009060,0.023715
22516,-3.986346,2.224213,-6.210559,-0.019185,0.028778,0.007194
22531,-4.043807,2.217031,-6.284780,-0.012524,0.027579,-0.008793
22546,-4.139575,2.142811,-6.270414,-0.005462,0.035173,-0.015988
22561,-4.106056,2.118868,-6.256049,-0.011191,0.016654,-0.011724
22576,-3.952827,1.956063,-6.270414,-0.035972,0.001466,0.004397
22591,-3.993528,2.018312,-6.174646,-0.056623,0.002265,0.016787
22606,-4.067749,1.996764,-6.083666,-0.071412,0.007727,0.034640
22621,-4.146757,2.121263,-6.215347,-0.078740,0.037172,0.038637
22636,-4.043807,2.377442,-6.093243,-0.059554,0.043034,0.025314
22651,-4.065354,2.375048,-6.112397,-0.000933,0.036106,-0.007994
22666,-4.074931,2.147599,-6.203376,0.015322,0.026646,-0.022116
22681,-4.115633,2.044648,-6.335058,0.021583,0.020384,-0.025181
22696,-4.050989,1.898602,-6.253655,-0.008127,0.023982,-0.004130
22711,-4.125209,1.934515,-6.279991,-0.050361,0.020118,0.026247
22726,-4.194641,1.939303,-6.210559,-0.074609,0.033574,0.043034
22741,-4.062960,2.195483,-6.196194,-0.073544,0.028378,0.044366
22756,-3.837905,2.339135,-6.150704,-0.045432,0.018919,0.023449
22771,-3.926491,2.272097,-6.083666,-0.014522,0.013190,0.000400
22786,-4.070143,2.073379,-6.098032,-0.005596,-0.000400,-0.006662
22801,-4.110844,1.936909,-6.258443,-0.021583,0.004796,0.013590
22816,-4.156334,2.075773,-6.150704,-0.051427,0.013323,0.042368
22831,-4.118027,2.267309,-6.279991,-0.047430,0.033574,0.043700
22846,-4.118027,2.444480,-6.189011,-0.002132,0.032775,0.012524
22861,-4.110844,2.262521,-6.272809,0.021583,0.033308,-0.009459
22876,-4.022259,2.195483,-6.301539,0.008394,0.024914,-0.014655
22891,-3.981557,2.102109,-6.315904,-0.005862,0.011191,-0.012391
22906,-3.885789,1.934515,-6.165069,-0.047430,-0.013590,0.009726
22921,-3.888184,2.087744,-6.064513,-0.063152,-0.007461,0.016787
22936,-3.988740,2.063802,-6.042965,-0.036639,-0.001466,0.025980
22951,-4.168305,2.094926,-6.076484,-0.028245,0.009060,0.027046
22966,-4.043807,2.161964,-6.059724,0.010525,0.035440,0.013856
22981,-4.089296,2.025495,-6.167463,-0.002798,0.048496,0.013323
22996,-4.041412,2.078167,-6.299145,-0.022116,0.045299,0.019585
23011,-4.065354,2.145205,-6.253655,-0.038237,0.040369,0.011325
23026,-3.888184,2.159570,-6.222530,-0.048763,0.046897,0.002398
23041,-3.926491,2.303222,-6.215347,-0.027446,0.024381,-0.013057
23056,-4.161122,2.317587,-6.172252,0.005196,0.027046,-0.030510
23071,-4.223372,2.118868,-6.349423,0.020118,0.019185,-0.029711
23086,-4.158728,1.999158,-6.354211,0.000666,0.009060,-0.002398
23101,-4.134786,1.960851,-6.263232,-0.038371,0.016387,0.028112
23116,-4.062960,2.032677,-6.320693,-0.076342,0.019851,0.046364
23131,-4.204218,2.171541,-6.145916,-0.069813,0.024781,0.039170
23146,-4.134786,2.379837,-6.246472,-0.052893,0.035306,0.019052
23161,-4.010288,2.492364,-6.291962,-0.004663,0.026913,-0.020384
23176,-4.034230,2.300828,-6.435614,0.022649,-0.001332,-0.038637
23191,-4.149151,1.970428,-6.423643,0.005063,-0.021717,-0.031842
23206,-4.170699,1.893813,-6.296751,-0.051427,-0.015721,-0.004663
23221,-3.945644,2.006341,-6.126762,-0.083669,-0.011591,0.021051
23236,-4.019865,2.073379,-6.184223,-0.083136,-0.009459,0.025447
23251,-4.151546,2.276886,-6.095637,-0.051560,0.012124,0.007461
23266,-3.981557,2.303222,-6.203376,-0.002265,0.009193,-0.023848
23281,-3.849876,2.161964,-6.186617,0.007727,0.012657,-0.038504
23296,-3.809175,1.996764,-6.136339,-0.012657,0.007727,-0.036505
23311,-4.031836,1.987187,-6.162675,-0.038371,0.004930,-0.027312
23326,-4.086902,1.996764,-6.126762,-0.047697,0.009060,-0.019585
23341,-3.971981,2.015918,-6.234501,-0.059421,0.015988,0.006262
23356,-3.964798,1.991976,-6.145916,-0.067948,0.013856,0.024781
23371,-3.998317,2.066196,-6.093243,-0.066349,0.033708,0.027579
23386,-3.916914,2.346318,-6.157887,-0.032375,0.034640,0.001199
23401,-3.902549,2.274492,-6.074090,0.006662,0.030377,-0.033574
23416,-4.012682,1.977611,-6.133945,0.024115,0.027579,-0.046897
23431,-4.182670,1.762132,-6.229712,0.003597,0.055025,-0.024648
23446,-4.015076,1.963245,-6.150704,-0.040902,0.043034,0.010525
23461,-3.890578,2.075773,-6.260838,-0.061553,0.023848,0.032642
23476,-3.919308,2.188300,-6.342240,-0.055025,0.015855,0.047830
23491,-4.074931,2.116474,-6.287174,-0.049429,0.014655,0.055824
23506,-3.991134,2.140416,-6.131550,-0.055957,0.013723,0.047297
23521,-3.960010,2.250550,-6.112397,-0.043034,0.045299,0.030377
23536,-4.201824,2.370260,-6.186617,-0.009992,0.072078,0.003597
23551,-4.218583,2.300828,-6.256049,0.040103,0.081538,-0.027446
23566,-4.017470,2.106897,-6.332664,0.058888,0.070613,-0.036505
23581,-3.945644,1.855506,-6.392519,-0.004530,0.046897,0.000000
23596,-3.881001,2.018312,-6.524199,-0.057556,0.015455,0.030910
23611,-4.074931,2.061408,-6.270414,-0.065683,-0.005995,0.047031
23626,-4.177882,2.080561,-6.184223,-0.073943,-0.004530,0.054092
23641,-4.134786,2.351106,-6.236896,-0.022649,0.018253,0.043167
23656,-4.218583,2.288857,-6.179434,-0.004796,0.036106,0.028645
23671,-4.288015,2.334347,-6.294356,0.017587,0.051960,0.001599
23686,-4.079720,2.138022,-6.387730,0.018386,0.043034,-0.001199
23701,-3.902549,2.145205,-6.435614,-0.033974,0.006662,0.005329
23716,-3.799598,2.169147,-6.423643,-0.058622,-0.025447,0.008260
23731,-3.924097,2.147599,-6.315904,-0.072478,-0.042900,0.019185
23746,-3.955221,2.051831,-6.284780,-0.090864,-0.025047,0.019319
23761,-3.986346,2.221819,-5.971139,-0.106052,-0.019985,0.036239
23776,-3.940856,2.545036,-6.047753,-0.037038,0.008260,0.007061
23791,-4.072537,2.123657,-6.162675,0.000666,0.032242,-0.019718
23806,-3.962404,1.944092,-6.160281,-0.008660,0.029977,-0.017986
23821,-3.902549,1.936909,-6.196194,-0.044499,0.016121,0.001466
23836,-3.885789,1.948880,-6.169858,-0.073810,0.013590,0.019452
23851,-3.971981,2.159570,-6.081272,-0.047164,0.021184,0.011858
23866,-3.823540,2.181118,-6.050148,-0.000666,0.007461,-0.013190
23881,-3.950433,2.138022,-6.107608,0.012124,0.025714,-0.007594
23896,-4.024653,1.977611,-6.191405,-0.017187,0.028778,0.014123
23911,-4.127604,1.920150,-6.387730,-0.061953,0.031842,0.046764
23926,-4.086902,2.243367,-6.347029,-0.055957,0.032642,0.045032
23941,-3.938462,2.279280,-6.433220,-0.043966,0.016387,0.028511
23956,-3.998317,2.217031,-6.373365,-0.028911,0.013590,0.019851
23971,-3.995923,1.975216,-6.282385,-0.056224,-0.021184,0.052227
23986,-4.043807,2.157176,-6.502652,-0.069813,0.003730,0.068081
24001,-4.024653,2.377442,-6.385336,-0.084469,0.011325,0.073011
24016,-3.974375,2.403779,-6.196194,-0.084069,-0.024648,0.059288
24031,-3.974375,2.487576,-6.272809,-0.058888,-0.013856,0.014922
24046,-4.146757,2.420538,-6.370971,-0.014522,0.003730,-0.026646
24061,-4.091691,2.217031,-6.363788,-0.017720,-0.008793,-0.031842
24076,-4.017470,2.200271,-6.323087,-0.023715,-0.011058,-0.029311
24091,-4.129998,1.960851,-6.258443,-0.043300,-0.007994,-0.008793
24106,-4.153940,2.047042,-6.265626,-0.068614,-0.001599,0.014922
24121,-4.024653,2.322376,-6.296751,-0.050628,-0.015588,0.008926
24136,-3.933673,2.305616,-6.191405,-0.025047,-0.013989,-0.009193
24151,-3.976769,2.154782,-6.165069,-0.013989,-0.028378,-0.015188
24166,-4.108450,1.980005,-6.181828,-0.029711,-0.032375,-0.004263
24181,-4.041412,2.039860,-6.129156,-0.061020,-0.040236,0.021184
24196,-3.902549,2.188300,-6.030994,-0.054625,-0.024914,0.026913
24211,-3.981557,2.003947,-6.054936,-0.049962,-0.007594,0.028511
24226,-4.055778,2.195483,-6.162675,-0.052493,0.007061,0.033441
24241,-4.015076,2.497152,-6.040571,-0.052493,0.010259,0.013190
24256,-3.861847,2.499547,-6.102820,0.000666,-0.002132,-0.028778
24271,-3.940856,2.286463,-6.179434,0.014389,0.015055,-0.045565
24286,-4.163517,2.042254,-6.246472,-0.037971,0.000799,-0.037838
24301,-4.034230,2.183512,-6.047753,-0.065816,-0.007461,-0.018253
24316,-3.974375,2.300828,-6.114791,-0.079672,0.021317,-0.007727
24331,-4.108450,2.248155,-6.093243,-0.067948,0.045432,-0.002531
24346,-4.177882,2.308010,-6.236896,-0.059554,0.036372,0.000533
24361,-4.079720,2.308010,-6.239290,-0.040636,0.021983,0.009992
24376,-4.024653,2.190695,-6.186617,-0.073011,0.006662,0.022916
24391,-4.077325,2.260126,-6.114791,-0.070346,0.015322,0.021184
24406,-4.055778,2.169147,-6.050148,-0.078873,0.018652,0.021717
24421,-4.067749,2.264915,-6.059724,-0.073144,0.033974,0.014256
24436,-3.991134,2.343923,-6.093243,-0.065283,0.047297,0.000533
24451,-4.024653,2.422932,-6.241684,-0.033708,0.043433,-0.030243
24466,-4.153940,2.312799,-6.224924,0.018119,0.032775,-0.063418
24481,-4.098873,2.116474,-6.337452,0.001066,0.014922,-0.052626
24496,-4.015076,2.042254,-6.241684,-0.035706,0.007861,-0.028378
24511,-4.079720,2.039860,-6.299145,-0.068348,0.010259,0.000400
24526,-4.163517,2.037466,-6.215347,-0.091263,0.006928,0.015855
24541,-4.077325,2.331952,-6.284780,-0.074476,0.023582,0.022116
24556,-3.964798,2.444480,-6.227318,-0.043966,0.017187,0.006928
24571,-4.062960,2.358289,-6.272809,0.005729,-0.001998,-0.016387
24586,-4.189853,2.128445,-6.318298,0.007194,-0.009326,-0.023582
24601,-4.220977,1.987187,-6.272809,-0.018786,-0.010792,-0.003198
24616,-4.089296,1.996764,-6.236896,-0.044766,-0.004263,0.020118
24631,-4.082114,2.094926,-6.136339,-0.053559,0.001199,0.041035
24646,-4.134786,2.245761,-6.160281,-0.046631,0.011724,0.045032
24661,-4.070143,2.219425,-6.141127,-0.044366,0.011858,0.042900
24676,-3.869030,2.446874,-6.373365,-0.032375,-0.008527,0.035972
24691,-3.993528,2.353500,-6.296751,-0.006262,-0.029711,0.015055
24706,-4.072537,2.224213,-6.208165,-0.018786,-0.031842,-0.001066
24721,-4.158728,2.154782,-6.198588,-0.035706,-0.028112,-0.002931
24736,-4.141969,2.264915,-6.052542,-0.042634,-0.018386,-0.007727
24751,-4.067749,2.233790,-6.011840,-0.026913,0.007328,-0.012790
24766,-4.060566,2.181118,-5.961562,-0.006395,0.015455,-0.013323
24781,-3.993528,2.109292,-6.004658,0.001199,0.023582,-0.004663
24796,-3.902549,2.181118,-6.088455,-0.015455,0.018652,0.013057
24811,-3.897760,2.238579,-6.155492,-0.019185,0.000666,0.026247
24826,-4.161122,2.164358,-6.133945,-0.004530,-0.003730,0.021717
24841,-4.273650,2.336741,-6.030994,0.011191,0.021850,0.004663
24856,-4.137180,2.310405,-6.200982,0.040636,0.037438,-0.014922
24871,-4.103662,2.080561,-6.246472,0.016920,0.032508,-0.005729
24886,-4.098873,2.018312,-6.275203,-0.031709,0.027845,0.018253
24901,-4.113238,2.106897,-6.165069,-0.073410,0.006528,0.040502
24916,-3.957615,2.293645,-6.186617,-0.086201,-0.000799,0.054358
24931,-4.041412,2.449268,-6.102820,-0.055691,-0.001332,0.041168
24946,-4.170699,2.353500,-6.126762,-0.020118,-0.002132,0.018119
24961,-4.192247,2.365471,-6.083666,-0.010126,0.018919,0.000666
24976,-4.077325,2.351106,-6.268020,-0.016654,0.032508,-0.011191
24991,-3.948039,2.341529,-6.260838,-0.020784,0.025847,-0.022783
25006,-4.036624,2.214637,-6.220136,-0.037838,0.006662,-0.020917
25021,-4.146757,2.221819,-6.268020,-0.047564,0.007061,-0.013856
25036,-4.053383,2.284068,-6.179434,-0.036639,0.009193,-0.004796
25051,-4.055778,2.193089,-6.138733,-0.024648,0.012790,0.002931
25066,-4.187459,2.219425,-6.124368,-0.024914,0.021583,0.005063
25081,-4.223372,2.243367,-6.150704,-0.024781,0.022783,0.007328
25096,-4.024653,2.231396,-6.131550,-0.034907,0.023315,0.010259
25111,-3.952827,2.197877,-6.169858,-0.069280,0.011191,0.010658
25126,-4.096479,2.267309,-6.102820,-0.072211,0.005729,0.004930
25141,-4.132392,2.319981,-6.100426,-0.059954,0.011724,-0.008793
25156,-3.979163,2.403779,-6.066907,-0.034640,0.020917,-0.023449
25171,-4.012682,2.233790,-6.196194,-0.007461,0.016654,-0.032375
25186,-4.180276,2.097321,-6.160281,-0.017453,0.019851,-0.023582
25201,-4.201824,2.147599,-6.301539,-0.031309,0.032242,-0.017187
25216,-4.156334,2.202666,-6.208165,-0.036905,0.027446,-0.012391
25231,-3.924097,2.202666,-6.248867,-0.031443,0.013057,-0.003331
25246,-3.967192,2.092532,-6.279991,-0.040369,-0.009326,0.011991
25261,-4.072537,2.087744,-6.160281,-0.059821,-0.016920,0.035573
25276,-3.993528,2.109292,-5.995081,-0.062752,-0.010259,0.054492
25291,-3.998317,2.147599,-5.990293,-0.058489,0.012923,0.062752
25306,-4.041412,2.114080,-6.023811,-0.078340,0.022649,0.064084
25321,-4.192247,2.334347,-6.014235,-0.065150,0.042234,0.041835
25336,-4.072537,2.509123,-6.086061,-0.023315,0.038904,-0.001199
25351,-3.955221,2.334347,-6.069301,0.003198,0.026380,-0.024515
25366,-3.969586,2.193089,-6.133945,-0.008260,0.018652,-0.018119
25381,-4.194641,2.059013,-6.234501,-0.030776,0.012524,0.003331
25396,-4.024653,2.123657,-6.241684,-0.061686,0.000266,0.030377
25411,-4.070143,2.149993,-6.155492,-0.085268,0.021450,0.048496
25426,-4.094085,2.281674,-6.143521,-0.080738,0.024648,0.044366
25441,-4.173093,2.434903,-6.155492,-0.057556,0.033041,0.025580
25456,-4.185064,2.437297,-6.023811,-0.011325,0.045432,0.001466
25471,-4.091691,2.331952,-6.157887,0.012657,0.045965,-0.016787
25486,-4.062960,2.173935,-6.220136,0.015055,0.030776,-0.006928
25501,-4.115633,2.047042,-6.361394,-0.007994,0.009992,0.015855
25516,-4.065354,2.106897,-6.131550,-0.040236,0.006795,0.043433
25531,-3.986346,2.286463,-6.131550,-0.058622,0.006262,0.065816
25546,-3.962404,2.451663,-6.160281,-0.056490,0.020251,0.064617
25561,-4.175488,2.308010,-6.184223,-0.059688,0.034507,0.049429
25576,-4.113238,1.987187,-6.126762,-0.129234,0.037172,0.083536
25591,-3.909731,2.272097,-6.131550,-0.192652,0.045165,0.111515
25606,-4.010288,2.592920,-6.138733,-0.181727,0.034507,0.100057
25621,-4.010288,2.750938,-6.100426,-0.091397,-0.008527,0.043567
25636,-4.074931,2.722207,-6.107608,0.000266,-0.009726,-0.006129
25651,-4.046201,2.418144,-6.090849,0.048896,0.011991,-0.036239
25666,-3.967192,2.219425,-6.121974,0.035440,0.028245,-0.028911
25681,-4.182670,2.147599,-6.198588,-0.011191,0.039703,-0.005995
25696,-4.022259,2.264915,-6.157887,-0.042368,0.029178,0.003331
25711,-3.971981,2.303222,-6.112397,-0.046098,0.022116,0.011325
25726,-3.991134,2.420538,-6.148310,-0.027312,0.017453,0.007727
25741,-4.106056,2.329558,-6.191405,-0.008527,0.019319,0.019452
25756,-4.173093,2.305616,-6.131550,-0.031576,0.029977,0.038371
25771,-4.003105,2.475605,-6.263232,-0.037704,0.035839,0.029711
25786,-4.005499,2.535460,-6.222530,-0.024115,0.032242,0.004796
25801,-4.098873,2.492364,-6.212953,-0.015322,0.029311,-0.025714
25816,-4.046201,2.348712,-6.241684,-0.024914,0.019985,-0.030510
25831,-3.940856,2.315193,-6.136339,-0.028112,0.008260,-0.029311
25846,-3.995923,2.240973,-6.047753,-0.028112,0.025047,-0.018919
25861,-4.086902,2.264915,-6.165069,-0.022383,0.029178,-0.013190
25876,-4.101267,2.284068,-6.143521,-0.003864,0.025314,-0.009992
25891,-4.115633,2.284068,-6.074090,-0.014789,0.034640,0.000799
25906,-4.041412,2.233790,-6.150704,-0.020917,0.030110,0.008793
25921,-4.046201,2.152387,-6.174646,-0.042234,0.017320,0.026513
25936,-4.096479,2.245761,-6.165069,-0.056623,0.002931,0.037838
25951,-3.888184,2.451663,-6.045359,-0.045165,0.005462,0.027979
25966,-3.971981,2.434903,-6.165069,-0.030776,0.017720,0.016654
25981,-4.079720,2.413355,-6.035782,-0.017986,0.022116,0.009060
25996,-3.960010,2.636016,-6.093243,0.008926,0.029844,-0.011724
26011,-3.907337,2.604891,-6.181828,0.036905,0.028511,-0.035573
26026,-3.907337,2.422932,-6.117185,0.033441,0.031576,-0.045965
26041,-3.926491,2.185906,-6.248867,-0.016654,0.021317,-0.026380
26056,-3.916914,2.205060,-6.268020,-0.073144,0.007061,-0.003198
26071,-3.928885,2.315193,-6.165069,-0.103521,-0.000666,0.005329
26086,-3.936068,2.327164,-6.093243,-0.097392,0.012657,0.010792
26101,-4.098873,2.341529,-6.023811,-0.075409,0.025980,0.005063
26116,-4.058172,2.403779,-5.937620,-0.030110,0.047697,-0.003464
26131,-3.986346,2.346318,-6.040571,-0.001599,0.054758,-0.009193
26146,-3.948039,2.331952,-6.256049,-0.001466,0.052493,-0.011724
26161,-4.060566,2.229002,-6.193799,-0.012257,0.032908,-0.018919
26176,-4.060566,2.042254,-6.289568,-0.045832,0.015188,-0.005862
26191,-4.039018,2.169147,-6.222530,-0.082603,0.007727,0.010658
26206,-3.988740,2.310405,-6.162675,-0.091397,0.004530,0.025314
26221,-3.998317,2.331952,-6.124368,-0.076075,0.009859,0.029977
26236,-3.974375,2.367865,-6.138733,-0.040902,0.025980,0.022116
26251,-3.993528,2.310405,-6.189011,-0.043167,0.017453,0.029178
26266,-3.967192,2.269703,-6.193799,-0.062885,0.023982,0.037438
26281,-4.043807,2.372654,-6.253655,-0.081138,0.029977,0.035173
26296,-4.079720,2.334347,-6.172252,-0.078606,0.033574,0.024115
26311,-3.960010,2.588132,-6.145916,-0.055291,0.020651,0.009459
26326,-3.871424,2.554613,-6.296751,-0.001466,0.010925,-0.009992
26341,-3.991134,2.274492,-6.277597,0.017986,0.005596,-0.009992
26356,-4.084508,2.121263,-6.246472,-0.009726,-0.002931,0.019985
26371,-4.041412,2.138022,-6.184223,-0.057156,0.017320,0.050095
26386,-3.948039,2.415750,-6.181828,-0.074609,0.035706,0.053692
26401,-3.960010,2.463634,-6.117185,-0.068481,0.036106,0.036106
26416,-4.005499,2.628834,-6.172252,-0.035440,0.038237,0.012124
26431,-3.909731,2.729390,-6.069301,0.012524,0.022116,-0.014922
26446,-3.892972,2.422932,-6.105214,0.032642,0.007594,-0.021983
26461,-3.960010,2.272097,-6.227318,0.013323,0.002265,-0.011325
26476,-4.189853,2.185906,-6.248867,-0.021983,0.003331,0.004130
26491,-4.003105,2.260126,-6.138733,-0.057956,0.013456,0.017453
26506,-3.871424,2.348712,-6.222530,-0.075809,0.014922,0.027579
26521,-3.914520,2.437297,-6.076484,-0.059021,0.015988,0.012657
26536,-4.039018,2.506729,-6.023811,-0.025847,0.018919,-0.003997
26551,-3.981557,2.497152,-6.212953,0.010792,0.028645,-0.024515
26566,-4.149151,2.248155,-6.138733,0.015721,0.027979,-0.017320
26581,-4.106056,2.126051,-6.167463,-0.017054,0.028245,0.007328
26596,-3.967192,2.221819,-6.244078,-0.064750,0.034240,0.029178
26611,-3.830723,2.434903,-6.205770,-0.091930,0.013989,0.038770
26626,-3.960010,2.482787,-6.256049,-0.073011,0.012257,0.022916
26641,-4.034230,2.554613,-6.105214,-0.045432,0.018919,0.001599
26656,-3.983952,2.489970,-6.009446,-0.013323,0.020784,-0.003730
26671,-3.933673,2.334347,-6.057330,-0.030110,0.019585,0.003198
26686,-4.010288,2.396596,-6.052542,-0.019985,0.032508,0.004930
26701,-4.084508,2.341529,-6.181828,-0.012657,0.049695,-0.002931
26716,-3.962404,2.308010,-6.205770,-0.023982,0.052227,-0.002665
26731,-3.813963,2.351106,-6.177040,-0.055025,0.041968,0.011325
26746,-3.914520,2.343923,-6.335058,-0.076475,0.025447,0.019585
26761,-3.948039,2.489970,-6.258443,-0.063818,0.005862,0.011325
26776,-4.024653,2.621651,-6.181828,-0.017853,0.010792,-0.014655
26791,-4.029441,2.382231,-6.179434,0.008527,0.030510,-0.025980
26806,-4.113238,2.212242,-6.363788,-0.008260,0.045565,-0.007461
26821,-4.129998,2.298434,-6.370971,-0.039037,0.037038,0.006662
26836,-3.938462,2.446874,-6.399701,-0.043300,0.003331,0.004663
26851,-3.806781,2.444480,-6.464345,-0.053026,-0.010525,0.005063
26866,-3.962404,2.312799,-6.253655,-0.057156,-0.020784,0.007994
26881,-4.048595,2.367865,-6.112397,-0.057423,-0.010126,0.011591
26896,-3.986346,2.580949,-6.143521,-0.029844,0.012257,-0.002531
26911,-3.988740,2.475605,-6.160281,0.000933,0.046231,-0.022783
26926,-4.058172,2.310405,-6.246472,-0.001466,0.037305,-0.023982
26941,-3.955221,2.336741,-6.265626,-0.017720,0.014123,-0.013057
26956,-3.890578,2.363077,-6.248867,-0.021450,-0.015455,-0.003597
26971,-3.967192,2.240973,-6.323087,-0.036239,-0.030243,0.016920
26986,-4.065354,2.281674,-6.241684,-0.063551,-0.024115,0.035173
27001,-4.173093,2.430115,-6.167463,-0.056357,-0.003464,0.044233
27016,-3.859453,1.922544,-5.985504,-0.116444,-0.023315,0.089931
27031,-3.852270,2.612074,-5.978322,-0.121374,-0.018119,0.096459
27046,-3.845088,2.659958,-5.925649,-0.075809,-0.007594,0.049029
27061,-3.931279,2.647987,-6.023811,-0.031576,-0.010126,0.005462
27076,-4.015076,2.477999,-6.009446,-0.028245,0.015588,-0.021317
27091,-3.921702,2.602497,-6.189011,-0.014789,0.012657,-0.035839
27106,-3.974375,2.444480,-6.071695,0.003064,0.020384,-0.049562
27121,-3.976769,2.329558,-6.270414,-0.003198,0.022516,-0.043833
27136,-3.971981,2.262521,-6.193799,-0.032508,0.021051,-0.022649
27151,-3.883395,2.303222,-6.145916,-0.060753,0.020384,-0.001599
27166,-3.859453,2.348712,-6.172252,-0.065949,0.017720,0.006528
27181,-4.048595,2.375048,-6.062119,-0.050228,0.023449,-0.002398
27196,-4.015076,2.408567,-6.014235,-0.025314,0.031443,-0.013323
27211,-3.876213,2.540248,-6.234501,0.002531,0.043300,-0.028778
27226,-3.811569,2.331952,-6.212953,-0.004263,0.017720,-0.017453
27241,-3.952827,2.209848,-6.148310,-0.026513,0.004930,0.000799
27256,-3.981557,2.305616,-6.119579,-0.053026,-0.000666,0.013323
27271,-3.943250,2.343923,-6.088455,-0.069413,0.012790,0.021983
27286,-3.907337,2.430115,-6.040571,-0.075009,0.023982,0.019452
27301,-4.058172,2.506729,-6.030994,-0.052093,0.040902,0.003331
27316,-4.005499,2.324770,-6.150704,-0.056490,0.041302,0.008527
27331,-3.866636,2.533065,-6.114791,-0.069147,0.049828,0.014922
27346,-3.914520,2.521094,-6.189011,-0.055158,0.023982,0.009859
27361,-4.077325,2.365471,-6.047753,-0.030110,0.018519,0.010259
27376,-4.103662,2.341529,-6.126762,-0.047031,0.029044,0.012257
27391,-4.050989,2.446874,-6.110003,-0.052093,0.037305,0.020384
27406,-3.957615,2.401384,-6.229712,-0.067548,0.031576,0.022116
27421,-4.086902,2.207454,-6.394913,-0.095926,0.024115,0.045165
27436,-3.957615,2.166753,-6.332664,-0.141092,0.020118,0.073677
27451,-3.766079,2.758120,-6.200982,-0.114845,0.027446,0.060753
27466,-3.840299,2.528277,-6.265626,-0.070746,0.003730,0.032242
27481,-3.936068,2.664747,-6.155492,-0.032109,-0.008926,-0.005862
27496,-3.998317,2.494758,-6.076484,-0.023049,-0.005462,-0.010525
27511,-4.115633,2.499547,-6.016629,-0.009193,0.003331,-0.009859
27526,-4.043807,2.473210,-6.066907,-0.019851,0.026913,0.000933
27541,-3.940856,2.525883,-6.138733,-0.007061,0.031576,-0.003464
27556,-3.971981,2.398990,-6.200982,-0.014123,0.023715,-0.001199
27571,-3.852270,2.422932,-6.277597,-0.049429,0.014123,0.012257
27586,-3.821146,2.410961,-6.246472,-0.074476,0.007727,0.021051
27601,-3.983952,2.559402,-6.093243,-0.067548,0.007061,0.008660
27616,-4.046201,2.700660,-6.078878,-0.030377,0.011325,-0.014655
27631,-3.924097,2.595315,-6.086061,0.005862,0.026913,-0.030643
27646,-3.876213,2.415750,-6.069301,-0.006129,0.025847,-0.024515
27661,-3.971981,2.351106,-6.193799,-0.019452,0.017587,-0.005462
27676,-3.924097,2.387019,-6.224924,-0.035706,0.003997,0.010792
27691,-3.835511,2.375048,-6.186617,-0.051427,-0.001599,0.022916
27706,-3.823540,2.482787,-6.117185,-0.070479,0.000400,0.037704
27721,-3.955221,2.463634,-6.057330,-0.070479,0.016387,0.038770
27736,-4.017470,2.561796,-6.129156,-0.042900,0.026513,0.020651
27751,-3.900155,2.580949,-6.086061,-0.013856,0.031975,-0.001332
27766,-3.833117,2.528277,-6.107608,0.004930,0.031975,-0.016521
27781,-3.943250,2.430115,-6.193799,0.013590,0.028112,-0.016920
27796,-4.125209,2.379837,-6.177040,0.002931,0.041835,-0.009326
27811,-3.933673,2.454057,-6.208165,-0.012524,0.045698,0.008660
27826,-3.797204,2.533065,-6.251261,-0.029577,0.023315,0.021317
27841,-3.916914,2.446874,-6.217741,-0.032642,0.008260,0.018919
27856,-3.976769,2.456451,-6.291962,-0.045565,0.004130,0.025181
27871,-3.986346,2.485181,-6.234501,-0.062086,0.000933,0.034907
27886,-3.902549,2.626439,-6.016629,-0.057556,0.010259,0.037704
27901,-4.041412,2.779668,-6.167463,-0.019585,0.023848,0.007328
27916,-4.058172,2.810793,-6.229712,0.030643,0.031309,-0.027579
27931,-3.948039,2.590526,-6.279991,0.043433,0.026913,-0.042767
27946,-3.842694,2.427721,-6.217741,0.004930,0.012923,-0.031975
27961,-3.936068,2.360683,-6.306327,-0.053959,-0.003997,-0.005995
27976,-3.976769,2.339135,-6.174646,-0.107384,-0.017453,0.018786
27991,-3.960010,2.576161,-6.045359,-0.112980,-0.010658,0.025314
28006,-3.969586,2.671929,-5.889736,-0.079939,0.016254,0.009992
28021,-4.079720,2.626439,-6.078878,-0.036239,0.034507,-0.010259
28036,-3.873818,2.482787,-6.136339,-0.011458,0.028778,-0.030776
28051,-4.072537,2.377442,-6.193799,-0.046498,0.026513,-0.020384
28066,-3.852270,2.545036,-6.268020,-0.060753,-0.005729,-0.020917
28081,-3.866636,2.444480,-6.418855,-0.059155,-0.012790,-0.021850
28096,-3.902549,2.442086,-6.208165,-0.064084,-0.016121,-0.022783
28111,-3.912126,2.446874,-6.102820,-0.074343,-0.015322,-0.012657
28126,-3.881001,2.485181,-6.083666,-0.076741,0.007328,-0.012257
28141,-3.878607,2.549825,-6.009446,-0.059021,0.025314,-0.020917
28156,-3.962404,2.408567,-6.071695,-0.051294,0.022116,-0.027179
28171,-3.904943,2.497152,-6.191405,-0.049562,0.009859,-0.032242
28186,-3.869030,2.518700,-5.942409,-0.026113,-0.004263,-0.041302
28201,-4.039018,2.401384,-5.937620,-0.014655,0.003464,-0.042368
28216,-4.149151,2.439692,-6.004658,-0.001066,0.019185,-0.027179
28231,-4.101267,2.343923,-6.205770,-0.008660,0.021317,0.008260
28246,-3.936068,2.401384,-6.126762,-0.036239,0.022649,0.038237
28261,-4.010288,2.456451,-6.131550,-0.055957,0.035040,0.046098
28276,-3.979163,2.509123,-6.098032,-0.069147,0.023715,0.034907
28291,-3.919308,2.585738,-6.131550,-0.081271,0.024648,0.020784
28306,-3.940856,2.726996,-6.172252,-0.077940,0.027845,-0.007861
28321,-3.976769,2.640805,-6.160281,-0.058622,0.001998,-0.029444
28336,-4.003105,2.511518,-6.076484,-0.038104,-0.002398,-0.033308
28351,-3.983952,2.518700,-6.251261,-0.020518,0.005462,-0.029711
28366,-3.878607,2.559402,-6.229712,-0.025714,-0.013190,-0.015855
28381,-3.823540,2.331952,-6.234501,-0.079139,0.012124,0.027446
28396,-3.912126,2.492364,-6.107608,-0.103654,0.011191,0.031043
28411,-3.976769,2.626439,-6.045359,-0.106985,0.020917,0.024248
28426,-3.938462,2.767697,-6.071695,-0.083936,0.012391,0.002265
28441,-3.881001,2.779668,-6.105214,-0.029977,0.002665,-0.027046
28456,-4.077325,2.557007,-6.071695,0.022116,0.009060,-0.049162
28471,-4.189853,2.315193,-6.145916,0.020118,0.021717,-0.022916
28486,-3.943250,2.209848,-6.150704,-0.022916,0.027979,0.011991
28501,-3.890578,2.377442,-6.117185,-0.070479,0.015855,0.052626
28516,-4.065354,2.501941,-6.179434,-0.080738,0.014389,0.059421
28531,-3.988740,2.712631,-6.083666,-0.056757,0.024115,0.035573
28546,-3.861847,2.736573,-6.088455,-0.028378,0.012524,0.003997
28561,-3.861847,2.592920,-6.026206,-0.018253,0.008793,-0.015055
