T,AX,AY,AZ,GX,GY,GZ
46,-4.817134,3.794810,-5.025429,-0.035839,0.079539,-0.039037
61,-4.807557,3.885789,-5.006276,-0.030910,0.071945,-0.033175
76,-4.769250,3.948039,-5.075707,-0.002531,0.073677,-0.028245
91,-4.814740,3.761291,-5.190629,0.013989,0.059821,-0.017187
106,-4.632780,3.658340,-5.334281,-0.014789,0.029977,0.011991
121,-4.572925,3.600879,-5.305551,-0.065816,0.019985,0.048896
136,-4.730942,3.770868,-5.185841,-0.100456,0.022383,0.064217
151,-4.728548,4.043807,-5.133168,-0.087266,0.027446,0.044899
166,-4.776433,4.125209,-5.049371,-0.039969,0.024648,0.010792
181,-4.730942,4.036624,-5.133168,-0.012923,0.055557,-0.019718
196,-4.762067,3.919308,-5.178658,0.007061,0.060753,-0.040769
211,-4.718971,3.857059,-5.123591,0.009459,0.048896,-0.041302
226,-4.687847,3.730166,-5.310339,-0.007328,0.035573,-0.023982
241,-4.723760,3.725378,-5.269638,-0.035306,0.016387,0.008527
256,-4.793192,3.711013,-5.276821,-0.066083,0.019185,0.036372
271,-4.774038,3.816357,-5.193023,-0.084069,0.009593,0.047031
286,-4.673481,3.971981,-5.164293,-0.069280,0.012790,0.032242
301,-4.608838,3.969586,-5.020641,-0.050495,0.011591,0.016654
316,-4.721365,4.027047,-5.140351,-0.011858,0.031443,-0.003464
331,-4.697423,4.070143,-5.094861,0.016121,0.025447,-0.029444
346,-4.541800,4.065354,-5.209783,0.037305,0.023315,-0.052093
361,-4.563348,4.046201,-5.178658,0.041701,0.017054,-0.064750
376,-4.637568,3.708618,-5.329493,0.017453,0.011458,-0.053292
391,-4.757279,3.655946,-5.252879,-0.030243,-0.000666,-0.030776
406,-4.632780,3.727772,-5.188235,-0.070080,-0.007861,-0.006662
421,-4.627992,3.897760,-5.061342,-0.061286,0.019185,-0.013989
436,-4.778827,3.919308,-5.018247,-0.035173,0.039037,-0.025047
451,-4.680664,3.801992,-5.013458,-0.023982,0.031709,-0.023182
466,-4.568137,3.679888,-5.164293,-0.031842,0.018919,-0.010792
481,-4.515464,3.687071,-5.013458,-0.051294,0.001599,0.013323
496,-4.661510,3.620033,-5.097255,-0.067015,0.004530,0.037172
511,-4.685452,3.646369,-4.920084,-0.081671,0.005329,0.057156
526,-4.668693,3.852270,-5.109226,-0.082870,0.031309,0.057556
541,-4.575319,3.952827,-5.039794,-0.078074,0.046098,0.051161
556,-4.570531,4.165911,-4.984728,-0.037971,0.042767,0.013456
571,-4.783615,4.053383,-5.116409,0.021850,0.043167,-0.033441
586,-4.707000,3.907337,-5.200206,0.038504,0.043300,-0.047963
601,-4.632780,3.679888,-5.164293,-0.003597,0.039170,-0.019718
616,-4.824317,3.670311,-5.123591,-0.049962,0.043433,0.019452
631,-4.668693,3.809175,-5.324705,-0.062619,0.025181,0.034907
646,-4.704606,4.022259,-5.159504,-0.042368,0.035706,0.032109
661,-4.630386,3.976769,-5.257667,-0.025847,0.020384,0.017054
676,-4.718971,3.904943,-5.315128,-0.033574,0.010126,0.014256
691,-4.695029,3.768473,-5.231330,-0.048896,-0.005063,0.023582
706,-4.637568,3.921702,-5.185841,-0.053426,-0.001998,0.024115
721,-4.553771,3.962404,-5.068525,-0.037838,0.001599,0.010392
736,-4.639963,3.974375,-5.149928,-0.018919,0.015322,-0.006662
751,-4.764462,3.852270,-5.190629,-0.004663,0.032642,-0.009593
766,-4.616021,3.837905,-5.260061,-0.016387,0.027179,-0.004130
781,-4.481946,3.861847,-5.214571,-0.024781,0.010658,0.000266
796,-4.707000,3.754108,-5.233725,-0.029844,0.003331,0.004930
811,-4.757279,3.744531,-5.099649,-0.041568,0.004397,0.010126
826,-4.697423,3.806781,-5.073313,-0.041568,0.010925,0.022916
841,-4.606444,3.921702,-5.020641,-0.019452,0.016121,0.025580
856,-4.546589,3.945644,-5.090073,0.001066,0.019718,0.017320
871,-4.608838,3.914520,-5.164293,0.012124,0.013190,0.013323
886,-4.678270,3.801992,-5.176264,0.009060,0.004530,0.007727
901,-4.699818,3.821146,-5.147533,-0.017187,0.018919,0.013456
916,-4.726154,3.885789,-5.128380,-0.030377,0.040502,0.006129
931,-4.690241,3.948039,-5.200206,-0.034107,0.041435,-0.003464
946,-4.642357,3.876213,-5.293580,-0.040902,0.031576,-0.006129
961,-4.453215,3.849876,-5.231330,-0.052227,0.005063,0.005329
976,-4.575319,3.859453,-5.125986,-0.051560,-0.006395,0.009060
991,-4.623203,3.811569,-4.967968,-0.047430,-0.009326,0.021450
1006,-4.601655,3.770868,-5.035006,-0.042767,0.003730,0.024515
1021,-4.558560,3.744531,-4.953603,-0.044499,0.015322,0.020518
1036,-4.587290,3.790021,-4.987122,-0.047430,0.040902,0.018652
1051,-4.692635,3.842694,-5.114015,-0.042501,0.048096,0.009326
1066,-4.548983,3.785233,-5.137957,-0.043300,0.043700,0.004930
1081,-4.400543,4.003105,-5.157110,-0.026779,0.025847,0.002265
1096,-4.589684,3.816357,-5.188235,-0.014389,0.023315,-0.000933
1111,-4.754885,3.732560,-5.092467,-0.027845,0.025580,0.015721
1126,-4.754885,3.687071,-5.149928,-0.057289,0.044499,0.034640
1141,-4.716577,3.936068,-5.195417,-0.066349,0.059021,0.033974
1156,-4.606444,4.053383,-5.154716,-0.055691,0.060221,0.022916
1171,-4.637568,4.055778,-5.200206,-0.023582,0.034640,0.005596
1186,-4.604050,3.986346,-5.286397,-0.006395,0.012923,0.000799
1201,-4.642357,3.809175,-5.248090,-0.011858,0.010126,0.017054
1216,-4.709394,3.734955,-5.243302,-0.043966,0.024648,0.037838
1231,-4.786009,3.744531,-5.209783,-0.067149,0.026380,0.052093
1246,-4.721365,4.019865,-5.272032,-0.066216,0.035839,0.040769
1261,-4.541800,4.134786,-5.305551,-0.041835,0.041435,0.017587
1276,-4.606444,4.074931,-5.250484,-0.009992,0.032908,-0.011458
1291,-4.673481,3.907337,-5.248090,-0.005196,0.023182,-0.014922
1306,-4.560954,3.888184,-5.231330,-0.031709,-0.001199,0.002531
1321,-4.546589,3.900155,-5.382165,-0.046098,-0.006262,0.000400
1336,-4.637568,3.852270,-5.231330,-0.072478,-0.013057,0.010925
1351,-4.699818,3.902549,-5.260061,-0.084202,-0.024515,0.021317
1366,-4.714183,4.039018,-5.130774,-0.049429,-0.017720,0.010259
1381,-4.632780,3.924097,-5.154716,-0.024115,0.000666,-0.006528
1396,-4.558560,3.916914,-5.164293,-0.013323,0.009726,-0.008394
1411,-4.642357,3.792415,-5.226542,-0.025314,0.012790,0.000266
1426,-4.568137,3.864241,-5.221754,-0.049962,-0.002531,0.015988
1441,-4.510676,3.948039,-5.166687,-0.055824,-0.008926,0.022383
1456,-4.608838,3.895366,-5.070919,-0.055957,-0.009060,0.026646
1471,-4.740520,3.881001,-5.056554,-0.053959,-0.000533,0.027046
1486,-4.632780,3.950433,-5.154716,-0.043966,0.006262,0.024781
1501,-4.460398,4.034230,-5.027823,-0.021184,0.016654,0.007594
1516,-4.453215,4.058172,-5.121197,0.000266,0.015188,-0.009459
1531,-4.642357,4.015076,-5.130774,0.016254,0.020384,-0.026646
1546,-4.565742,3.842694,-5.015852,0.001199,0.029178,-0.023715
1561,-4.520253,3.837905,-5.097255,-0.031443,0.035573,-0.007994
1576,-4.513070,3.780444,-5.173870,-0.071145,0.031975,0.013323
1591,-4.553771,3.943250,-5.013458,-0.086734,0.027712,0.021317
1606,-4.661510,4.091691,-5.137957,-0.060887,0.018253,0.008527
1621,-4.594473,3.885789,-5.097255,-0.043167,0.014922,0.003464
1636,-4.505888,3.845088,-5.061342,-0.049429,0.008926,0.019052
1651,-4.620809,3.837905,-5.039794,-0.056490,0.020651,0.030110
1666,-4.680664,3.866636,-4.963180,-0.069813,0.036372,0.032642
1681,-4.680664,4.000711,-5.099649,-0.060087,0.048896,0.006395
1696,-4.683058,4.015076,-5.195417,-0.038371,0.045965,-0.014123
1711,-4.592079,3.933673,-5.193023,-0.040236,0.034640,-0.011991
1726,-4.448427,3.909731,-5.200206,-0.059021,0.013323,0.002398
1741,-4.539406,4.039018,-5.243302,-0.058089,0.013989,0.000400
1756,-4.812346,3.979163,-5.176264,-0.039037,0.022250,-0.015988
1771,-4.661510,3.964798,-5.128380,-0.042101,0.032775,-0.012391
1786,-4.529830,3.950433,-5.207388,-0.056490,0.030243,-0.004397
1801,-4.513070,4.012682,-5.111620,-0.055557,0.027312,0.003464
1816,-4.647145,3.991134,-5.085284,-0.055291,0.023715,0.007194
1831,-4.644751,3.813963,-5.099649,-0.071145,0.037838,0.017320
1846,-4.422091,4.012682,-5.078102,-0.075142,0.047297,0.020518
1861,-4.496311,4.024653,-5.025429,-0.076475,0.037172,0.023982
1876,-4.575319,4.048595,-5.171475,-0.058355,0.031709,0.016387
1891,-4.570531,4.046201,-5.147533,-0.031576,0.022116,0.002132
1906,-4.563348,4.134786,-5.094861,-0.013590,0.028778,-0.019851
1921,-4.740520,4.165911,-5.202600,0.003331,0.031709,-0.046231
1936,-4.699818,4.077325,-5.300763,0.021850,0.039170,-0.068348
1951,-4.687847,3.964798,-5.398925,0.017587,0.025980,-0.068614
1966,-4.481946,3.780444,-5.451597,-0.026247,0.010658,-0.040369
1981,-4.587290,3.821146,-5.370194,-0.070479,-0.013723,-0.000799
1996,-4.707000,3.749320,-5.410896,-0.112580,-0.028645,0.035173
2011,-4.580108,3.608062,-5.281609,-0.181861,-0.047031,0.093928
2026,-4.618415,3.897760,-5.078102,-0.206242,-0.032109,0.129501
2041,-4.510676,4.168305,-4.941632,-0.164141,-0.018652,0.110848
2056,-4.587290,4.436456,-4.807557,-0.081671,-0.018119,0.052760
2071,-4.532224,4.345476,-4.833893,-0.000400,0.013723,-0.015721
2086,-4.505888,4.120421,-4.908113,0.033708,0.043167,-0.050761
2101,-4.546589,3.890578,-5.015852,0.012524,0.063152,-0.054225
2116,-4.618415,3.919308,-5.236119,-0.014256,0.062885,-0.044499
2131,-4.601655,3.837905,-5.312734,-0.034907,0.047164,-0.039037
2146,-4.537012,3.964798,-5.209783,-0.040369,0.036106,-0.020118
2161,-4.637568,4.007894,-5.202600,-0.048230,0.014389,-0.009859
2176,-4.795586,3.981557,-5.207388,-0.046098,0.014389,0.000933
2191,-4.711789,3.969586,-4.970363,-0.061953,0.010658,0.019319
2206,-4.649539,4.022259,-5.152322,-0.056490,0.016121,0.023182
2221,-4.522647,4.010288,-5.046977,-0.039037,0.014123,0.010259
2236,-4.647145,3.976769,-5.137957,-0.032242,0.009060,0.003864
2251,-4.532224,4.074931,-5.118803,-0.022116,-0.004397,-0.003597
2266,-4.510676,4.077325,-5.116409,-0.013190,-0.006129,-0.003997
2281,-4.560954,3.981557,-5.051765,-0.018119,0.004397,0.002665
2296,-4.635174,3.974375,-5.204994,-0.022783,0.030510,0.000533
2311,-4.613626,4.058172,-4.982334,-0.024115,0.040103,-0.002665
2326,-4.584896,4.187459,-5.039794,-0.007461,0.050628,-0.017453
2341,-4.575319,4.254497,-5.171475,0.029178,0.051827,-0.045032
2356,-4.613626,4.074931,-5.188235,0.053559,0.050894,-0.065683
2371,-4.632780,3.761291,-5.260061,0.015455,0.026779,-0.042501
2386,-4.551377,3.703830,-5.250484,-0.066083,-0.015721,0.008527
2401,-4.649539,3.883395,-5.164293,-0.106185,-0.027179,0.046897
2416,-4.711789,4.010288,-5.058948,-0.105253,-0.006928,0.054492
2431,-4.632780,4.247314,-5.075707,-0.066216,-0.002665,0.038637
2446,-4.486734,4.393360,-5.035006,0.009326,0.005596,-0.003730
2461,-4.548983,4.165911,-5.152322,0.043833,-0.002265,-0.031443
2476,-4.604050,3.904943,-5.185841,0.029577,-0.010792,-0.028645
2491,-4.604050,3.857059,-5.228936,-0.015721,-0.021317,-0.009992
2506,-4.560954,3.842694,-5.178658,-0.072877,-0.013323,0.016121
2521,-4.584896,3.909731,-5.039794,-0.106985,-0.001732,0.029044
2536,-4.594473,4.115633,-5.013458,-0.087933,0.000666,0.023715
2551,-4.627992,4.266468,-5.011064,-0.023182,0.015188,-0.006928
2566,-4.687847,4.232948,-4.939238,0.043034,0.041168,-0.043433
2581,-4.656722,3.907337,-5.147533,0.055824,0.062485,-0.047031
2596,-4.695029,3.706224,-5.252879,0.001599,0.048629,-0.009593
2611,-4.604050,3.722984,-5.279215,-0.073011,0.014123,0.040103
2626,-4.455609,3.948039,-5.274426,-0.122972,-0.026380,0.075276
2641,-4.577713,4.031836,-5.178658,-0.116311,-0.031842,0.077807
2656,-4.824317,4.173093,-5.075707,-0.084202,-0.007594,0.057556
2671,-4.766856,4.278439,-5.068525,-0.043300,0.007994,0.032642
2686,-4.582502,4.266468,-5.068525,0.001466,0.004130,-0.005329
2701,-4.510676,4.118027,-5.173870,0.018786,-0.003064,-0.025047
2716,-4.556166,3.928885,-5.231330,-0.001066,-0.012923,-0.026247
2731,-4.606444,3.821146,-5.238513,-0.040636,-0.018919,-0.005329
2746,-4.651934,3.969586,-5.046977,-0.070879,-0.029711,0.012923
2761,-4.661510,4.098873,-5.099649,-0.074476,-0.003997,0.016121
2776,-4.668693,4.141969,-5.212177,-0.055291,0.014789,-0.001865
2791,-4.630386,4.144363,-5.073313,-0.015588,0.016920,-0.032109
2806,-4.424485,4.048595,-5.018247,-0.000666,0.000133,-0.040103
2821,-4.568137,3.916914,-4.941632,0.000133,-0.003864,-0.035706
2836,-4.666299,3.758897,-4.951209,-0.017986,0.005862,-0.013723
2851,-4.690241,3.849876,-4.970363,-0.039969,0.015055,0.004663
2866,-4.496311,3.967192,-4.994305,-0.038237,0.026913,0.007328
2881,-4.412514,3.976769,-4.963180,-0.031176,0.020251,0.007727
2896,-4.560954,3.921702,-4.972757,-0.022916,0.008260,-0.000400
2911,-4.606444,3.866636,-5.049371,-0.028245,0.008260,0.000133
2926,-4.556166,3.900155,-5.209783,-0.042767,-0.013057,0.011325
2941,-4.548983,3.897760,-5.121197,-0.048363,-0.036239,0.027579
2956,-4.623203,3.928885,-5.097255,-0.057822,-0.032109,0.039436
2971,-4.639963,4.019865,-5.049371,-0.053426,-0.016787,0.051161
2986,-4.553771,4.077325,-4.958392,-0.042368,-0.000666,0.051694
3001,-4.613626,4.007894,-4.941632,-0.041568,0.029178,0.049029
3016,-4.582502,4.122815,-4.936844,-0.026380,0.043433,0.025181
3031,-4.642357,4.134786,-4.900931,-0.013190,0.051161,0.007727
3046,-4.510676,4.027047,-5.051765,-0.015721,0.049695,-0.004663
3061,-4.453215,3.940856,-5.178658,-0.032375,0.051827,0.001998
3076,-4.651934,3.979163,-5.061342,-0.041168,0.043966,0.010925
3091,-4.788404,4.055778,-5.094861,-0.033041,0.042900,0.015588
3106,-4.647145,4.065354,-5.068525,-0.032775,0.042501,0.024914
3121,-4.584896,4.072537,-5.154716,-0.041168,0.038770,0.033175
3136,-4.695029,4.050989,-5.070919,-0.056357,0.029444,0.032775
3151,-4.750096,4.096479,-5.128380,-0.079539,0.010658,0.036239
3166,-4.704606,4.321534,-5.164293,-0.064351,-0.003198,0.016787
3181,-4.733336,4.237737,-5.307945,-0.036505,-0.020917,-0.003997
3196,-4.666299,4.062960,-5.329493,-0.030110,-0.028112,-0.010792
3211,-4.707000,4.031836,-5.252879,-0.047430,-0.031576,0.008394
3226,-4.671087,4.041412,-5.137957,-0.068747,-0.030910,0.030910
3241,-4.515464,4.137180,-5.039794,-0.083536,-0.025047,0.040236
3256,-4.659116,4.276044,-4.953603,-0.071812,-0.017853,0.022649
3271,-4.723760,4.345476,-5.104438,-0.029178,-0.014655,-0.019452
3286,-4.702212,4.240131,-5.183446,0.002931,-0.008394,-0.049429
3301,-4.608838,4.005499,-5.216965,0.001466,-0.007994,-0.052093
3316,-4.618415,3.962404,-5.202600,-0.013590,-0.013323,-0.029178
3331,-4.711789,3.792415,-5.214571,-0.033041,-0.012657,-0.004397
3346,-4.711789,3.809175,-5.039794,-0.052760,0.012391,0.007328
3361,-4.625597,3.971981,-4.900931,-0.060087,0.024648,0.012923
3376,-4.651934,4.182670,-5.020641,-0.032775,0.048230,-0.005063
3391,-4.630386,4.106056,-4.967968,-0.004663,0.027046,-0.027312
3406,-4.553771,4.194641,-4.910508,0.037971,0.012257,-0.047963
3421,-4.560954,3.955221,-5.018247,0.057156,0.008260,-0.052360
3436,-4.704606,3.660734,-5.145139,0.019185,0.012657,-0.017054
3451,-4.776433,3.675100,-5.171475,-0.059688,0.014389,0.038371
3466,-4.723760,3.979163,-5.130774,-0.093262,0.009859,0.070746
3481,-4.613626,4.204218,-4.958392,-0.073943,0.013723,0.058355
3496,-4.616021,4.299986,-5.037400,-0.020651,0.020251,0.022916
3511,-4.599261,4.204218,-4.967968,0.027579,0.013190,-0.017720
3526,-4.637568,4.161122,-5.054160,0.049296,-0.001732,-0.029711
3541,-4.618415,4.005499,-5.125986,0.034907,-0.009726,-0.033974
3556,-4.714183,3.962404,-5.085284,-0.010925,0.003997,-0.013590
3571,-4.752491,3.986346,-5.025429,-0.035839,0.019585,-0.008793
3586,-4.680664,4.003105,-5.109226,-0.050361,0.018519,-0.004796
3601,-4.517859,4.019865,-5.066131,-0.058089,0.012391,-0.004530
3616,-4.529830,4.017470,-5.020641,-0.044632,-0.000933,-0.010259
3631,-4.599261,3.804386,-5.044583,-0.059288,-0.023049,0.005862
3646,-4.618415,3.938462,-4.738125,-0.065949,-0.039037,0.041302
3661,-4.644751,4.067749,-4.742914,-0.049562,-0.021317,0.047430
3676,-4.723760,4.046201,-4.754885,-0.041968,0.010259,0.048496
3691,-4.759673,4.118027,-4.912902,-0.034507,0.040103,0.035306
3706,-4.616021,4.256891,-4.929661,-0.009593,0.053825,0.009859
3721,-4.584896,4.153940,-5.037400,0.000666,0.059821,-0.011458
3736,-4.510676,4.010288,-5.051765,-0.000400,0.050361,-0.015988
3751,-4.592079,3.871424,-5.111620,-0.016920,0.036106,-0.003864
3766,-4.659116,3.991134,-5.068525,-0.023848,0.037038,0.018919
3781,-4.565742,3.928885,-4.951209,-0.036905,0.041302,0.036239
3796,-4.680664,4.010288,-5.013458,-0.046631,0.050628,0.040236
3811,-4.793192,4.192247,-4.987122,-0.039436,0.055424,0.021983
3826,-4.690241,4.220977,-5.169081,-0.023848,0.053559,0.000000
3841,-4.510676,4.139575,-5.094861,-0.020384,0.039436,-0.013323
3856,-4.558560,4.065354,-5.133168,-0.008926,0.011325,-0.031309
3871,-4.575319,3.928885,-5.066131,-0.010259,0.005462,-0.035972
3886,-4.594473,3.816357,-5.020641,-0.041968,0.018652,-0.018386
3901,-4.541800,3.998317,-4.905719,-0.066749,0.020384,0.018652
3916,-4.695029,4.079720,-4.967968,-0.039170,0.031176,0.016121
3931,-4.747702,3.940856,-5.176264,-0.015988,0.070213,0.014655
3946,-4.659116,3.943250,-5.109226,-0.045299,0.033041,0.030910
3961,-4.510676,4.029441,-5.092467,-0.073544,0.019585,0.040502
3976,-4.548983,4.003105,-5.154716,-0.086334,0.012923,0.045698
3991,-4.663905,3.967192,-5.078102,-0.102322,0.006662,0.055691
4006,-4.716577,4.213795,-5.051765,-0.092462,0.022250,0.049962
4021,-4.503493,4.405331,-5.111620,-0.028778,0.047164,0.015055
4036,-4.510676,4.228160,-5.154716,0.001732,0.039836,-0.015588
4051,-4.563348,3.943250,-5.245696,-0.011458,0.025447,-0.014922
4066,-4.666299,3.964798,-5.200206,-0.033041,0.025714,0.000266
4081,-4.616021,4.048595,-5.011064,-0.057156,0.018386,0.015322
4096,-4.635174,4.062960,-5.044583,-0.061553,0.035306,0.013723
4111,-4.697423,4.062960,-5.109226,-0.045698,0.051028,0.001732
4126,-4.596867,4.189853,-5.202600,-0.027845,0.043433,-0.013856
4141,-4.458004,4.314352,-5.228936,0.011591,0.006662,-0.039570
4156,-4.572925,3.936068,-5.195417,0.015455,-0.021184,-0.040369
4171,-4.817134,3.792415,-5.087678,-0.026247,-0.036639,-0.003464
4186,-4.769250,3.830723,-5.102044,-0.058489,-0.020917,0.036905
4201,-4.608838,3.962404,-5.125986,-0.082737,-0.004130,0.062752
4216,-4.498705,4.185064,-5.070919,-0.081271,0.003331,0.060887
4231,-4.551377,4.127604,-5.070919,-0.070879,-0.001066,0.043167
4246,-4.580108,4.134786,-4.908113,-0.062752,-0.001199,0.027579
4261,-4.656722,4.101267,-4.951209,-0.053559,-0.003864,0.015721
4276,-4.601655,4.237737,-4.991910,-0.028245,0.004263,0.000533
4291,-4.630386,3.983952,-5.164293,-0.011724,-0.006795,0.003198
4306,-4.699818,4.010288,-5.137957,-0.015988,-0.001732,0.020251
4321,-4.565742,3.964798,-5.054160,-0.039436,0.000266,0.035706
4336,-4.575319,3.962404,-4.953603,-0.061953,0.000133,0.053825
4351,-4.649539,4.163517,-4.982334,-0.072744,0.007994,0.055691
4366,-4.611232,4.280833,-4.955997,-0.052227,0.011058,0.039037
4381,-4.582502,4.268862,-5.018247,-0.036239,0.008793,0.025847
4396,-4.572925,4.232948,-5.061342,-0.020251,0.011458,0.009060
4411,-4.620809,4.149151,-5.039794,-0.010925,0.018519,0.002265
4426,-4.656722,4.086902,-5.023035,-0.013456,0.020917,0.005063
4441,-4.604050,4.079720,-5.097255,-0.035573,0.025314,0.023848
4456,-4.534618,4.082114,-5.070919,-0.063685,0.028378,0.042767
4471,-4.608838,4.029441,-5.054160,-0.108051,0.015455,0.064617
4486,-4.673481,4.062960,-5.018247,-0.141891,0.006528,0.079806
4501,-4.448427,4.458004,-4.939238,-0.116977,0.001466,0.054891
4516,-4.515464,4.616021,-4.989516,-0.038371,-0.015988,-0.003997
4531,-4.721365,4.225766,-4.941632,0.013190,-0.010126,-0.037438
4546,-4.647145,3.986346,-5.152322,-0.001732,0.013989,-0.027179
4561,-4.558560,3.962404,-5.073313,-0.045832,0.018919,0.006928
4576,-4.458004,4.077325,-5.063736,-0.075675,0.019452,0.025980
4591,-4.606444,4.201824,-4.965574,-0.066749,0.015855,0.023182
4606,-4.735731,4.295198,-4.994305,-0.016254,0.034240,-0.006528
4621,-4.642357,4.249708,-5.075707,0.003730,0.025580,-0.014922
4636,-4.587290,4.129998,-5.006276,0.009859,0.032908,-0.006129
4651,-4.599261,4.005499,-5.075707,-0.003597,0.024381,0.008127
4666,-4.505888,3.981557,-5.123591,-0.031309,0.013989,0.023715
4681,-4.534618,4.072537,-5.061342,-0.056224,0.011724,0.033574
4696,-4.407725,4.328717,-5.078102,-0.047430,0.016654,0.028511
4711,-4.659116,4.290410,-5.018247,-0.017853,0.022783,0.010925
4726,-4.740520,4.197035,-5.123591,0.006662,0.037838,-0.000266
4741,-4.575319,4.201824,-5.063736,0.015721,0.031443,-0.013590
4756,-4.453215,4.194641,-5.137957,0.005596,0.013723,-0.014123
4771,-4.601655,4.072537,-5.058948,-0.009726,0.007328,-0.012257
4786,-4.718971,4.015076,-5.185841,-0.033175,0.017986,-0.000799
4801,-4.599261,4.168305,-5.011064,-0.049828,0.024781,0.000666
4816,-4.469975,4.364630,-5.149928,-0.030643,0.006528,-0.004930
4831,-4.663905,4.182670,-5.142745,-0.026779,0.005596,-0.001066
4846,-4.661510,4.216189,-4.994305,-0.017587,0.003064,0.007328
4861,-4.608838,4.015076,-5.054160,-0.040636,-0.019585,0.026913
4876,-4.522647,4.096479,-5.090073,-0.078873,-0.025181,0.051560
4891,-4.534618,4.235343,-4.967968,-0.092063,-0.026380,0.046631
4906,-4.630386,4.225766,-4.879383,-0.080205,-0.019985,0.022116
4921,-4.594473,4.299986,-4.829105,-0.044766,-0.005729,-0.010658
4936,-4.544195,4.242526,-4.824317,-0.002265,0.017320,-0.037571
4951,-4.613626,4.134786,-4.936844,0.025047,0.035306,-0.041168
4966,-4.627992,3.924097,-4.999093,0.005596,0.036905,-0.013456
4981,-4.441244,4.070143,-5.044583,-0.031176,0.026380,0.017986
4996,-4.400543,4.177882,-5.173870,-0.059155,0.001998,0.034907
5011,-4.572925,4.204218,-5.114015,-0.059421,0.002531,0.030110
5026,-4.654328,4.252102,-4.977545,-0.056757,0.005063,0.009459
5041,-4.592079,4.278439,-5.037400,-0.049562,0.001865,-0.004263
5056,-4.505888,4.185064,-5.018247,-0.028778,0.003597,-0.012391
5071,-4.647145,4.161122,-4.953603,-0.005862,0.011058,-0.017587
5086,-4.685452,4.055778,-4.910508,-0.001732,0.020518,-0.007861
5101,-4.448427,4.077325,-4.946421,-0.014256,0.034374,0.010525
5116,-4.491522,4.173093,-5.128380,-0.027312,0.026646,0.015188
5131,-4.503493,4.292804,-5.058948,-0.038904,0.020651,0.014123
5146,-4.625597,4.197035,-5.042189,-0.046231,0.014789,0.007461
5161,-4.649539,4.232948,-4.929661,-0.046231,0.021317,-0.015055
5176,-4.630386,4.218583,-4.922479,-0.025847,0.043700,-0.034773
5191,-4.651934,4.118027,-5.097255,-0.018786,0.045165,-0.035040
5206,-4.709394,4.129998,-5.082890,-0.021450,0.030243,-0.026913
5221,-4.608838,4.007894,-5.123591,-0.026380,0.022516,-0.014922
5236,-4.572925,3.952827,-5.250484,-0.063285,-0.009459,0.021850
5251,-4.711789,3.991134,-5.044583,-0.078740,-0.027446,0.052093
5266,-4.642357,4.302381,-4.900931,-0.060221,-0.009859,0.047564
5281,-4.673481,4.295198,-4.920084,-0.027312,0.028378,0.021317
5296,-4.642357,4.185064,-4.970363,0.004530,0.044499,-0.010658
5311,-4.527435,4.151546,-5.111620,0.006662,0.042368,-0.028778
5326,-4.426879,4.132392,-5.099649,-0.006528,0.027179,-0.030243
5341,-4.460398,4.007894,-5.224148,-0.029977,0.010792,-0.012657
5356,-4.709394,4.055778,-5.070919,-0.039969,-0.007061,0.009593
5371,-4.819528,4.106056,-5.006276,-0.040236,0.010525,0.031443
5386,-4.769250,4.113238,-5.116409,-0.042368,0.020784,0.050894
5401,-4.604050,4.288015,-5.209783,-0.048763,0.012391,0.056623
5416,-4.661510,4.278439,-5.061342,-0.050495,-0.002265,0.043034
5431,-4.632780,4.271256,-5.063736,-0.045165,-0.004663,0.019185
5446,-4.469975,4.247314,-5.008670,-0.041168,-0.018519,0.000666
5461,-4.546589,4.256891,-4.898537,-0.024115,-0.014522,-0.021983
5476,-4.666299,4.139575,-5.051765,-0.011058,0.005596,-0.027979
5491,-4.666299,4.137180,-5.080496,-0.021983,0.019319,-0.016387
5506,-4.527435,4.094085,-5.032612,-0.035440,0.009459,-0.003997
5521,-4.501099,4.065354,-4.958392,-0.048496,-0.004263,0.005462
5536,-4.630386,4.084508,-4.915296,-0.045698,-0.014123,0.019052
5551,-4.797980,4.096479,-4.814740,-0.033841,-0.005729,0.025447
5566,-4.625597,4.118027,-4.948815,-0.023715,0.012790,0.026779
5581,-4.455609,4.225766,-4.972757,-0.025980,0.019052,0.028378
5596,-4.556166,4.194641,-5.121197,-0.015188,0.004130,0.013456
5611,-4.656722,4.180276,-5.066131,-0.011858,0.006795,0.003597
5626,-4.558560,4.062960,-4.951209,-0.047031,-0.009859,0.006662
5641,-4.498705,4.141969,-4.944026,-0.051294,0.007594,0.015721
5656,-4.575319,4.141969,-4.829105,-0.032109,0.023449,0.011458
5671,-4.637568,4.216189,-4.764462,-0.006928,0.043966,-0.001466
5686,-4.537012,4.199430,-4.853047,0.005729,0.047031,-0.009593
5701,-4.455609,4.156334,-4.982334,0.002531,0.036106,-0.001066
5716,-4.515464,4.084508,-5.049371,-0.003198,0.021450,0.008793
5731,-4.757279,4.046201,-4.936844,-0.019585,0.025847,0.031576
5746,-4.618415,4.103662,-5.135562,-0.028511,0.020518,0.044100
5761,-4.527435,4.077325,-4.979939,-0.055557,0.011191,0.066216
5776,-4.580108,4.153940,-5.097255,-0.083403,0.004530,0.072877
5791,-4.659116,4.326323,-5.023035,-0.071279,0.018519,0.058089
5806,-4.639963,4.474763,-5.013458,-0.039037,0.033041,0.017320
5821,-4.539406,4.422091,-5.027823,0.003597,0.022916,-0.015055
5836,-4.599261,4.149151,-5.147533,0.006129,0.021450,-0.027046
5851,-4.745308,4.082114,-5.102044,-0.021983,0.014789,-0.005862
5866,-4.599261,4.096479,-5.090073,-0.046764,0.007061,0.020384
5881,-4.558560,4.108450,-5.006276,-0.055424,0.013456,0.038904
5896,-4.594473,4.192247,-5.044583,-0.057023,0.011458,0.055824
5911,-4.596867,4.268862,-5.061342,-0.049962,0.013989,0.050761
5926,-4.589684,4.285621,-4.984728,-0.043034,0.014789,0.036639
5941,-4.395754,4.343082,-4.958392,-0.046231,0.004930,0.021184
5956,-4.529830,4.247314,-4.891354,-0.043300,0.007861,0.004663
5971,-4.601655,4.302381,-4.922479,-0.032775,0.022783,-0.011458
5986,-4.594473,4.367024,-4.972757,-0.009193,0.035706,-0.025447
6001,-4.474763,4.273650,-5.140351,-0.001199,0.031043,-0.028378
6016,-4.544195,4.170699,-5.161899,-0.003597,0.014256,-0.024515
6031,-4.623203,4.000711,-5.106832,-0.028911,-0.000400,-0.003864
6046,-4.699818,4.139575,-5.090073,-0.053159,-0.008527,0.013190
6061,-4.484340,4.180276,-4.898537,-0.079006,-0.008926,0.023982
6076,-4.596867,4.285621,-4.920084,-0.078340,0.010925,0.026646
6091,-4.654328,4.498705,-4.922479,-0.043167,0.026247,0.003064
6106,-4.541800,4.400543,-4.963180,-0.007194,0.029178,-0.023982
6121,-4.481946,4.216189,-5.094861,-0.009326,0.023715,-0.027446
6136,-4.541800,4.086902,-5.054160,-0.045698,0.008127,-0.013456
6151,-4.690241,4.029441,-5.039794,-0.080871,0.003597,0.003198
6166,-4.606444,4.228160,-4.900931,-0.086201,-0.001466,0.002265
6181,-4.546589,4.350265,-4.982334,-0.060354,0.014922,-0.010259
6196,-4.596867,4.283227,-4.900931,-0.031709,0.028778,-0.022916
6211,-4.675876,4.168305,-5.003881,-0.017320,0.035306,-0.027979
6226,-4.544195,4.089296,-4.965574,-0.021051,0.028778,-0.014789
6241,-4.491522,4.024653,-4.989516,-0.043167,0.020118,0.014123
6256,-4.560954,4.007894,-4.989516,-0.064484,0.017453,0.039570
6271,-4.716577,4.103662,-4.948815,-0.078740,0.004397,0.059288
6286,-4.601655,4.347870,-4.929661,-0.074343,0.015455,0.045698
6301,-4.565742,4.376601,-4.953603,-0.053559,0.025847,0.027845
6316,-4.450821,4.386178,-4.934450,-0.019985,0.024781,0.003597
6331,-4.534618,4.285621,-4.912902,-0.002265,0.023982,-0.007194
6346,-4.568137,4.170699,-4.965574,0.001998,0.016920,-0.007861
6361,-4.539406,4.091691,-4.999093,-0.015855,0.010126,0.013323
6376,-4.618415,4.007894,-5.030218,-0.054758,0.034374,0.039703
6391,-4.750096,4.091691,-5.137957,-0.090864,0.038504,0.065417
6406,-4.604050,4.235343,-5.020641,-0.128701,0.017720,0.088998
6421,-4.575319,4.422091,-5.035006,-0.114845,0.009060,0.082603
6436,-4.486734,4.513070,-5.051765,-0.049296,-0.000400,0.046364
6451,-4.592079,4.311957,-5.035006,-0.018519,-0.009060,0.023582
6466,-4.515464,4.232948,-4.977545,-0.028378,0.003597,0.020518
6481,-4.469975,4.326323,-4.900931,-0.047564,0.018253,0.028511
6496,-4.486734,4.362236,-4.979939,-0.048629,0.015721,0.025314
6511,-4.608838,4.285621,-5.035006,-0.043700,0.019851,0.012124
6526,-4.637568,4.266468,-4.967968,-0.045965,0.017986,0.010126
6541,-4.548983,4.280833,-5.023035,-0.049695,0.011191,0.010392
6556,-4.596867,4.311957,-5.006276,-0.041168,0.012124,0.011325
6571,-4.606444,4.302381,-5.008670,-0.025047,0.009459,0.009193
6586,-4.513070,4.254497,-5.068525,-0.021450,0.005995,0.016121
6601,-4.486734,4.244920,-5.051765,-0.033974,0.008793,0.021317
6616,-4.582502,4.319140,-4.977545,-0.048896,0.018119,0.024248
6631,-4.630386,4.232948,-4.915296,-0.047430,0.020784,0.014522
6646,-4.668693,4.395754,-4.939238,-0.025580,0.017453,-0.003331
6661,-4.558560,4.347870,-5.015852,0.010792,0.017853,-0.021051
6676,-4.668693,4.242526,-5.027823,0.031043,0.012391,-0.019718
6691,-4.692635,4.122815,-5.152322,0.015055,0.010259,0.001199
6706,-4.642357,4.096479,-5.054160,-0.021983,-0.001466,0.035706
6721,-4.491522,4.237737,-5.049371,-0.051294,-0.013723,0.060087
6736,-4.386178,4.268862,-4.996699,-0.062752,-0.013057,0.063818
6751,-4.563348,4.364630,-4.843470,-0.057556,-0.005862,0.052760
6766,-4.517859,4.386178,-4.687847,-0.043167,-0.002531,0.038504
6781,-4.575319,4.501099,-4.865018,-0.018652,0.001332,0.017986
6796,-4.620809,4.460398,-4.920084,0.014123,0.019185,-0.010259
6811,-4.642357,4.376601,-4.893748,0.015188,0.035972,-0.021717
6826,-4.584896,4.266468,-5.121197,-0.001466,0.033041,-0.011058
6841,-4.443638,4.276044,-4.958392,-0.022250,0.016121,0.006262
6856,-4.402937,4.252102,-5.075707,-0.035706,0.005862,0.021317
6871,-4.481946,4.187459,-4.994305,-0.050894,0.009060,0.035173
6886,-4.527435,4.252102,-4.857835,-0.058089,0.009593,0.043567
6901,-4.472369,4.390966,-4.893748,-0.052227,0.017187,0.037172
6916,-4.481946,4.477157,-4.778827,-0.022516,0.029178,0.016121
6931,-4.565742,4.405331,-4.881777,0.002931,0.033175,-0.007594
6946,-4.594473,4.283227,-4.872200,0.006262,0.030910,-0.013723
6961,-4.467580,4.252102,-4.977545,-0.003198,0.033308,-0.004663
6976,-4.541800,4.311957,-5.039794,-0.009459,0.029444,0.005729
6991,-4.592079,4.323928,-5.082890,-0.016121,0.024381,0.017853
7006,-4.647145,4.249708,-5.106832,-0.029444,0.012657,0.028511
7021,-4.486734,4.240131,-5.006276,-0.055424,0.006528,0.042368
7036,-4.479551,4.357447,-5.051765,-0.073544,-0.004663,0.046897
7051,-4.666299,4.472369,-4.982334,-0.057556,-0.003198,0.037305
7066,-4.697423,4.501099,-5.011064,-0.024914,0.012257,0.013590
7081,-4.481946,4.431667,-4.999093,-0.013989,0.026513,0.002798
7096,-4.410120,4.390966,-5.149928,-0.013057,0.026913,-0.005729
7111,-4.527435,4.422091,-5.147533,-0.017054,0.020651,-0.018652
7126,-4.568137,4.223372,-5.078102,-0.032242,0.001998,-0.013323
7141,-4.601655,4.218583,-4.955997,-0.041968,-0.002931,-0.003997
7156,-4.493917,4.254497,-4.915296,-0.043833,-0.009859,0.006262
7171,-4.707000,4.199430,-4.879383,-0.035972,-0.009992,0.014789
7186,-4.673481,4.278439,-4.977545,-0.013456,0.007594,0.011191
7201,-4.553771,4.326323,-4.922479,-0.002665,0.015055,0.004397
7216,-4.393360,4.331111,-4.991910,-0.010392,0.018652,0.004130
7231,-4.378995,4.276044,-4.908113,-0.030776,0.015322,0.004530
7246,-4.460398,4.292804,-4.970363,-0.044100,0.006129,0.010392
7261,-4.450821,4.371812,-4.927267,-0.046498,0.008660,0.017453
7276,-4.462792,4.283227,-4.783615,-0.040769,0.017054,0.012657
7291,-4.589684,4.264073,-4.884171,-0.034240,0.033574,0.007328
7306,-4.651934,4.323928,-4.838682,-0.025580,0.042368,0.000133
7321,-4.508282,4.417302,-4.884171,-0.001732,0.037704,-0.007194
7336,-4.508282,4.381389,-5.051765,0.019718,0.040236,-0.017187
7351,-4.481946,4.228160,-5.085284,0.009859,0.031842,-0.008926
7366,-4.501099,4.156334,-5.035006,-0.023315,0.031709,0.005196
7381,-4.496311,4.197035,-5.173870,-0.062885,0.020518,0.024381
7396,-4.398149,4.256891,-5.082890,-0.091397,0.012124,0.040902
7411,-4.570531,4.383783,-5.013458,-0.086334,0.008926,0.038504
7426,-4.714183,4.462792,-4.972757,-0.044899,0.005196,0.020518
7441,-4.649539,4.419696,-4.884171,0.004796,0.017587,-0.002931
7456,-4.570531,4.276044,-4.900931,0.009726,0.022516,0.003997
7471,-4.551377,4.204218,-5.094861,-0.010792,0.031043,0.012790
7486,-4.525041,4.261679,-5.092467,-0.043700,0.015588,0.019185
7501,-4.398149,4.362236,-5.015852,-0.058888,-0.006262,0.018652
7516,-4.359841,4.328717,-5.027823,-0.070080,-0.005862,0.017453
7531,-4.639963,4.436456,-4.951209,-0.050761,0.000933,0.010525
7546,-4.659116,4.357447,-4.869806,-0.016254,0.028778,-0.005596
7561,-4.594473,4.335899,-4.884171,0.001466,0.031709,-0.007861
7576,-4.477157,4.345476,-4.910508,-0.000799,0.034107,-0.005729
7591,-4.479551,4.266468,-5.068525,-0.009859,0.027312,0.001599
7606,-4.548983,4.228160,-5.063736,-0.021983,0.007727,0.009060
7621,-4.479551,4.295198,-4.955997,-0.032242,-0.001066,0.014522
7636,-4.395754,4.278439,-5.073313,-0.041968,-0.008127,0.026247
7651,-4.383783,4.355053,-4.917690,-0.055957,-0.009593,0.033441
7666,-4.517859,4.386178,-4.915296,-0.050894,-0.002798,0.031309
7681,-4.481946,4.436456,-4.814740,-0.036505,0.011458,0.013989
7696,-4.505888,4.347870,-4.786009,-0.027712,0.027579,0.004930
7711,-4.513070,4.359841,-4.833893,-0.027579,0.039303,-0.000666
7726,-4.613626,4.369418,-5.035006,-0.029711,0.035306,-0.003464
7741,-4.498705,4.343082,-4.967968,-0.042234,0.020118,0.003064
7756,-4.448427,4.326323,-5.099649,-0.047564,0.001466,0.008394
7771,-4.438850,4.278439,-5.039794,-0.052360,-0.002665,0.018119
7786,-4.587290,4.247314,-4.924873,-0.056757,0.005462,0.027845
7801,-4.637568,4.335899,-4.924873,-0.052360,0.029178,0.023315
7816,-4.472369,4.388572,-4.872200,-0.043966,0.040502,0.007861
7831,-4.534618,4.386178,-5.023035,-0.030776,0.047430,-0.012524
7846,-4.656722,4.381389,-4.987122,-0.018519,0.042634,-0.027712
7861,-4.548983,4.316746,-5.063736,-0.007594,0.025181,-0.028378
7876,-4.513070,4.209006,-5.080496,-0.005596,0.009459,-0.014256
7891,-4.580108,4.115633,-5.099649,-0.028645,-0.004530,0.015455
7906,-4.551377,4.144363,-5.125986,-0.054625,-0.004263,0.045299
7921,-4.527435,4.340688,-5.003881,-0.068881,-0.010259,0.054891
7936,-4.484340,4.438850,-4.991910,-0.058888,-0.000400,0.045698
7951,-4.513070,4.529830,-4.860229,-0.043567,-0.004130,0.012124
7966,-4.546589,4.486734,-4.963180,-0.001066,0.008527,-0.031176
7981,-4.539406,4.508282,-4.977545,0.017853,0.011325,-0.054625
7996,-4.369418,4.314352,-5.027823,0.022116,0.006395,-0.048763
8011,-4.496311,4.264073,-4.960786,0.015855,0.006129,-0.033574
8026,-4.381389,4.185064,-5.027823,0.003597,0.008394,-0.022250
8041,-4.649539,4.156334,-4.967968,-0.034907,0.021450,0.002665
8056,-4.458004,4.422091,-4.999093,-0.062485,0.015855,0.016654
8071,-4.479551,4.328717,-4.946421,-0.067681,0.019985,0.014522
8086,-4.604050,4.419696,-4.886566,-0.068614,0.004130,0.009726
8101,-4.613626,4.405331,-4.850653,-0.043167,-0.006662,0.000933
8116,-4.532224,4.309563,-4.908113,-0.025980,-0.003198,-0.000799
8131,-4.515464,4.295198,-4.972757,-0.026779,-0.004530,0.009060
8146,-4.596867,4.321534,-4.862624,-0.032242,0.006129,0.005063
8161,-4.608838,4.381389,-4.872200,-0.040236,0.017720,-0.000533
8176,-4.431667,4.441244,-4.977545,-0.036772,0.020917,-0.007994
8191,-4.426879,4.328717,-4.898537,-0.044366,0.009060,-0.013723
8206,-4.584896,4.283227,-4.824317,-0.044899,0.021317,-0.015455
8221,-4.606444,4.352659,-4.927267,-0.039703,0.020384,-0.016654
8236,-4.467580,4.302381,-4.891354,-0.041701,0.020118,-0.008926
8251,-4.465186,4.285621,-5.003881,-0.051560,0.019718,0.001199
8266,-4.546589,4.338294,-4.987122,-0.059421,0.015455,0.004796
8281,-4.599261,4.307169,-4.991910,-0.060620,0.005196,0.002531
8296,-4.477157,4.292804,-4.843470,-0.054092,0.007328,0.003997
8311,-4.517859,4.304775,-4.900931,-0.047564,0.006928,0.006928
8326,-4.608838,4.209006,-4.833893,-0.044766,0.006129,0.020118
8341,-4.565742,4.216189,-4.891354,-0.045432,0.014922,0.029844
8356,-4.388572,4.271256,-4.941632,-0.054358,0.014789,0.032908
8371,-4.280833,4.359841,-4.817134,-0.045432,0.019585,0.022516
8386,-4.462792,4.266468,-4.850653,-0.036239,0.025847,0.009859
8401,-4.510676,4.335899,-4.879383,-0.036639,0.035173,0.006928
8416,-4.424485,4.355053,-4.915296,-0.018919,0.053292,-0.001732
8431,-4.364630,4.288015,-4.934450,-0.007461,0.050628,0.000799
8446,-4.584896,4.204218,-5.070919,-0.015588,0.035573,0.021450
8461,-4.639963,4.271256,-5.056554,-0.032908,0.027979,0.036505
8476,-4.606444,4.460398,-5.087678,-0.044100,0.028245,0.033841
8491,-4.537012,4.522647,-5.015852,-0.047164,0.024914,0.017986
8506,-4.551377,4.453215,-5.068525,-0.042767,0.028112,0.013989
8521,-4.565742,4.405331,-4.955997,-0.031975,0.023982,0.002132
8536,-4.474763,4.486734,-4.927267,-0.021850,0.028245,-0.011858
8551,-4.424485,4.338294,-4.927267,-0.012790,0.045299,-0.017320
8566,-4.594473,4.280833,-5.035006,-0.021717,0.034107,-0.002531
8581,-4.508282,4.383783,-5.037400,-0.031709,0.032242,0.009459
8596,-4.474763,4.355053,-5.049371,-0.032775,0.026779,0.018919
8611,-4.465186,4.350265,-4.912902,-0.044899,0.022250,0.027845
8626,-4.570531,4.393360,-4.903325,-0.050095,0.022116,0.026646
8641,-4.630386,4.350265,-4.982334,-0.054492,0.026113,0.023848
8656,-4.503493,4.417302,-5.104438,-0.057023,0.026646,0.014256
8671,-4.424485,4.443638,-5.037400,-0.043567,0.016121,-0.003198
8686,-4.539406,4.410120,-5.087678,-0.021184,0.023049,-0.011724
8701,-4.580108,4.333505,-5.008670,-0.013456,0.023982,-0.012923
8716,-4.541800,4.328717,-5.061342,-0.029977,0.020917,0.002132
8731,-4.477157,4.424485,-5.073313,-0.043700,0.022250,0.013856
8746,-4.592079,4.405331,-5.082890,-0.056490,0.020518,0.009859
8761,-4.580108,4.362236,-5.039794,-0.067415,0.009193,0.009859
8776,-4.541800,4.395754,-4.898537,-0.063685,-0.010126,0.009459
8791,-4.443638,4.429273,-4.888960,-0.055824,-0.007861,0.005329
8806,-4.333505,4.402937,-4.817134,-0.026779,-0.010392,-0.005196
8821,-4.632780,4.299986,-4.817134,-0.012524,0.017453,-0.012257
8836,-4.491522,4.333505,-4.977545,-0.014922,0.035306,-0.016920
8851,-4.410120,4.362236,-5.023035,-0.023982,0.037172,-0.014789
8866,-4.491522,4.323928,-5.056554,-0.035173,0.026113,-0.007594
8881,-4.474763,4.412514,-4.982334,-0.040236,0.007461,-0.000666
8896,-4.510676,4.256891,-5.121197,-0.051028,-0.000533,0.016254
8911,-4.577713,4.194641,-5.061342,-0.065949,0.004530,0.035040
8926,-4.527435,4.335899,-5.035006,-0.073810,0.008394,0.042368
8941,-4.477157,4.570531,-4.946421,-0.052760,0.016121,0.025580
8956,-4.434062,4.481946,-4.853047,-0.017453,0.017853,-0.000533
8971,-4.580108,4.340688,-4.924873,0.007461,0.023049,-0.019185
8986,-4.582502,4.256891,-4.934450,0.009459,0.026913,-0.015322
9001,-4.544195,4.288015,-5.018247,-0.001732,0.020118,0.004130
9016,-4.364630,4.288015,-5.073313,-0.025181,0.010792,0.023848
9031,-4.556166,4.323928,-4.967968,-0.039303,0.002265,0.036372
9046,-4.584896,4.352659,-4.955997,-0.042368,0.001599,0.031443
9061,-4.395754,4.474763,-4.975151,-0.032375,0.002931,0.020384
9076,-4.465186,4.486734,-4.960786,-0.025714,0.006395,0.006395
9091,-4.498705,4.410120,-4.958392,-0.015055,0.012124,0.002798
9106,-4.501099,4.350265,-4.996699,-0.022116,0.006129,0.007594
9121,-4.328717,4.434062,-4.891354,-0.031176,0.004263,0.009593
9136,-4.376601,4.422091,-4.912902,-0.033574,0.009326,0.009193
9151,-4.556166,4.352659,-4.874595,-0.042634,0.019185,0.016521
9166,-4.594473,4.453215,-4.924873,-0.028112,0.028245,0.006528
9181,-4.467580,4.405331,-4.853047,-0.024914,0.037038,0.003997
9196,-4.414908,4.489128,-5.001487,-0.018119,0.030110,-0.005995
9211,-4.522647,4.338294,-5.030218,-0.029577,0.019185,-0.008926
9226,-4.546589,4.206612,-5.013458,-0.054358,0.012923,0.006928
9241,-4.532224,4.273650,-5.018247,-0.069946,0.005862,0.025980
9256,-4.484340,4.426879,-4.982334,-0.072211,0.011191,0.037038
9271,-4.551377,4.443638,-4.874595,-0.050228,0.007328,0.035173
9286,-4.616021,4.541800,-4.960786,-0.008394,0.009326,0.010392
9301,-4.469975,4.446033,-5.018247,0.009859,0.019185,-0.003198
9316,-4.350265,4.400543,-5.099649,0.000533,0.012391,-0.005995
9331,-4.544195,4.369418,-5.049371,-0.021983,0.010925,-0.002132
9346,-4.527435,4.328717,-5.099649,-0.055291,0.010259,0.008260
9361,-4.400543,4.419696,-4.946421,-0.070346,0.007061,0.012657
9376,-4.398149,4.491522,-4.908113,-0.056757,0.007594,0.004263
9391,-4.534618,4.376601,-4.795586,-0.031309,0.015055,-0.001865
9406,-4.623203,4.371812,-4.912902,-0.014922,0.019185,-0.003331
9421,-4.568137,4.355053,-4.891354,-0.006262,0.025314,0.000400
9436,-4.434062,4.307169,-4.965574,-0.020384,0.019718,0.011191
9451,-4.402937,4.321534,-4.979939,-0.041568,0.006395,0.021583
9466,-4.532224,4.357447,-4.946421,-0.058355,-0.002132,0.020384
9481,-4.503493,4.438850,-4.874595,-0.054492,-0.001199,0.013057
9496,-4.517859,4.491522,-4.754885,-0.035306,0.019452,0.000000
9511,-4.560954,4.441244,-4.843470,0.001199,0.032375,-0.017187
9526,-4.563348,4.326323,-4.893748,0.006928,0.037305,-0.006395
9541,-4.443638,4.340688,-5.087678,-0.010658,0.020518,0.021184
9556,-4.335899,4.297592,-5.075707,-0.046631,0.002798,0.043567
9571,-4.481946,4.326323,-5.145139,-0.078340,-0.010792,0.057689
9586,-4.517859,4.168305,-4.999093,-0.132032,-0.014522,0.074210
9601,-4.436456,4.551377,-4.711789,-0.152283,-0.023715,0.094861
9616,-4.467580,4.920084,-4.690241,-0.084469,-0.004663,0.050495
9631,-4.508282,4.692635,-4.814740,0.008793,0.012124,-0.011058
9646,-4.460398,4.398149,-4.865018,0.017453,0.031043,-0.037971
9661,-4.386178,4.448427,-5.018247,-0.006795,0.035306,-0.033708
9676,-4.338294,4.417302,-5.011064,-0.024115,0.019052,-0.023182
9691,-4.448427,4.295198,-4.960786,-0.037838,0.011991,-0.010658
9706,-4.541800,4.285621,-5.011064,-0.054358,0.003198,0.013323
9721,-4.546589,4.515464,-4.948815,-0.043966,0.019185,0.008127
9736,-4.450821,4.599261,-4.891354,-0.018386,0.046764,-0.007061
9751,-4.522647,4.477157,-4.867412,-0.006129,0.052626,-0.016920
9766,-4.546589,4.422091,-4.917690,0.001865,0.042900,-0.032775
9781,-4.493917,4.405331,-4.960786,-0.010392,0.023715,-0.029178
9796,-4.517859,4.369418,-5.078102,-0.027046,0.004397,-0.013323
9811,-4.515464,4.295198,-5.001487,-0.034773,-0.001599,0.005995
9826,-4.577713,4.390966,-5.027823,-0.041168,0.001865,0.016654
9841,-4.508282,4.472369,-5.018247,-0.036639,0.010658,0.023449
9856,-4.378995,4.491522,-5.006276,-0.031043,0.025714,0.018652
9871,-4.419696,4.489128,-4.977545,-0.029178,0.031043,0.009859
9886,-4.489128,4.412514,-5.013458,-0.039037,0.004530,0.006129
9901,-4.534618,4.419696,-4.958392,-0.050894,0.002132,-0.003464
9916,-4.398149,4.462792,-4.944026,-0.050228,-0.004930,-0.005063
9931,-4.450821,4.501099,-4.884171,-0.029711,-0.003331,-0.011858
9946,-4.443638,4.419696,-4.972757,-0.010658,0.010392,-0.017453
9961,-4.501099,4.323928,-4.905719,-0.018386,0.013190,-0.004263
9976,-4.443638,4.460398,-4.972757,-0.028112,0.024381,-0.000266
9991,-4.491522,4.345476,-4.955997,-0.035306,0.031975,0.002265
10006,-4.513070,4.340688,-4.888960,-0.053159,0.028778,0.008660
10021,-4.484340,4.450821,-4.922479,-0.061686,0.014389,0.013856
10036,-4.367024,4.599261,-4.891354,-0.035573,0.010658,0.009060
10051,-4.436456,4.510676,-4.807557,-0.017853,0.020651,0.010392
10066,-4.529830,4.376601,-4.853047,-0.005596,0.033574,0.008527
10081,-4.498705,4.326323,-4.929661,-0.016920,0.041302,0.014789
10096,-4.338294,4.359841,-5.023035,-0.046498,0.026247,0.024515
10111,-4.383783,4.319140,-5.003881,-0.073810,0.013057,0.038904
10126,-4.649539,4.419696,-4.841076,-0.079139,0.011591,0.039436
10141,-4.680664,4.484340,-4.920084,-0.070213,0.011991,0.035306
10156,-4.477157,4.601655,-4.908113,-0.040103,0.024781,0.019585
10171,-4.527435,4.570531,-4.982334,-0.011591,0.034107,0.005596
10186,-4.508282,4.436456,-5.037400,-0.008793,0.036505,0.001998
10201,-4.520253,4.453215,-5.049371,-0.023715,0.028511,0.006795
10216,-4.369418,4.455609,-5.068525,-0.036639,0.005329,0.010392
10231,-4.424485,4.446033,-5.001487,-0.054492,-0.002132,0.027046
10246,-4.577713,4.367024,-4.881777,-0.070479,-0.002531,0.037438
10261,-4.556166,4.192247,-5.094861,-0.105253,0.013723,0.059554
10276,-4.367024,4.429273,-4.853047,-0.142957,-0.014123,0.097525
10291,-4.390966,4.723760,-4.747702,-0.118576,-0.025314,0.091397
10306,-4.553771,4.745308,-4.738125,-0.044233,-0.009459,0.044233
10321,-4.496311,4.601655,-4.819528,-0.011191,0.006395,0.013456
10336,-4.472369,4.505888,-4.977545,-0.018919,0.013456,0.004397
10351,-4.352659,4.594473,-4.836287,-0.028378,0.027312,-0.001599
10366,-4.402937,4.527435,-4.999093,-0.029178,0.033974,-0.010259
10381,-4.446033,4.580108,-4.975151,-0.021717,0.023182,-0.021583
10396,-4.390966,4.707000,-5.030218,-0.014655,0.024381,-0.024248
10411,-4.450821,4.663905,-4.965574,-0.008793,0.035839,-0.031709
10426,-4.537012,4.508282,-4.927267,-0.030776,0.022516,-0.031043
10441,-4.539406,4.584896,-4.920084,-0.057423,0.020917,-0.033708
10456,-4.479551,4.642357,-4.896142,-0.071012,0.018386,-0.039570
10471,-4.486734,4.649539,-4.778827,-0.067015,0.024648,-0.049162
10486,-4.537012,4.647145,-4.707000,-0.052893,0.041701,-0.058489
10501,-4.611232,4.577713,-4.771644,-0.020651,0.049162,-0.059155
10516,-4.362236,4.491522,-4.726154,0.003730,0.046498,-0.058222
10531,-4.319140,4.378995,-4.769250,0.002931,0.041035,-0.051161
10546,-4.544195,4.240131,-4.898537,-0.021717,0.027579,-0.024381
10561,-4.637568,4.237737,-4.932055,-0.059954,0.032242,0.004130
10576,-4.448427,4.338294,-4.932055,-0.089265,0.024781,0.024115
10591,-4.489128,4.458004,-5.106832,-0.104187,0.013057,0.024914
10606,-4.474763,4.474763,-4.805163,-0.096859,0.009859,0.017054
10621,-4.534618,4.510676,-4.915296,-0.069413,0.006795,0.008793
10636,-4.381389,4.525041,-4.860229,-0.035573,0.022383,0.000666
10651,-4.446033,4.522647,-4.869806,-0.011191,0.031975,-0.008394
10666,-4.436456,4.479551,-4.948815,-0.009992,0.039570,-0.009459
10681,-4.448427,4.419696,-5.044583,-0.026913,0.033708,-0.000266
10696,-4.326323,4.402937,-5.023035,-0.058755,0.018253,0.008926
10711,-4.314352,4.510676,-4.996699,-0.074609,0.008793,0.006795
10726,-4.503493,4.489128,-4.987122,-0.068481,0.016787,-0.001732
10741,-4.599261,4.601655,-4.927267,-0.031576,0.031443,-0.020651
10756,-4.424485,4.663905,-4.831499,0.009459,0.040769,-0.037438
10771,-4.422091,4.424485,-4.979939,0.027046,0.038504,-0.032508
10786,-4.460398,4.362236,-5.046977,0.001199,0.033308,-0.010259
10801,-4.541800,4.302381,-5.054160,-0.041435,0.017720,0.016920
10816,-4.491522,4.462792,-4.996699,-0.069413,0.008394,0.027712
10831,-4.422091,4.539406,-4.891354,-0.074743,0.003730,0.027179
10846,-4.570531,4.654328,-4.836287,-0.046897,0.010259,0.010392
10861,-4.582502,4.647145,-4.862624,-0.004130,0.030776,-0.013323
10876,-4.532224,4.611232,-4.967968,0.022916,0.033708,-0.029577
10891,-4.388572,4.515464,-4.963180,0.033041,0.018119,-0.026646
10906,-4.405331,4.434062,-5.097255,0.009326,0.014789,-0.008660
10921,-4.513070,4.345476,-4.982334,-0.026513,0.008660,0.003198
10936,-4.446033,4.386178,-5.008670,-0.062752,-0.004263,0.018519
10951,-4.477157,4.560954,-4.917690,-0.081005,-0.004930,0.024248
10966,-4.625597,4.673481,-4.860229,-0.042634,0.008793,-0.001865
10981,-4.627992,4.546589,-4.855441,-0.002531,0.019319,-0.027579
10996,-4.486734,4.467580,-4.888960,0.013989,0.025980,-0.037571
11011,-4.378995,4.395754,-4.946421,0.008660,0.014389,-0.022250
11026,-4.443638,4.390966,-4.984728,-0.013057,0.008660,-0.002398
11041,-4.510676,4.450821,-4.989516,-0.012391,0.009459,0.004530
11056,-4.402937,4.486734,-5.058948,-0.022783,0.005063,0.007328
11071,-4.283227,4.371812,-5.023035,-0.047164,0.004663,0.013323
11086,-4.398149,4.484340,-4.958392,-0.060487,0.001332,0.011325
11101,-4.568137,4.484340,-4.874595,-0.046631,0.001066,0.002931
11116,-4.513070,4.572925,-4.771644,-0.015721,0.014655,-0.022116
11131,-4.355053,4.623203,-4.855441,0.001199,0.019052,-0.036106
11146,-4.438850,4.431667,-5.001487,0.000933,0.022783,-0.041168
11161,-4.455609,4.355053,-5.042189,-0.013856,0.017986,-0.033041
11176,-4.453215,4.340688,-5.063736,-0.033841,0.006262,-0.020384
11191,-4.347870,4.407725,-4.915296,-0.044632,0.001066,-0.004796
11206,-4.443638,4.314352,-4.872200,-0.051161,0.003464,0.015055
11221,-4.592079,4.355053,-4.795586,-0.044899,0.008127,0.026513
11236,-4.525041,4.438850,-4.783615,-0.029711,0.022116,0.020251
11251,-4.321534,4.455609,-4.831499,-0.016387,0.022916,0.012124
11266,-4.374207,4.414908,-4.924873,-0.013856,0.006129,0.012923
11281,-4.412514,4.395754,-4.853047,-0.007994,-0.001732,0.008527
11296,-4.486734,4.498705,-4.860229,0.005196,-0.005995,0.005063
11311,-4.369418,4.446033,-4.896142,-0.010658,0.004796,0.012257
11326,-4.458004,4.405331,-4.910508,-0.034773,0.023315,0.017320
11341,-4.496311,4.592079,-4.946421,-0.036239,0.042634,-0.005196
11356,-4.479551,4.601655,-4.903325,-0.016521,0.021850,-0.024914
11371,-4.376601,4.455609,-4.915296,-0.005862,0.014123,-0.034240
11386,-4.517859,4.472369,-4.881777,-0.001199,0.022250,-0.027979
11401,-4.656722,4.252102,-4.819528,-0.014655,0.021450,-0.003331
11416,-4.580108,4.299986,-4.924873,-0.036639,0.025580,0.021051
11431,-4.479551,4.472369,-4.893748,-0.040902,0.023315,0.035972
11446,-4.462792,4.501099,-5.037400,-0.042634,0.027312,0.026247
11461,-4.525041,4.446033,-4.939238,-0.031709,0.018119,0.010259
11476,-4.424485,4.491522,-4.987122,-0.037571,0.004263,0.009459
11491,-4.343082,4.503493,-4.821922,-0.040769,-0.008127,0.010658
11506,-4.410120,4.563348,-4.855441,-0.033574,-0.013590,-0.002265
11521,-4.661510,4.548983,-4.884171,-0.018386,0.006262,-0.027979
11536,-4.680664,4.527435,-4.932055,-0.003597,0.044233,-0.050228
11551,-4.388572,4.558560,-4.977545,0.000266,0.038770,-0.058622
11566,-4.381389,4.503493,-5.075707,0.010259,0.020251,-0.063685
11581,-4.544195,4.276044,-4.953603,0.014922,0.013456,-0.058222
11596,-4.580108,4.173093,-4.944026,-0.003997,0.002398,-0.025980
11611,-4.414908,4.170699,-4.900931,-0.036239,0.012124,0.005462
11626,-4.395754,4.326323,-4.934450,-0.065017,0.015855,0.033974
11641,-4.537012,4.565742,-4.936844,-0.059688,0.013323,0.030776
11656,-4.546589,4.527435,-4.817134,-0.026646,0.021450,0.002265
11671,-4.443638,4.580108,-4.994305,0.006795,0.027979,-0.028112
11686,-4.443638,4.417302,-5.027823,0.017587,0.021850,-0.035040
11701,-4.484340,4.268862,-5.025429,-0.010126,0.011724,-0.021983
11716,-4.455609,4.338294,-5.003881,-0.038371,0.001998,-0.006528
11731,-4.503493,4.434062,-4.984728,-0.035972,0.001865,-0.009859
11746,-4.520253,4.438850,-4.955997,-0.033574,0.006262,-0.013057
11761,-4.661510,4.438850,-4.967968,-0.009193,0.006928,-0.025181
11776,-4.692635,4.343082,-4.963180,0.005196,0.019319,-0.025714
11791,-4.544195,4.374207,-5.111620,0.010259,0.031309,-0.029977
11806,-4.390966,4.268862,-5.118803,-0.018253,0.027446,-0.023582
11821,-4.491522,4.278439,-5.020641,-0.044766,-0.005729,-0.007194
11836,-4.481946,4.436456,-4.948815,-0.039170,-0.013456,-0.017320
11851,-4.417302,4.386178,-4.841076,-0.025980,-0.014655,-0.025047
11866,-4.556166,4.407725,-4.884171,-0.030110,-0.001865,-0.020118
11881,-4.544195,4.273650,-4.754885,-0.033175,0.017453,-0.014922
11896,-4.563348,4.328717,-4.778827,-0.039037,0.020784,-0.011724
11911,-4.517859,4.410120,-4.910508,-0.029311,0.027312,-0.022116
11926,-4.388572,4.345476,-4.809951,-0.019985,0.031176,-0.023182
11941,-4.455609,4.194641,-4.879383,-0.019851,0.021583,-0.015188
11956,-4.594473,4.357447,-4.891354,-0.012257,0.007328,-0.009726
11971,-4.491522,4.244920,-4.927267,0.004663,0.004930,-0.000666
11986,-4.431667,4.254497,-4.917690,-0.020651,0.008926,0.020384
12001,-4.599261,4.223372,-4.898537,-0.042900,0.019851,0.036239
12016,-4.632780,4.331111,-4.884171,-0.048896,0.031443,0.031176
12031,-4.553771,4.465186,-4.915296,-0.036772,0.033841,0.015188
12046,-4.565742,4.541800,-4.898537,-0.004130,0.026913,-0.005596
12061,-4.596867,4.343082,-5.006276,0.009326,0.025847,-0.004796
12076,-4.589684,4.237737,-4.982334,-0.016121,0.017320,0.020651
12091,-4.467580,4.311957,-4.989516,-0.054625,0.012923,0.049029
12106,-4.455609,4.371812,-4.929661,-0.079006,0.014522,0.058089
12121,-4.501099,4.510676,-4.963180,-0.091796,0.031576,0.040769
12136,-4.596867,4.596867,-4.905719,-0.076208,0.031309,0.013856
12151,-4.556166,4.659116,-4.891354,-0.033041,0.026779,-0.022116
12166,-4.467580,4.484340,-4.896142,0.001998,0.023449,-0.047164
12181,-4.580108,4.213795,-5.044583,0.004263,0.011458,-0.042767
12196,-4.589684,4.017470,-5.099649,-0.034374,0.008394,-0.004130
12211,-4.637568,4.146757,-5.011064,-0.080605,0.020784,0.030776
12226,-4.534618,4.414908,-4.970363,-0.087400,0.039969,0.036772
12241,-4.465186,4.570531,-4.893748,-0.049962,0.036239,0.019052
12256,-4.589684,4.560954,-5.056554,-0.014522,0.026380,-0.001732
12271,-4.493917,4.400543,-5.039794,0.001865,0.012790,-0.009326
12286,-4.465186,4.216189,-5.078102,-0.022250,0.001066,0.005196
12301,-4.517859,4.206612,-5.035006,-0.074609,0.010792,0.035839
12316,-4.635174,4.362236,-4.920084,-0.093795,0.007594,0.049562
12331,-4.580108,4.577713,-4.912902,-0.075942,0.010392,0.026779
12346,-4.388572,4.716577,-4.809951,-0.019851,0.010792,-0.004930
12361,-4.443638,4.541800,-4.979939,0.024115,0.007594,-0.036505
12376,-4.630386,4.225766,-4.898537,0.019052,0.011858,-0.035573
12391,-4.596867,4.216189,-4.965574,-0.021450,0.021717,-0.014655
12406,-4.388572,4.338294,-5.051765,-0.046098,0.027179,-0.000533
12421,-4.441244,4.352659,-4.946421,-0.050095,0.015188,0.002132
12436,-4.651934,4.321534,-4.891354,-0.037571,0.012524,0.004530
12451,-4.639963,4.443638,-4.946421,-0.012657,0.026513,0.000133
12466,-4.594473,4.271256,-4.999093,-0.013456,0.020651,0.006662
12481,-4.625597,4.309563,-4.970363,-0.036772,0.022916,0.018786
12496,-4.386178,4.424485,-5.046977,-0.044233,0.010658,0.020518
12511,-4.295198,4.448427,-4.953603,-0.041035,0.001332,0.010925
12526,-4.532224,4.395754,-4.905719,-0.035972,0.000799,-0.000799
12541,-4.616021,4.374207,-4.893748,-0.039037,0.013057,-0.009859
12556,-4.568137,4.467580,-4.915296,-0.027579,0.021717,-0.013057
12571,-4.465186,4.431667,-5.025429,-0.017986,0.018786,-0.019718
12586,-4.551377,4.266468,-5.102044,-0.009726,0.013190,-0.020384
12601,-4.570531,4.199430,-5.001487,-0.027845,0.005462,-0.004263
12616,-4.546589,4.304775,-4.965574,-0.043966,-0.007727,0.012657
12631,-4.462792,4.299986,-4.829105,-0.051427,0.007328,0.019985
12646,-4.553771,4.316746,-4.999093,-0.045032,0.010525,0.018519
12661,-4.537012,4.472369,-5.006276,-0.031043,0.005063,0.013989
12676,-4.395754,4.441244,-4.910508,-0.014922,-0.005995,-0.000266
12691,-4.481946,4.400543,-4.786009,-0.005462,0.002531,-0.010392
12706,-4.522647,4.249708,-4.874595,-0.016654,0.008127,-0.002931
12721,-4.625597,4.311957,-4.946421,-0.028778,0.016920,0.009859
12736,-4.510676,4.376601,-4.934450,-0.044899,0.013590,0.016787
12751,-4.402937,4.407725,-4.979939,-0.055158,0.015588,0.011591
12766,-4.501099,4.417302,-5.082890,-0.042368,0.011458,-0.003331
12781,-4.520253,4.419696,-4.953603,-0.028511,0.000400,-0.007727
12796,-4.556166,4.450821,-4.860229,-0.008793,-0.008926,-0.006795
12811,-4.522647,4.400543,-4.867412,-0.002798,-0.002665,-0.000266
12826,-4.558560,4.276044,-4.855441,-0.014123,0.002798,0.011325
12841,-4.575319,4.331111,-4.960786,-0.041835,0.002265,0.026913
12856,-4.520253,4.338294,-4.960786,-0.051694,0.002132,0.022783
12871,-4.458004,4.467580,-4.857835,-0.053026,0.010925,0.005462
12886,-4.627992,4.498705,-4.836287,-0.028645,0.014922,-0.017320
12901,-4.582502,4.369418,-4.874595,-0.010392,0.016787,-0.034107
12916,-4.572925,4.240131,-4.898537,-0.016521,0.017054,-0.015721
12931,-4.462792,4.247314,-4.951209,-0.042234,0.000666,0.012257
12946,-4.525041,4.335899,-4.999093,-0.063818,0.007328,0.022516
12961,-4.659116,4.340688,-4.891354,-0.054758,0.018652,0.013989
12976,-4.560954,4.383783,-4.876989,-0.046631,0.017453,0.002931
12991,-4.515464,4.419696,-4.874595,-0.034507,0.024781,-0.007194
13006,-4.486734,4.321534,-4.922479,-0.025047,0.018919,-0.004930
13021,-4.606444,4.173093,-4.860229,-0.038104,0.011191,0.005329
13036,-4.570531,4.256891,-4.824317,-0.052893,0.008926,0.021184
13051,-4.472369,4.345476,-4.838682,-0.050228,0.012391,0.020784
13066,-4.489128,4.414908,-4.805163,-0.037704,0.011724,0.020784
13081,-4.493917,4.369418,-5.032612,-0.035173,0.013323,0.014256
13096,-4.455609,4.479551,-4.946421,-0.019585,0.013856,0.003064
13111,-4.508282,4.367024,-4.886566,-0.011858,0.013323,-0.000666
13126,-4.505888,4.283227,-4.865018,-0.027312,0.013590,0.013456
13141,-4.587290,4.292804,-4.967968,-0.050095,0.017986,0.021184
13156,-4.575319,4.347870,-4.915296,-0.071012,0.006395,0.037971
13171,-4.489128,4.484340,-5.008670,-0.062485,0.012524,0.033441
13186,-4.467580,4.489128,-4.920084,-0.037838,0.013323,0.022649
13201,-4.436456,4.453215,-4.946421,-0.025847,0.011191,0.007328
13216,-4.469975,4.331111,-4.939238,-0.034640,0.006129,0.017054
13231,-4.434062,4.393360,-4.831499,-0.045832,0.005596,0.024381
13246,-4.491522,4.493917,-4.783615,-0.048363,0.018652,0.020651
13261,-4.738125,4.508282,-4.879383,-0.040236,0.032908,0.006395
13276,-4.649539,4.517859,-4.896142,-0.028911,0.039436,-0.015188
13291,-4.558560,4.462792,-4.965574,-0.029844,0.028245,-0.020251
13306,-4.570531,4.493917,-4.936844,-0.025714,0.025314,-0.024781
13321,-4.630386,4.388572,-4.936844,-0.014655,0.017853,-0.026646
13336,-4.548983,4.276044,-4.898537,-0.029311,0.011458,-0.005729
13351,-4.486734,4.268862,-4.872200,-0.070213,-0.005596,0.040103
13366,-4.510676,4.410120,-4.884171,-0.091397,0.010792,0.054358
13381,-4.647145,4.539406,-4.860229,-0.082070,0.023449,0.038371
13396,-4.623203,4.697423,-4.963180,-0.048096,0.026513,0.001199
13411,-4.553771,4.539406,-4.910508,-0.016920,0.020917,-0.027179
13426,-4.563348,4.381389,-4.934450,-0.007461,0.012790,-0.031176
13441,-4.596867,4.441244,-4.984728,-0.007328,0.009726,-0.019319
13456,-4.606444,4.314352,-5.023035,-0.017587,0.015988,-0.002665
13471,-4.513070,4.331111,-4.987122,-0.047031,0.018652,0.018253
13486,-4.448427,4.410120,-5.049371,-0.073011,0.013723,0.025580
13501,-4.493917,4.508282,-4.917690,-0.079672,-0.000400,0.023715
13516,-4.620809,4.446033,-4.879383,-0.061819,-0.009726,0.007727
13531,-4.644751,4.508282,-5.023035,-0.023982,0.003198,-0.008660
13546,-4.544195,4.376601,-4.874595,-0.005729,0.017320,-0.015988
13561,-4.544195,4.400543,-4.910508,0.004130,0.035173,-0.018386
13576,-4.618415,4.321534,-5.044583,-0.007861,0.032109,-0.015188
13591,-4.510676,4.302381,-5.030218,-0.035173,0.023182,-0.002665
13606,-4.376601,4.347870,-5.087678,-0.057956,0.008926,0.005729
13621,-4.522647,4.347870,-4.932055,-0.061819,-0.010525,0.012790
13636,-4.659116,4.347870,-4.764462,-0.055158,-0.006528,0.018919
13651,-4.582502,4.474763,-4.728548,-0.021983,0.016920,0.006928
13666,-4.537012,4.441244,-4.805163,0.005862,0.032242,-0.000666
13681,-4.572925,4.407725,-4.831499,0.008260,0.038770,-0.006395
13696,-4.503493,4.436456,-4.960786,0.010126,0.033841,-0.009593
13711,-4.505888,4.398149,-5.070919,0.002665,0.022916,-0.012257
13726,-4.448427,4.323928,-5.003881,-0.026113,0.003464,-0.002132
13741,-4.558560,4.249708,-4.845864,-0.049029,-0.004530,0.019185
13756,-4.623203,4.331111,-4.917690,-0.060354,0.006262,0.031176
13771,-4.534618,4.527435,-4.855441,-0.047430,0.018119,0.028511
13786,-4.402937,4.537012,-4.862624,-0.018919,0.022516,0.012657
13801,-4.520253,4.596867,-4.817134,0.005196,0.024781,-0.006528
13816,-4.637568,4.467580,-4.994305,0.006662,0.020518,-0.015055
13831,-4.503493,4.398149,-4.936844,-0.020651,0.017187,-0.008127
13846,-4.419696,4.448427,-4.951209,-0.047564,0.010792,0.004930
13861,-4.575319,4.410120,-5.018247,-0.062885,0.005063,0.014922
13876,-4.563348,4.410120,-5.003881,-0.068481,-0.003331,0.013057
13891,-4.537012,4.517859,-4.778827,-0.050228,0.004130,0.004397
13906,-4.539406,4.529830,-4.862624,-0.022383,0.026513,-0.011458
13921,-4.594473,4.419696,-4.814740,-0.016654,0.041168,-0.021717
13936,-4.630386,4.436456,-4.905719,-0.013057,0.036772,-0.030243
13951,-4.532224,4.309563,-5.078102,-0.025314,0.012790,-0.024381
13966,-4.539406,4.273650,-5.018247,-0.042368,0.004263,-0.010658
13981,-4.529830,4.256891,-4.975151,-0.064217,-0.009992,0.010259
13996,-4.671087,4.276044,-4.824317,-0.067282,-0.005596,0.033574
14011,-4.582502,4.443638,-4.819528,-0.063951,-0.000933,0.035972
14026,-4.343082,4.525041,-4.805163,-0.041302,-0.001998,0.029444
14041,-4.386178,4.489128,-4.881777,-0.021051,0.009459,0.012524
14056,-4.467580,4.383783,-4.929661,-0.024781,0.012391,0.007061
14071,-4.378995,4.345476,-4.754885,-0.038104,0.014655,0.006795
14086,-4.319140,4.359841,-4.781221,-0.046897,0.021850,0.008127
14101,-4.544195,4.359841,-4.812346,-0.047164,0.026646,0.004530
14116,-4.572925,4.326323,-4.795586,-0.037971,0.036772,0.003864
14131,-4.541800,4.465186,-4.721365,-0.021450,0.037838,0.005196
14146,-4.469975,4.450821,-4.814740,-0.008127,0.044632,-0.001466
14161,-4.498705,4.367024,-4.982334,-0.010392,0.048896,0.001732
14176,-4.565742,4.311957,-4.924873,-0.029844,0.033308,0.012524
14191,-4.510676,4.314352,-4.982334,-0.045165,0.027712,0.023848
14206,-4.419696,4.414908,-4.972757,-0.057423,0.015721,0.030510
14221,-4.548983,4.357447,-4.936844,-0.064750,0.010658,0.039436
14236,-4.594473,4.443638,-5.030218,-0.059954,0.017853,0.039170
14251,-4.560954,4.625597,-5.006276,-0.032642,0.026113,0.019585
14266,-4.678270,4.254497,-4.941632,-0.055557,0.009593,0.028778
14281,-4.453215,4.733336,-4.941632,-0.040236,0.026779,0.010259
14296,-4.625597,4.575319,-4.879383,-0.008926,0.040103,-0.013456
14311,-4.479551,4.450821,-4.965574,-0.013456,0.014389,-0.008926
14326,-4.422091,4.436456,-4.932055,-0.048230,0.013723,0.009859
14341,-4.589684,4.376601,-4.953603,-0.073810,0.022250,0.024115
14356,-4.570531,4.546589,-4.955997,-0.086867,0.010392,0.025447
14371,-4.651934,4.675876,-4.917690,-0.053026,0.026247,0.006528
14386,-4.462792,4.666299,-4.915296,-0.021983,0.029977,-0.015588
14401,-4.436456,4.501099,-5.008670,-0.002398,0.025181,-0.025980
14416,-4.548983,4.213795,-4.903325,-0.024381,0.019452,-0.006662
14431,-4.527435,4.333505,-4.948815,-0.059554,0.009193,0.017453
14446,-4.508282,4.493917,-4.848258,-0.076208,0.012257,0.028245
14461,-4.520253,4.508282,-4.891354,-0.089665,0.012124,0.037305
14476,-4.659116,4.568137,-4.910508,-0.090464,0.012391,0.034107
14491,-4.582502,4.790798,-4.876989,-0.046764,0.013456,-0.001332
14506,-4.493917,4.675876,-4.881777,0.003864,0.018253,-0.037571
14521,-4.510676,4.388572,-4.862624,0.008660,0.014123,-0.040636
14536,-4.534618,4.304775,-4.865018,-0.027046,0.013856,-0.011991
14551,-4.580108,4.390966,-4.853047,-0.054092,0.019851,0.006928
14566,-4.388572,4.458004,-4.841076,-0.071678,0.017587,0.012923
14581,-4.335899,4.529830,-4.922479,-0.069680,0.005063,0.007994
14596,-4.565742,4.496311,-4.800375,-0.049828,0.011858,-0.009060
14611,-4.618415,4.438850,-4.814740,-0.046631,0.010392,-0.005329
14626,-4.422091,4.522647,-4.809951,-0.033708,0.011191,-0.010792
14641,-4.477157,4.417302,-4.848258,-0.024781,0.011325,-0.008260
14656,-4.551377,4.335899,-4.872200,-0.032908,0.008394,0.000933
14671,-4.608838,4.400543,-4.797980,-0.044499,0.005462,0.010259
14686,-4.465186,4.422091,-4.934450,-0.042900,0.015055,0.010925
14701,-4.508282,4.577713,-4.876989,-0.027845,0.012790,0.009326
14716,-4.580108,4.498705,-4.912902,-0.008926,0.006928,0.002265
14731,-4.604050,4.422091,-5.011064,-0.006395,0.004796,0.006528
14746,-4.498705,4.501099,-4.987122,-0.018652,0.002265,0.013057
14761,-4.477157,4.486734,-5.015852,-0.034507,0.004530,0.018119
14776,-4.498705,4.431667,-4.922479,-0.046364,0.007461,0.020784
14791,-4.527435,4.546589,-4.853047,-0.053159,0.007328,0.014655
14806,-4.431667,4.582502,-4.788404,-0.048763,0.019718,0.002665
14821,-4.450821,4.544195,-4.848258,-0.040502,0.026380,-0.010126
14836,-4.532224,4.496311,-4.841076,-0.034507,0.020784,-0.012124
14851,-4.572925,4.417302,-4.881777,-0.033308,0.022250,-0.013856
14866,-4.489128,4.448427,-4.867412,-0.022383,0.016121,-0.005196
14881,-4.558560,4.395754,-4.819528,-0.015455,0.026113,0.000799
14896,-4.577713,4.390966,-4.865018,-0.014256,0.026779,0.007061
14911,-4.594473,4.414908,-4.936844,-0.015455,0.025181,0.016787
14926,-4.477157,4.465186,-5.013458,-0.035306,0.021184,0.020518
14941,-4.410120,4.460398,-4.800375,-0.055957,0.008127,0.028112
14956,-4.462792,4.513070,-4.819528,-0.058755,0.014789,0.021850
14971,-4.596867,4.503493,-4.733336,-0.039303,0.006928,0.007061
14986,-4.522647,4.580108,-4.714183,-0.016654,0.021583,-0.005729
15001,-4.422091,4.534618,-4.869806,0.000266,0.038237,-0.011858
15016,-4.522647,4.438850,-4.908113,0.000400,0.038371,-0.009726
15031,-4.541800,4.412514,-4.967968,-0.007994,0.027179,0.008127
15046,-4.481946,4.367024,-4.836287,-0.035306,0.013590,0.021317
15061,-4.422091,4.359841,-4.881777,-0.061953,0.018519,0.036772
15076,-4.532224,4.498705,-4.778827,-0.071545,0.022783,0.041701
15091,-4.608838,4.656722,-4.695029,-0.045698,0.038237,0.014389
15106,-4.469975,4.678270,-4.848258,-0.007994,0.041701,-0.015588
15121,-4.419696,4.553771,-5.025429,0.007194,0.032508,-0.029711
15136,-4.529830,4.376601,-5.015852,-0.014922,0.015188,-0.005995
15151,-4.558560,4.290410,-4.896142,-0.059554,-0.000400,0.021450
15166,-4.422091,4.429273,-4.826711,-0.084735,-0.004397,0.047830
15181,-4.419696,4.625597,-4.762067,-0.074743,0.007461,0.038237
15196,-4.556166,4.649539,-4.685452,-0.051960,0.027312,0.015588
15211,-4.618415,4.625597,-4.824317,-0.019718,0.036106,-0.011458
15226,-4.448427,4.654328,-4.814740,0.004930,0.040502,-0.028245
15241,-4.460398,4.493917,-4.946421,0.011325,0.035040,-0.035972
15256,-4.532224,4.295198,-4.917690,-0.003997,0.027845,-0.021051
15271,-4.584896,4.278439,-4.994305,-0.036905,0.019585,0.014789
15286,-4.537012,4.479551,-4.936844,-0.060487,0.022516,0.040636
15301,-4.417302,4.685452,-4.841076,-0.057156,0.031842,0.035306
15316,-4.477157,4.702212,-4.884171,-0.029577,0.041835,-0.007061
15331,-4.570531,4.623203,-5.039794,-0.010792,0.031709,-0.034907
15346,-4.472369,4.467580,-5.049371,-0.012524,0.022783,-0.038504
15361,-4.496311,4.371812,-4.927267,-0.035706,0.010392,-0.017320
15376,-4.673481,4.376601,-4.955997,-0.052227,0.005329,0.001066
15391,-4.635174,4.472369,-4.934450,-0.043567,0.010392,0.006129
15406,-4.508282,4.546589,-4.972757,-0.018652,0.018519,0.000266
15421,-4.472369,4.539406,-4.941632,-0.007994,0.013856,0.000000
15436,-4.450821,4.510676,-4.891354,-0.007861,0.006129,0.000799
15451,-4.647145,4.431667,-4.936844,-0.004530,0.006528,-0.000533
15466,-4.455609,4.388572,-5.075707,-0.019851,0.002265,0.005196
15481,-4.446033,4.405331,-4.960786,-0.042368,0.003331,0.013856
15496,-4.462792,4.441244,-4.948815,-0.056357,0.011724,0.011724
15511,-4.513070,4.580108,-4.819528,-0.034773,0.012257,0.001599
15526,-4.525041,4.654328,-4.891354,-0.001332,0.013856,-0.022250
15541,-4.417302,4.551377,-4.912902,0.027312,0.012257,-0.034907
15556,-4.496311,4.357447,-4.934450,0.013989,0.010392,-0.023315
15571,-4.546589,4.290410,-4.920084,-0.040769,0.002531,0.011991
15586,-4.513070,4.362236,-4.951209,-0.079406,-0.009326,0.043167
15601,-4.369418,4.517859,-4.886566,-0.090730,-0.012391,0.044366
15616,-4.438850,4.589684,-4.702212,-0.065683,0.001332,0.026113
15631,-4.587290,4.673481,-4.697423,-0.020784,0.021717,-0.007194
15646,-4.575319,4.558560,-4.740520,0.016387,0.037838,-0.037172
15661,-4.395754,4.503493,-4.829105,0.019985,0.035573,-0.040636
15676,-4.410120,4.316746,-4.944026,-0.011058,0.020651,-0.017853
15691,-4.479551,4.264073,-4.874595,-0.047697,0.016654,0.013323
15706,-4.601655,4.472369,-4.939238,-0.072877,0.009726,0.031176
15721,-4.539406,4.546589,-4.944026,-0.065417,0.013856,0.028378
15736,-4.469975,4.604050,-4.795586,-0.036106,0.020384,0.012124
15751,-4.577713,4.529830,-4.872200,-0.014789,0.023049,-0.004663
15766,-4.560954,4.448427,-4.905719,-0.012657,0.018386,-0.010259
15781,-4.426879,4.417302,-4.848258,-0.027446,0.008527,0.001732
15796,-4.479551,4.422091,-4.951209,-0.036772,0.010126,0.004397
15811,-4.558560,4.352659,-4.920084,-0.042101,0.008394,0.014655
15826,-4.541800,4.395754,-4.853047,-0.044632,0.009859,0.026113
15841,-4.472369,4.527435,-4.824317,-0.040369,0.020651,0.025847
15856,-4.467580,4.477157,-4.946421,-0.032375,0.024248,0.019851
15871,-4.637568,4.527435,-4.915296,-0.038770,0.016521,0.009060
15886,-4.539406,4.453215,-4.920084,-0.043300,0.017453,0.008260
15901,-4.412514,4.458004,-4.915296,-0.050495,0.007061,0.009859
15916,-4.477157,4.489128,-4.912902,-0.041835,-0.008660,0.015455
15931,-4.513070,4.426879,-4.881777,-0.024914,0.001599,0.018119
15946,-4.493917,4.417302,-4.891354,-0.013190,0.012923,0.017986
15961,-4.431667,4.522647,-4.874595,-0.010792,0.030110,0.018519
15976,-4.443638,4.580108,-4.860229,-0.012657,0.036239,0.007594
15991,-4.505888,4.515464,-4.977545,-0.019319,0.044899,-0.007328
16006,-4.486734,4.611232,-5.049371,-0.022916,0.027312,-0.020784
16021,-4.402937,4.510676,-4.927267,-0.032242,0.002531,-0.019185
16036,-4.407725,4.347870,-4.862624,-0.048230,-0.006928,-0.000933
16051,-4.608838,4.369418,-4.747702,-0.059554,-0.013989,0.025047
16066,-4.508282,4.469975,-4.869806,-0.047963,0.010525,0.028378
16081,-4.412514,4.537012,-4.707000,-0.036372,0.015055,0.014655
16096,-4.630386,4.517859,-4.778827,-0.030776,0.040902,0.008926
16111,-4.522647,4.654328,-4.886566,-0.009726,0.031975,-0.005462
16126,-4.340688,4.515464,-4.929661,-0.005995,0.017720,-0.010792
16141,-4.477157,4.390966,-5.046977,-0.027579,0.005196,-0.001466
16156,-4.604050,4.386178,-4.972757,-0.059554,0.001332,0.011991
16171,-4.553771,4.496311,-4.817134,-0.067415,0.012524,0.015721
16186,-4.467580,4.604050,-4.774038,-0.055291,0.027446,0.012923
16201,-4.558560,4.594473,-4.752491,-0.017986,0.038504,-0.011991
16216,-4.558560,4.568137,-4.821922,0.016920,0.042101,-0.028911
16231,-4.565742,4.371812,-4.979939,0.010126,0.032375,-0.025714
16246,-4.381389,4.321534,-4.975151,-0.022250,0.024115,-0.004930
16261,-4.486734,4.319140,-5.023035,-0.056224,0.012923,0.020118
16276,-4.596867,4.431667,-4.984728,-0.066482,0.006795,0.030510
16291,-4.544195,4.616021,-4.912902,-0.059688,0.012391,0.023315
16306,-4.441244,4.661510,-4.836287,-0.037305,0.011858,0.007861
16321,-4.460398,4.575319,-4.862624,-0.015721,0.018919,-0.005862
16336,-4.630386,4.402937,-4.841076,0.000266,0.033041,-0.024248
16351,-4.539406,4.479551,-4.891354,0.000933,0.038770,-0.024781
16366,-4.299986,4.417302,-5.049371,-0.022916,0.020251,-0.007194
16381,-4.436456,4.355053,-4.893748,-0.047697,0.011191,0.011058
16396,-4.517859,4.462792,-4.955997,-0.047164,0.007727,0.020384
16411,-4.553771,4.659116,-4.917690,-0.027312,0.023182,0.004930
16426,-4.441244,4.474763,-4.841076,-0.042634,0.011458,0.005729
16441,-4.539406,4.539406,-4.774038,-0.035706,0.025980,0.007461
16456,-4.632780,4.582502,-4.922479,-0.019851,0.045832,-0.001466
16471,-4.469975,4.584896,-4.951209,-0.017986,0.036905,-0.004663
16486,-4.374207,4.484340,-4.967968,-0.030243,0.017853,0.002531
16501,-4.369418,4.369418,-4.948815,-0.046098,-0.001066,0.005729
16516,-4.534618,4.412514,-4.872200,-0.070479,-0.005729,0.028245
16531,-4.587290,4.513070,-4.814740,-0.073410,-0.001066,0.026779
16546,-4.489128,4.659116,-4.783615,-0.057023,0.012257,0.021717
16561,-4.446033,4.630386,-4.800375,-0.034107,0.027979,0.003997
16576,-4.558560,4.544195,-4.936844,-0.024781,0.021850,-0.013590
16591,-4.477157,4.450821,-4.951209,-0.029044,0.019185,-0.018253
16606,-4.388572,4.469975,-4.862624,-0.034507,0.016920,-0.015721
16621,-4.412514,4.402937,-4.831499,-0.020118,0.007328,-0.010392
16636,-4.537012,4.345476,-4.891354,-0.017054,0.014522,-0.000933
16651,-4.548983,4.345476,-4.819528,-0.031709,0.013989,0.019185
16666,-4.434062,4.364630,-4.764462,-0.039570,0.029844,0.032109
16681,-4.359841,4.539406,-4.941632,-0.024515,0.043433,0.015455
16696,-4.438850,4.453215,-4.939238,-0.013190,0.035306,-0.000266
16711,-4.510676,4.477157,-4.881777,-0.009060,0.017986,-0.003597
16726,-4.424485,4.462792,-4.987122,-0.019052,0.006395,0.004130
16741,-4.525041,4.517859,-4.841076,-0.036239,0.001466,0.014655
16756,-4.680664,4.548983,-4.941632,-0.039836,0.021317,0.018119
16771,-4.668693,4.489128,-4.908113,-0.033175,0.023848,0.010525
16786,-4.522647,4.587290,-4.917690,-0.020651,0.022649,0.000799
16801,-4.434062,4.608838,-4.876989,-0.002398,0.015188,-0.005196
16816,-4.556166,4.525041,-4.932055,0.015055,-0.000933,0.001998
16831,-4.611232,4.400543,-4.932055,0.000533,0.010392,0.010925
16846,-4.462792,4.460398,-4.917690,-0.034773,0.015188,0.030643
16861,-4.431667,4.620809,-4.865018,-0.061819,0.011591,0.035040
16876,-4.508282,4.716577,-5.075707,-0.056090,0.014789,0.018786
16891,-4.515464,4.627992,-4.908113,-0.047164,0.006262,0.002132
16906,-4.398149,4.613626,-4.881777,-0.033041,0.000666,-0.014389
16921,-4.350265,4.513070,-4.795586,-0.024781,-0.003597,-0.015455
16936,-4.469975,4.400543,-4.977545,-0.030510,-0.002132,-0.010658
16951,-4.520253,4.345476,-4.788404,-0.056090,0.003464,0.006662
16966,-4.441244,4.484340,-4.817134,-0.068614,0.012657,0.011858
16981,-4.333505,4.594473,-4.805163,-0.062219,0.016787,0.005063
16996,-4.575319,4.556166,-4.769250,-0.030110,0.026646,-0.009459
17011,-4.527435,4.469975,-4.860229,-0.009193,0.029711,-0.020651
17026,-4.407725,4.517859,-4.766856,0.008127,0.036239,-0.023449
17041,-4.378995,4.376601,-4.936844,-0.010525,0.033175,-0.009060
17056,-4.381389,4.331111,-4.888960,-0.038371,0.020784,0.008394
17071,-4.453215,4.417302,-4.850653,-0.064084,0.010525,0.027579
17086,-4.472369,4.493917,-4.776433,-0.071812,0.011591,0.031709
17101,-4.491522,4.565742,-4.781221,-0.052493,0.029711,0.022250
17116,-4.592079,4.587290,-4.857835,-0.013190,0.050228,-0.004130
17131,-4.515464,4.525041,-4.817134,-0.008527,0.036372,-0.016254
17146,-4.491522,4.601655,-4.955997,0.006129,0.039969,-0.026513
17161,-4.453215,4.429273,-5.015852,-0.006662,0.030776,-0.017054
17176,-4.400543,4.285621,-4.991910,-0.044366,0.018919,0.010259
17191,-4.570531,4.319140,-4.960786,-0.070879,0.020118,0.031176
17206,-4.508282,4.513070,-4.941632,-0.071279,0.022783,0.034240
17221,-4.405331,4.671087,-4.845864,-0.049562,0.033308,0.017587
17236,-4.469975,4.687847,-4.831499,-0.009593,0.038770,-0.014256
17251,-4.556166,4.678270,-4.994305,0.029444,0.033841,-0.043567
17266,-4.560954,4.367024,-5.020641,0.033175,0.013856,-0.038237
17281,-4.458004,4.259285,-4.967968,-0.004397,0.010658,-0.007594
17296,-4.527435,4.343082,-5.087678,-0.047297,0.004663,0.030243
17311,-4.443638,4.362236,-5.137957,-0.079939,-0.003997,0.047963
17326,-4.462792,4.592079,-5.075707,-0.087933,-0.016654,0.048096
17341,-4.458004,4.781221,-4.886566,-0.057023,-0.002132,0.019718
17356,-4.568137,4.850653,-4.848258,0.004930,0.003864,-0.028245
17371,-4.678270,4.503493,-4.905719,0.047697,0.003864,-0.056490
17386,-4.580108,4.364630,-5.003881,0.028378,0.009459,-0.044899
17401,-4.417302,4.352659,-5.046977,-0.008926,0.003331,-0.019319
17416,-4.467580,4.355053,-4.838682,-0.033041,-0.001066,-0.001599
17431,-4.668693,4.383783,-4.936844,-0.043433,0.004663,0.002931
17446,-4.496311,4.477157,-4.800375,-0.026380,0.010392,0.001332
17461,-4.371812,4.558560,-4.853047,0.003064,0.010925,-0.017187
17476,-4.414908,4.453215,-4.903325,0.017054,0.005462,-0.024914
17491,-4.513070,4.395754,-4.888960,-0.002665,-0.005329,-0.005329
17506,-4.438850,4.352659,-4.922479,-0.030377,-0.014655,0.014789
17521,-4.333505,4.352659,-4.769250,-0.048896,-0.006528,0.028511
17536,-4.364630,4.438850,-4.718971,-0.059821,0.012257,0.032642
17551,-4.422091,4.551377,-4.661510,-0.052760,0.024515,0.020651
17566,-4.347870,4.637568,-4.690241,-0.035173,0.032375,-0.000533
17581,-4.280833,4.714183,-4.766856,-0.006262,0.029577,-0.029311
17596,-4.443638,4.508282,-4.754885,0.001599,0.036772,-0.039969
17611,-4.498705,4.304775,-4.793192,-0.006795,0.040636,-0.032109
17626,-4.548983,4.266468,-4.797980,-0.026380,0.046364,-0.005329
17641,-4.489128,4.443638,-4.786009,-0.035839,0.057023,0.016787
17656,-4.529830,4.450821,-4.932055,-0.042101,0.049429,0.029844
17671,-4.493917,4.510676,-5.013458,-0.049962,0.051028,0.020518
17686,-4.517859,4.649539,-5.027823,-0.045299,0.029977,0.003331
17701,-4.453215,4.577713,-5.046977,-0.037571,0.008793,-0.019319
17716,-4.458004,4.474763,-4.967968,-0.041035,0.014655,-0.021983
17731,-4.671087,4.455609,-4.896142,-0.025714,0.022250,-0.025847
17746,-4.685452,4.364630,-4.924873,-0.017587,0.039836,-0.029444
17761,-4.515464,4.417302,-4.841076,-0.025980,0.051694,-0.017453
17776,-4.522647,4.395754,-5.104438,-0.037971,0.046631,-0.008926
17791,-4.496311,4.395754,-5.061342,-0.050495,0.019185,-0.000933
17806,-4.467580,4.378995,-5.097255,-0.065949,-0.011191,0.009726
17821,-4.539406,4.582502,-4.979939,-0.052493,-0.017986,0.006795
17836,-4.493917,4.503493,-4.936844,-0.035972,0.005196,0.005862
17851,-4.467580,4.316746,-4.912902,-0.048896,0.013057,0.022116
17866,-4.472369,4.484340,-4.876989,-0.055957,0.020917,0.021850
17881,-4.299986,4.544195,-4.876989,-0.046631,0.020784,0.011058
17896,-4.319140,4.520253,-4.910508,-0.036905,0.015855,-0.010392
17911,-4.513070,4.359841,-4.967968,-0.047297,0.009593,-0.014789
17926,-4.458004,4.333505,-4.972757,-0.052493,0.007328,-0.013456
17941,-4.412514,4.371812,-4.936844,-0.047830,0.011325,-0.008660
17956,-4.378995,4.367024,-4.805163,-0.039570,0.014389,0.004663
17971,-4.525041,4.314352,-4.730942,-0.030243,0.026646,0.011858
17986,-4.671087,4.328717,-4.941632,-0.030643,0.036639,0.018652
18001,-4.460398,4.460398,-4.865018,-0.030110,0.043700,0.020118
18016,-4.355053,4.534618,-4.944026,-0.027845,0.035573,0.011991
18031,-4.422091,4.541800,-4.898537,-0.018786,0.021850,-0.001466
18046,-4.558560,4.577713,-4.951209,0.007727,0.016387,-0.018919
18061,-4.611232,4.434062,-5.056554,0.002398,0.015721,-0.009726
18076,-4.465186,4.328717,-4.999093,-0.033841,0.006395,0.026646
18091,-4.558560,4.405331,-4.987122,-0.067415,0.005729,0.053959
18106,-4.493917,4.608838,-4.881777,-0.071945,0.007328,0.052227
18121,-4.355053,4.635174,-4.879383,-0.060620,0.010925,0.033175
18136,-4.304775,4.690241,-4.764462,-0.040902,0.003864,0.007861
18151,-4.498705,4.584896,-4.809951,-0.017187,0.017320,-0.025847
18166,-4.508282,4.376601,-4.776433,-0.014655,0.019319,-0.031443
18181,-4.453215,4.326323,-4.723760,-0.028645,0.025447,-0.015455
18196,-4.414908,4.367024,-4.841076,-0.030377,0.035839,-0.003997
18211,-4.477157,4.453215,-4.929661,-0.022116,0.056357,-0.003064
18226,-4.436456,4.422091,-4.896142,-0.043966,0.036639,0.005729
18241,-4.350265,4.606444,-5.003881,-0.051560,0.022383,0.005462
18256,-4.311957,4.548983,-4.960786,-0.034640,0.023715,-0.011191
18271,-4.486734,4.534618,-4.991910,-0.024381,0.023449,-0.022916
18286,-4.697423,4.424485,-5.082890,-0.035573,0.025047,-0.019718
18301,-4.601655,4.489128,-5.032612,-0.041168,0.025847,-0.015588
18316,-4.510676,4.467580,-5.106832,-0.038371,0.030776,-0.007727
18331,-4.503493,4.448427,-5.049371,-0.036639,0.010259,-0.003864
18346,-4.584896,4.455609,-4.977545,-0.029844,-0.003331,-0.002665
18361,-4.589684,4.486734,-4.982334,-0.027845,-0.009060,0.000266
18376,-4.575319,4.446033,-5.044583,-0.036772,-0.001865,0.004397
18391,-4.589684,4.455609,-4.908113,-0.042368,-0.003730,0.010126
18406,-4.604050,4.438850,-4.836287,-0.037838,-0.000133,0.014256
18421,-4.582502,4.491522,-4.850653,-0.036239,-0.000533,0.013856
18436,-4.467580,4.489128,-4.898537,-0.028245,0.006795,0.013590
18451,-4.467580,4.551377,-4.809951,-0.020384,0.001466,0.007328
18466,-4.544195,4.522647,-4.927267,-0.015721,0.001199,-0.001466
18481,-4.458004,4.460398,-4.893748,-0.019851,0.000533,-0.004397
18496,-4.345476,4.496311,-4.939238,-0.044499,-0.008660,0.005729
18511,-4.498705,4.496311,-4.924873,-0.059688,-0.015588,0.012257
18526,-4.481946,4.584896,-4.867412,-0.049296,-0.004263,0.005462
18541,-4.462792,4.546589,-4.872200,-0.027179,0.004796,-0.008260
18556,-4.376601,4.534618,-4.821922,-0.020251,0.011991,-0.012790
18571,-4.441244,4.422091,-4.774038,-0.021717,0.015455,-0.011591
18586,-4.534618,4.407725,-4.860229,-0.027312,0.017054,-0.000266
18601,-4.498705,4.429273,-4.821922,-0.040769,0.018253,0.002398
18616,-4.376601,4.448427,-4.781221,-0.039703,0.018519,0.006262
18631,-4.371812,4.448427,-4.781221,-0.035972,0.017986,0.002265
18646,-4.448427,4.417302,-4.774038,-0.030776,0.016787,0.005862
18661,-4.577713,4.431667,-4.702212,-0.017720,0.030110,-0.002665
18676,-4.388572,4.436456,-4.812346,-0.005329,0.044100,-0.006262
18691,-4.407725,4.422091,-4.845864,-0.011458,0.037038,-0.006795
18706,-4.498705,4.402937,-4.898537,-0.016787,0.029844,-0.002798
18721,-4.527435,4.410120,-4.927267,-0.023049,0.022649,0.016121
18736,-4.486734,4.407725,-4.915296,-0.030243,0.021450,0.029844
18751,-4.498705,4.575319,-4.951209,-0.026513,0.028378,0.026113
18766,-4.534618,4.572925,-4.922479,-0.011991,0.037704,0.009593
18781,-4.565742,4.589684,-5.087678,-0.009060,0.036639,-0.005995
18796,-4.395754,4.539406,-5.061342,-0.022250,0.028112,-0.007061
18811,-4.386178,4.513070,-5.061342,-0.041701,0.013190,-0.001066
18826,-4.558560,4.558560,-4.965574,-0.047297,0.018386,-0.000133
18841,-4.575319,4.553771,-4.888960,-0.038504,0.016121,-0.011058
18856,-4.486734,4.529830,-4.934450,-0.032109,0.023182,-0.016787
18871,-4.362236,4.503493,-4.975151,-0.027046,0.025047,-0.017720
18886,-4.520253,4.422091,-4.989516,-0.032775,0.006528,-0.017453
18901,-4.596867,4.398149,-5.030218,-0.038104,-0.004530,-0.008394
18916,-4.474763,4.371812,-4.865018,-0.043300,-0.009060,0.002931
18931,-4.419696,4.321534,-4.951209,-0.045299,-0.009593,0.024248
18946,-4.395754,4.357447,-4.860229,-0.042900,-0.006528,0.032242
18961,-4.532224,4.462792,-4.745308,-0.026380,0.005329,0.017453
18976,-4.465186,4.570531,-4.857835,-0.005196,0.026646,0.005329
18991,-4.371812,4.522647,-4.979939,-0.001199,0.034374,-0.010658
19006,-4.386178,4.426879,-4.941632,-0.017453,0.015588,-0.008394
19021,-4.434062,4.446033,-4.987122,-0.034107,-0.001066,-0.004796
19036,-4.333505,4.419696,-4.910508,-0.042101,-0.000799,0.002265
19051,-4.407725,4.369418,-4.908113,-0.054092,-0.001599,0.007861
19066,-4.604050,4.371812,-4.757279,-0.049962,0.012790,0.014256
19081,-4.685452,4.517859,-4.800375,-0.022783,0.044899,0.005063
19096,-4.453215,4.513070,-4.853047,0.000799,0.045832,-0.002265
19111,-4.350265,4.398149,-5.013458,-0.004263,0.024648,0.001199
19126,-4.503493,4.362236,-4.999093,-0.019585,0.005196,0.010925
19141,-4.527435,4.376601,-4.991910,-0.036505,-0.006129,0.023049
19156,-4.539406,4.443638,-4.912902,-0.043034,0.000533,0.033708
19171,-4.541800,4.594473,-4.778827,-0.039703,0.027712,0.025181
19186,-4.544195,4.668693,-4.733336,-0.016121,0.038904,0.006528
19201,-4.520253,4.728548,-4.982334,0.016254,0.046364,-0.015988
19216,-4.484340,4.553771,-5.037400,0.015188,0.033974,-0.025181
19231,-4.467580,4.402937,-5.027823,-0.008793,0.014123,-0.009593
19246,-4.582502,4.405331,-4.960786,-0.043567,0.009593,0.009459
19261,-4.683058,4.469975,-4.946421,-0.055291,-0.000133,0.016787
19276,-4.587290,4.620809,-4.824317,-0.047164,0.007328,0.011724
19291,-4.443638,4.632780,-4.869806,-0.028511,0.013323,0.002398
19306,-4.400543,4.563348,-4.869806,-0.014123,0.003864,-0.014655
19321,-4.618415,4.572925,-4.886566,0.000000,0.005196,-0.029044
19336,-4.491522,4.378995,-4.960786,-0.002265,0.001732,-0.026380
19351,-4.462792,4.309563,-4.994305,-0.051427,0.001466,0.000400
19366,-4.539406,4.398149,-4.853047,-0.076874,-0.015588,0.021583
19381,-4.563348,4.604050,-4.857835,-0.061020,-0.021717,0.006129
19396,-4.606444,4.630386,-4.900931,-0.044632,0.001865,-0.013323
19411,-4.431667,4.539406,-4.936844,-0.032908,0.016121,-0.030910
19426,-4.479551,4.489128,-5.011064,-0.037838,0.003997,-0.042634
19441,-4.548983,4.338294,-4.941632,-0.039436,-0.007994,-0.039703
19456,-4.582502,4.386178,-4.932055,-0.034374,-0.002931,-0.029577
19471,-4.400543,4.359841,-4.915296,-0.025181,-0.002531,-0.020784
19486,-4.402937,4.163517,-4.826711,-0.046498,-0.010392,0.010259
19501,-4.443638,4.276044,-4.905719,-0.076208,-0.003198,0.035306
19516,-4.474763,4.453215,-4.826711,-0.081538,0.009992,0.027712
19531,-4.362236,4.525041,-4.769250,-0.057156,0.015455,0.003064
19546,-4.474763,4.568137,-4.881777,-0.023715,0.012124,-0.025447
19561,-4.630386,4.357447,-4.941632,-0.005063,0.014123,-0.030910
19576,-4.525041,4.249708,-4.967968,-0.014789,0.003997,-0.019052
19591,-4.407725,4.292804,-4.955997,-0.035839,-0.005995,0.010792
19606,-4.453215,4.273650,-4.843470,-0.054358,-0.011991,0.041968
19621,-4.627992,4.321534,-4.671087,-0.057822,-0.004530,0.053026
19636,-4.548983,4.563348,-4.774038,-0.037971,0.012391,0.035573
19651,-4.393360,4.594473,-4.795586,-0.008926,0.015721,0.017986
19666,-4.467580,4.455609,-4.850653,-0.002931,0.008926,0.009193
19681,-4.419696,4.498705,-4.865018,-0.006795,0.007727,0.005329
19696,-4.513070,4.398149,-4.752491,-0.017853,0.000000,0.009726
19711,-4.618415,4.355053,-4.776433,-0.026779,0.005862,0.021583
19726,-4.644751,4.412514,-4.819528,-0.028645,0.025181,0.030643
19741,-4.532224,4.551377,-4.989516,-0.019452,0.028245,0.025980
19756,-4.393360,4.666299,-4.929661,-0.003064,0.015455,0.013856
19771,-4.472369,4.510676,-4.936844,-0.006528,0.000400,0.005462
19786,-4.568137,4.446033,-4.910508,-0.021450,0.002531,0.010259
19801,-4.522647,4.493917,-4.843470,-0.035173,0.005329,0.014522
19816,-4.508282,4.503493,-4.809951,-0.050095,0.013456,0.014123
19831,-4.491522,4.548983,-4.915296,-0.054625,0.019851,0.004530
19846,-4.539406,4.596867,-4.872200,-0.046631,0.023715,-0.003597
19861,-4.472369,4.546589,-4.762067,-0.039037,0.019985,-0.009726
19876,-4.479551,4.489128,-4.829105,-0.025047,0.013856,-0.015055
19891,-4.604050,4.338294,-4.757279,-0.015322,0.011591,-0.016387
19906,-4.606444,4.237737,-4.881777,-0.031975,0.011191,0.003997
19921,-4.575319,4.350265,-4.855441,-0.046498,0.017187,0.022783
19936,-4.486734,4.520253,-4.936844,-0.051694,0.015588,0.027845
19951,-4.486734,4.496311,-4.958392,-0.041701,0.012524,0.031576
19966,-4.548983,4.434062,-4.833893,-0.049296,0.003331,0.030910
19981,-4.508282,4.563348,-4.821922,-0.057289,0.007727,0.022916
19996,-4.369418,4.580108,-4.853047,-0.053959,0.001998,0.013057
20011,-4.635174,4.558560,-4.824317,-0.038237,0.014655,-0.002531
20026,-4.644751,4.551377,-4.893748,-0.016121,0.032375,-0.018652
20041,-4.539406,4.498705,-4.924873,-0.011991,0.037305,-0.023449
20056,-4.438850,4.458004,-5.011064,-0.021583,0.022783,-0.010925
20071,-4.455609,4.383783,-4.920084,-0.040902,0.005196,-0.000400
20086,-4.647145,4.381389,-4.884171,-0.047297,0.004796,0.014922
20101,-4.558560,4.486734,-4.908113,-0.049828,0.001199,0.025181
20116,-4.429273,4.560954,-4.917690,-0.048363,0.005862,0.023982
20131,-4.424485,4.608838,-4.800375,-0.045032,0.011191,0.002931
20146,-4.460398,4.479551,-4.876989,-0.048629,0.008527,-0.005862
20161,-4.390966,4.616021,-4.924873,-0.047297,0.007594,-0.019851
20176,-4.458004,4.479551,-4.843470,-0.045965,0.008527,-0.022116
20191,-4.575319,4.381389,-4.807557,-0.061153,0.011991,-0.012790
20206,-4.747702,4.508282,-4.778827,-0.043034,0.041035,-0.014256
20221,-4.537012,4.515464,-4.845864,-0.027046,0.036239,-0.016787
20236,-4.410120,4.498705,-4.893748,-0.022383,0.022516,-0.016387
20251,-4.505888,4.386178,-4.850653,-0.031576,0.017986,-0.005862
20266,-4.584896,4.355053,-4.855441,-0.042501,0.009859,0.003198
20281,-4.620809,4.438850,-4.848258,-0.040369,0.007328,0.003730
20296,-4.560954,4.469975,-4.824317,-0.031576,0.025580,-0.000266
20311,-4.587290,4.458004,-4.824317,-0.023715,0.024914,-0.001865
20326,-4.560954,4.362236,-4.879383,-0.027179,0.022116,0.003064
20341,-4.489128,4.386178,-4.929661,-0.044100,0.012257,0.015855
20356,-4.402937,4.539406,-4.853047,-0.050095,-0.004930,0.031176
20371,-4.553771,4.575319,-4.862624,-0.034374,0.004530,0.022116
20386,-4.704606,4.450821,-4.824317,-0.017320,0.019585,0.008260
20401,-4.568137,4.570531,-4.793192,-0.001599,0.027712,-0.008260
20416,-4.513070,4.563348,-4.855441,-0.002531,0.036905,-0.021317
20431,-4.510676,4.520253,-4.924873,-0.007194,0.030776,-0.019585
20446,-4.484340,4.369418,-4.893748,-0.028645,0.016787,-0.010658
20461,-4.577713,4.472369,-4.848258,-0.038770,0.001732,0.007861
20476,-4.434062,4.469975,-4.893748,-0.051427,-0.000533,0.023715
20491,-4.398149,4.501099,-4.929661,-0.061953,0.003331,0.035706
20506,-4.491522,4.525041,-4.807557,-0.058355,0.001066,0.025980
20521,-4.553771,4.565742,-4.711789,-0.040902,0.010126,0.010525
20536,-4.486734,4.577713,-4.663905,-0.025447,0.028645,-0.010259
20551,-4.460398,4.508282,-4.836287,-0.013723,0.037971,-0.028645
20566,-4.580108,4.498705,-4.924873,-0.011325,0.026779,-0.027179
20581,-4.625597,4.335899,-4.869806,-0.033574,0.020118,-0.011458
20596,-4.455609,4.369418,-4.881777,-0.055557,0.015322,0.014389
20611,-4.443638,4.340688,-4.802769,-0.071678,0.008127,0.031576
20626,-4.601655,4.520253,-4.735731,-0.065283,0.008660,0.031043
20641,-4.419696,4.505888,-4.711789,-0.058222,0.015855,0.017320
20656,-4.515464,4.620809,-4.726154,-0.040769,0.041035,-0.001199
20671,-4.505888,4.711789,-4.742914,-0.012257,0.042634,-0.022783
20686,-4.558560,4.563348,-4.809951,0.007861,0.041968,-0.036639
20701,-4.580108,4.371812,-5.001487,-0.007328,0.032642,-0.022516
20716,-4.501099,4.240131,-4.939238,-0.043567,0.015588,0.012923
20731,-4.565742,4.414908,-4.881777,-0.072478,0.016920,0.034374
20746,-4.699818,4.534618,-4.893748,-0.072345,0.021583,0.040236
20761,-4.707000,4.666299,-4.884171,-0.045165,0.037571,0.014123
20776,-4.479551,4.766856,-4.927267,-0.009726,0.034640,-0.014789
20791,-4.481946,4.620809,-4.867412,0.006928,0.025580,-0.025447
20806,-4.589684,4.398149,-4.999093,0.003730,0.018119,-0.019052
20821,-4.584896,4.295198,-4.946421,-0.024781,0.010392,0.009859
20836,-4.491522,4.357447,-4.884171,-0.060753,0.006662,0.040369
20851,-4.472369,4.481946,-4.824317,-0.076342,0.014789,0.044100
20866,-4.599261,4.616021,-4.802769,-0.063018,0.032109,0.023582
20881,-4.553771,4.613626,-4.807557,-0.028245,0.032775,-0.005063
20896,-4.434062,4.529830,-4.829105,-0.003064,0.021983,-0.030243
20911,-4.405331,4.472369,-4.910508,-0.000666,0.004663,-0.022250
20926,-4.481946,4.299986,-4.879383,-0.010792,0.001732,0.006129
20941,-4.632780,4.304775,-4.841076,-0.035173,0.010259,0.034107
20956,-4.556166,4.489128,-4.740520,-0.054625,0.021184,0.046764
20971,-4.431667,4.678270,-4.807557,-0.048896,0.037838,0.021717
20986,-4.448427,4.639963,-4.812346,-0.017720,0.037438,-0.007461
21001,-4.529830,4.553771,-4.740520,-0.003597,0.024914,-0.027845
21016,-4.472369,4.498705,-4.819528,-0.007994,0.013456,-0.025181
21031,-4.489128,4.371812,-4.805163,-0.022116,0.009193,-0.009593
21046,-4.534618,4.280833,-4.920084,-0.048629,0.014922,0.026513
21061,-4.572925,4.426879,-4.831499,-0.076608,0.007194,0.048763
21076,-4.462792,4.534618,-4.939238,-0.074210,0.019052,0.053426
21091,-4.400543,4.738125,-4.848258,-0.045165,0.017453,0.025314
21106,-4.572925,4.718971,-4.771644,-0.009726,0.015855,-0.007461
21121,-4.675876,4.548983,-4.850653,0.011325,0.028245,-0.025980
21136,-4.508282,4.417302,-4.908113,0.006528,0.036239,-0.017587
21151,-4.357447,4.393360,-4.948815,-0.021717,0.034107,0.002665
21166,-4.443638,4.498705,-4.953603,-0.049029,0.018386,0.019851
21181,-4.532224,4.429273,-4.979939,-0.062485,0.012657,0.024248
21196,-4.481946,4.465186,-4.857835,-0.063152,0.008260,0.024515
21211,-4.407725,4.556166,-4.781221,-0.051827,0.012257,0.022783
21226,-4.570531,4.584896,-4.730942,-0.035040,0.027312,0.012657
21241,-4.551377,4.582502,-4.900931,-0.017720,0.043567,-0.008394
21256,-4.515464,4.611232,-4.948815,-0.005995,0.046498,-0.020917
21271,-4.441244,4.484340,-5.013458,-0.010259,0.035706,-0.020384
21286,-4.481946,4.359841,-5.104438,-0.031975,0.023049,-0.003597
21301,-4.570531,4.383783,-4.946421,-0.043700,0.007194,0.009992
21316,-4.522647,4.364630,-4.891354,-0.042767,-0.011591,0.029178
21331,-4.429273,4.400543,-4.881777,-0.054358,-0.007061,0.049162
21346,-4.501099,4.522647,-4.774038,-0.040769,0.013323,0.037704
21361,-4.572925,4.604050,-4.944026,-0.015988,0.027446,0.010525
21376,-4.537012,4.623203,-4.910508,0.011724,0.031176,-0.015988
21391,-4.376601,4.510676,-4.963180,0.019319,0.025447,-0.029977
21406,-4.398149,4.350265,-4.905719,0.000400,0.013723,-0.013323
21421,-4.544195,4.304775,-4.853047,-0.030643,0.000133,0.013190
21436,-4.565742,4.443638,-4.795586,-0.049962,0.001199,0.034507
21451,-4.510676,4.584896,-4.855441,-0.045565,0.012657,0.023982
21466,-4.505888,4.544195,-4.857835,-0.030643,0.023582,0.014123
21481,-4.589684,4.551377,-4.920084,-0.016654,0.012657,-0.001466
21496,-4.558560,4.534618,-4.903325,-0.001199,0.008127,-0.006395
21511,-4.446033,4.551377,-4.776433,0.008394,0.007861,-0.001732
21526,-4.474763,4.419696,-4.805163,-0.014389,0.010259,0.021317
21541,-4.515464,4.371812,-4.886566,-0.049296,0.014922,0.041568
21556,-4.438850,4.608838,-4.891354,-0.069413,0.018652,0.045165
21571,-4.340688,4.637568,-4.879383,-0.072345,0.010259,0.028245
21586,-4.350265,4.687847,-4.817134,-0.061420,0.004930,0.009459
21601,-4.479551,4.654328,-4.805163,-0.036905,0.003997,-0.012923
21616,-4.551377,4.582502,-4.709394,-0.003198,0.022250,-0.031443
21631,-4.446033,4.484340,-4.680664,0.011858,0.041568,-0.033441
21646,-4.517859,4.347870,-4.867412,-0.013723,0.048096,-0.014922
21661,-4.496311,4.362236,-5.035006,-0.048496,0.043167,0.009326
21676,-4.448427,4.510676,-4.860229,-0.062885,0.028112,0.022516
21691,-4.434062,4.546589,-4.989516,-0.054092,0.009326,0.012790
21706,-4.486734,4.496311,-4.915296,-0.050495,0.018652,0.015588
21721,-4.616021,4.467580,-4.912902,-0.037838,0.020118,0.008260
21736,-4.481946,4.541800,-4.826711,-0.015988,0.019585,0.003730
21751,-4.419696,4.493917,-4.853047,-0.009326,0.015855,0.003730
21766,-4.410120,4.477157,-4.920084,-0.021051,0.019718,0.009459
21781,-4.613626,4.438850,-5.039794,-0.028911,0.028378,0.005596
21796,-4.553771,4.527435,-4.900931,-0.024781,0.032242,-0.000799
21811,-4.410120,4.577713,-5.082890,-0.009193,0.018119,-0.007328
21826,-4.395754,4.481946,-4.936844,-0.003864,0.008260,-0.000933
21841,-4.501099,4.407725,-4.886566,-0.007061,-0.002798,0.015455
21856,-4.378995,4.378995,-4.857835,-0.019851,-0.000666,0.025847
21871,-4.338294,4.486734,-4.817134,-0.040902,0.005862,0.038637
21886,-4.369418,4.587290,-4.714183,-0.044366,0.015988,0.029444
21901,-4.534618,4.630386,-4.831499,-0.036239,0.026380,0.008127
21916,-4.627992,4.718971,-4.831499,-0.008260,0.025580,-0.019185
21931,-4.505888,4.616021,-4.987122,0.012657,0.025714,-0.035306
21946,-4.465186,4.414908,-4.934450,0.003464,0.021450,-0.027046
21961,-4.537012,4.316746,-4.996699,-0.028378,0.006662,0.007994
21976,-4.618415,4.455609,-4.984728,-0.050095,0.011458,0.023848
21991,-4.496311,4.529830,-4.924873,-0.052360,0.014522,0.018386
22006,-4.441244,4.611232,-4.826711,-0.038904,0.010925,0.008793
22021,-4.441244,4.594473,-4.884171,-0.026646,0.007461,-0.000400
22036,-4.503493,4.474763,-4.824317,-0.026779,-0.004796,0.000933
22051,-4.498705,4.448427,-4.881777,-0.028511,0.003064,0.006395
22066,-4.446033,4.477157,-4.809951,-0.032109,0.011591,0.008527
22081,-4.467580,4.505888,-4.888960,-0.039703,0.023848,0.010792
22096,-4.517859,4.491522,-4.853047,-0.047430,0.019452,0.010392
22111,-4.393360,4.546589,-4.845864,-0.053292,0.016254,0.004930
22126,-4.333505,4.529830,-4.860229,-0.056357,0.006528,0.007061
22141,-4.534618,4.460398,-4.831499,-0.043700,0.013856,0.006129
22156,-4.563348,4.453215,-4.790798,-0.024914,0.037571,0.003464
22171,-4.438850,4.450821,-4.800375,-0.019985,0.050628,0.013989
22186,-4.264073,4.539406,-4.848258,-0.028378,0.043300,0.014389
22201,-4.345476,4.546589,-5.023035,-0.034773,0.027046,0.009459
22216,-4.374207,4.484340,-4.845864,-0.045165,0.016654,0.007194
22231,-4.436456,4.450821,-4.833893,-0.052227,0.015721,0.016920
22246,-4.407725,4.436456,-4.817134,-0.054758,0.033308,0.018919
22261,-4.496311,4.541800,-4.891354,-0.039703,0.044632,0.012257
22276,-4.582502,4.589684,-4.927267,-0.012257,0.047430,-0.005596
22291,-4.443638,4.544195,-4.982334,0.000000,0.031576,-0.013190
22306,-4.417302,4.491522,-5.118803,-0.006528,0.022783,-0.003864
22321,-4.491522,4.407725,-5.003881,-0.028778,0.012257,0.009726
22336,-4.663905,4.450821,-4.936844,-0.038504,0.017720,0.022649
22351,-4.522647,4.551377,-5.006276,-0.042368,0.022250,0.022250
22366,-4.469975,4.668693,-5.066131,-0.036106,0.017187,0.015322
22381,-4.441244,4.654328,-5.042189,-0.015855,0.017320,-0.001066
22396,-4.479551,4.663905,-4.984728,0.004397,0.011591,-0.011724
22411,-4.446033,4.510676,-4.891354,-0.000133,-0.000266,-0.015455
22426,-4.462792,4.517859,-5.030218,-0.022250,0.001865,-0.010792
22441,-4.390966,4.522647,-5.003881,-0.042101,-0.017587,-0.013323
22456,-4.458004,4.493917,-4.924873,-0.056490,-0.044499,-0.011325
22471,-4.558560,4.570531,-4.910508,-0.024115,-0.053426,-0.019052
22486,-4.515464,4.340688,-4.750096,-0.013057,-0.036772,-0.003331
22501,-4.501099,4.438850,-4.733336,-0.015322,0.005995,0.020118
22516,-4.537012,4.467580,-4.759673,-0.001865,0.017320,0.018519
22531,-4.417302,4.501099,-4.855441,-0.016787,0.017720,0.019052
22546,-4.355053,4.623203,-4.955997,-0.026513,0.012524,0.008793
22561,-4.331111,4.546589,-4.979939,-0.031576,0.006528,0.000133
22576,-4.565742,4.474763,-4.939238,-0.041568,0.003198,-0.007194
22591,-4.520253,4.467580,-4.884171,-0.047430,0.017720,-0.005462
22606,-4.376601,4.534618,-4.814740,-0.037305,0.023982,-0.013723
22621,-4.455609,4.515464,-4.764462,-0.012391,0.019452,-0.016121
22636,-4.577713,4.431667,-4.876989,-0.014522,0.021583,-0.012657
22651,-4.584896,4.448427,-4.967968,-0.012657,0.018786,-0.003730
22666,-4.529830,4.429273,-4.860229,-0.035306,0.019718,0.013856
22681,-4.601655,4.429273,-4.826711,-0.054092,0.016920,0.026913
22696,-4.625597,4.560954,-4.879383,-0.050361,0.022649,0.017853
22711,-4.501099,4.771644,-4.857835,-0.007061,0.025181,-0.017853
22726,-4.443638,4.709394,-4.951209,0.015188,0.001199,-0.022250
22741,-4.556166,4.625597,-5.006276,0.051427,-0.018119,-0.040236
22756,-4.608838,4.175488,-4.972757,0.022649,-0.015588,-0.024515
22771,-4.592079,4.197035,-4.972757,-0.042101,-0.007061,0.019851
22786,-4.414908,4.364630,-4.850653,-0.065550,0.000000,0.035839
22801,-4.352659,4.515464,-4.795586,-0.058089,0.005995,0.025580
22816,-4.539406,4.695029,-4.848258,-0.017853,0.005462,0.000666
22831,-4.520253,4.584896,-4.781221,0.004263,0.008127,-0.005462
22846,-4.362236,4.419696,-4.728548,-0.022916,0.011191,0.008394
22861,-4.352659,4.498705,-4.786009,-0.054092,0.020251,0.023582
22876,-4.405331,4.639963,-4.850653,-0.076208,0.025447,0.024515
22891,-4.467580,4.608838,-4.872200,-0.072478,0.022383,0.005596
22906,-4.362236,4.604050,-4.795586,-0.061819,0.019585,-0.012524
22921,-4.448427,4.556166,-4.805163,-0.065949,0.019985,-0.021717
22936,-4.534618,4.458004,-4.905719,-0.062885,0.015188,-0.023848
22951,-4.532224,4.410120,-4.817134,-0.055557,0.018253,-0.019985
22966,-4.450821,4.316746,-4.728548,-0.062352,0.027579,-0.013190
22981,-4.477157,4.367024,-4.805163,-0.053825,0.044899,-0.000533
22996,-4.568137,4.335899,-4.872200,-0.035440,0.056357,0.001732
23011,-4.529830,4.412514,-4.984728,-0.027179,0.053959,0.004263
23026,-4.376601,4.458004,-5.035006,-0.025580,0.038504,-0.000133
23041,-4.378995,4.417302,-5.037400,-0.031576,0.016920,0.005196
23056,-4.491522,4.398149,-4.888960,-0.046764,0.000400,0.016121
23071,-4.623203,4.374207,-4.960786,-0.052227,0.001066,0.026380
23086,-4.608838,4.539406,-4.905719,-0.050095,0.017453,0.024115
23101,-4.529830,4.644751,-4.836287,-0.030643,0.034640,0.008127
23116,-4.558560,4.644751,-5.061342,0.012257,0.026646,-0.010525
23131,-4.525041,4.371812,-5.085284,0.024515,0.013456,-0.022250
23146,-4.563348,4.345476,-4.970363,0.003864,-0.000400,0.005995
23161,-4.371812,4.405331,-4.898537,-0.016387,-0.020118,0.034907
23176,-4.486734,4.410120,-4.884171,-0.027845,-0.023315,0.045299
23191,-4.618415,4.479551,-4.886566,-0.043300,-0.001199,0.055424
23206,-4.534618,4.671087,-4.891354,-0.048230,0.009193,0.045432
23221,-4.434062,4.716577,-4.891354,-0.037438,0.024914,0.015588
23236,-4.496311,4.663905,-4.929661,-0.016920,0.015721,-0.013856
23251,-4.443638,4.613626,-4.867412,0.000666,0.001599,-0.030776
23266,-4.376601,4.474763,-4.812346,0.007328,-0.002665,-0.017054
23281,-4.517859,4.369418,-4.821922,-0.008394,-0.003864,0.006528
23296,-4.474763,4.548983,-4.910508,-0.025980,-0.012124,0.025181
23311,-4.386178,4.599261,-4.960786,-0.033041,-0.014522,0.023182
23326,-4.386178,4.568137,-4.941632,-0.049296,-0.008127,0.015055
23341,-4.529830,4.565742,-4.759673,-0.049162,-0.009459,0.003597
23356,-4.606444,4.654328,-4.910508,-0.038637,-0.006662,-0.011724
23371,-4.541800,4.510676,-4.821922,-0.023315,0.007861,-0.013723
23386,-4.515464,4.369418,-4.850653,-0.028245,0.006129,-0.000133
23401,-4.560954,4.400543,-4.884171,-0.047164,0.014389,0.013590
23416,-4.532224,4.534618,-4.972757,-0.055691,0.009992,0.016787
23431,-4.326323,4.551377,-4.831499,-0.061819,-0.003597,0.018386
23446,-4.414908,4.584896,-4.848258,-0.053426,-0.000799,0.004663
23461,-4.592079,4.537012,-4.886566,-0.036772,0.009193,-0.005596
23476,-4.639963,4.510676,-4.879383,-0.011991,0.018119,-0.018652
23491,-4.505888,4.424485,-4.896142,-0.013057,0.018253,-0.012391
23506,-4.388572,4.357447,-4.960786,-0.035573,0.011724,0.008793
23521,-4.558560,4.446033,-4.898537,-0.045832,0.002265,0.020784
23536,-4.477157,4.534618,-4.872200,-0.042501,-0.013323,0.017453
23551,-4.400543,4.596867,-4.900931,-0.035173,-0.013590,0.007861
23566,-4.398149,4.635174,-4.932055,-0.035440,0.005995,-0.005196
23581,-4.443638,4.620809,-4.869806,-0.015055,0.008127,-0.014789
23596,-4.584896,4.651934,-4.836287,0.009060,0.015322,-0.031176
23611,-4.446033,4.484340,-4.786009,-0.007594,0.015055,-0.026247
23626,-4.453215,4.458004,-4.750096,-0.033841,0.003864,-0.020251
23641,-4.635174,4.407725,-4.776433,-0.054358,-0.001998,-0.003997
23656,-4.513070,4.410120,-4.733336,-0.077008,0.001066,0.004930
23671,-4.697423,4.556166,-4.735731,-0.069280,0.028245,0.007594
23686,-4.448427,4.606444,-4.762067,-0.041835,0.023315,-0.004663
23701,-4.489128,4.647145,-4.848258,-0.016254,0.033841,-0.018253
23716,-4.654328,4.453215,-4.704606,-0.010658,0.039303,-0.018786
23731,-4.592079,4.443638,-4.817134,-0.024648,0.046231,-0.005063
23746,-4.355053,4.529830,-4.967968,-0.041035,0.036372,-0.007061
23761,-4.496311,4.659116,-5.039794,-0.042234,0.016254,-0.014389
23776,-4.625597,4.484340,-5.082890,-0.041035,-0.003331,-0.021450
23791,-4.575319,4.422091,-4.970363,-0.058888,-0.007727,-0.010392
23806,-4.498705,4.486734,-4.826711,-0.063018,-0.007727,-0.001466
23821,-4.707000,4.376601,-4.783615,-0.063951,-0.000400,0.007061
23836,-4.620809,4.446033,-4.690241,-0.070479,0.018919,0.012923
23851,-4.455609,4.584896,-4.884171,-0.053559,0.028112,0.006795
23866,-4.319140,4.558560,-4.786009,-0.028112,0.026646,-0.006928
23881,-4.477157,4.383783,-4.857835,-0.019851,0.034507,-0.012391
23896,-4.515464,4.364630,-4.891354,-0.028511,0.031709,-0.007461
23911,-4.455609,4.508282,-4.774038,-0.034907,0.018919,-0.003597
23926,-4.388572,4.448427,-4.900931,-0.028645,0.007594,-0.005862
23941,-4.582502,4.491522,-4.869806,-0.041035,0.009459,-0.000533
23956,-4.620809,4.472369,-4.857835,-0.065816,0.022383,0.005729
23971,-4.529830,4.723760,-4.855441,-0.052360,0.029044,-0.011858
23986,-4.407725,4.714183,-4.905719,-0.023582,0.043433,-0.033441
24001,-4.541800,4.572925,-4.850653,-0.015055,0.040636,-0.042900
24016,-4.522647,4.558560,-4.824317,-0.008127,0.038371,-0.042234
24031,-4.508282,4.402937,-4.812346,-0.018519,0.031975,-0.026247
24046,-4.450821,4.458004,-4.836287,-0.039703,0.018652,-0.006395
24061,-4.616021,4.532224,-4.857835,-0.038504,-0.001865,0.007461
24076,-4.793192,4.484340,-4.927267,-0.041302,0.009992,-0.002931
24091,-4.683058,4.575319,-4.795586,-0.045698,0.028511,-0.015055
24106,-4.469975,4.678270,-4.845864,-0.034907,0.017587,-0.034240
24121,-4.465186,4.378995,-4.826711,-0.037971,0.012923,-0.033974
24136,-4.587290,4.390966,-4.862624,-0.048496,0.011858,-0.012257
24151,-4.592079,4.410120,-4.831499,-0.067815,0.000933,0.008527
24166,-4.529830,4.529830,-4.944026,-0.074743,0.000133,0.018386
24181,-4.575319,4.592079,-4.867412,-0.068881,0.007061,0.013190
24196,-4.572925,4.510676,-4.735731,-0.067681,0.012790,0.001865
24211,-4.520253,4.556166,-4.668693,-0.054225,0.018786,-0.008793
24226,-4.548983,4.479551,-4.754885,-0.039170,0.017054,-0.020784
24241,-4.551377,4.525041,-4.826711,-0.016254,0.042101,-0.029311
24256,-4.616021,4.395754,-4.742914,-0.013590,0.039170,-0.015588
24271,-4.575319,4.367024,-4.893748,-0.031443,0.033841,-0.008127
24286,-4.467580,4.580108,-5.030218,-0.030377,0.009193,0.001732
24301,-4.663905,4.378995,-4.960786,-0.021051,-0.008793,0.009593
24316,-4.726154,4.407725,-5.066131,-0.049695,-0.013057,0.032375
24331,-4.678270,4.426879,-4.910508,-0.059421,-0.015055,0.053959
24346,-4.400543,4.556166,-4.884171,-0.071012,-0.011991,0.058622
24361,-4.462792,4.639963,-4.829105,-0.075675,-0.008394,0.033574
24376,-4.704606,4.795586,-4.776433,-0.040502,0.019452,-0.014389
24391,-4.458004,4.891354,-4.584896,-0.000533,0.042234,-0.073144
24406,-4.474763,4.819528,-4.848258,0.031309,0.039303,-0.107518
24421,-4.501099,4.479551,-4.999093,0.023848,0.030776,-0.103920
24436,-4.608838,4.244920,-4.994305,-0.015721,0.021450,-0.068881
24451,-4.465186,4.276044,-4.879383,-0.058489,0.011325,-0.035040
24466,-4.400543,4.378995,-4.774038,-0.094727,-0.005063,-0.003464
24481,-4.532224,4.414908,-4.764462,-0.108717,0.005063,0.016521
24496,-4.632780,4.620809,-4.644751,-0.093662,0.016521,0.011325
24511,-4.661510,4.661510,-4.568137,-0.037838,0.030776,-0.026913
24526,-4.604050,4.745308,-4.560954,0.005729,0.036106,-0.053026
24541,-4.417302,4.501099,-4.759673,0.072877,0.000266,-0.073810
24556,-4.515464,4.070143,-4.898537,0.064484,-0.006662,-0.048230
24571,-4.580108,4.019865,-4.786009,0.007461,-0.008394,0.011058
24586,-4.522647,4.225766,-4.888960,-0.032109,-0.004397,0.058888
24601,-4.637568,4.424485,-4.759673,-0.053692,0.017720,0.078473
24616,-4.651934,4.587290,-4.814740,-0.065949,0.041968,0.062352
24631,-4.553771,4.707000,-4.764462,-0.048896,0.052360,0.027579
24646,-4.434062,4.759673,-4.874595,-0.028378,0.055158,-0.006795
24661,-4.367024,4.757279,-4.908113,-0.007461,0.039570,-0.035040
24676,-4.570531,4.580108,-4.850653,0.016920,0.025847,-0.051427
24691,-4.639963,4.347870,-4.910508,0.007061,0.023982,-0.035040
24706,-4.659116,4.302381,-4.867412,-0.026913,0.020251,-0.001199
24721,-4.649539,4.359841,-4.872200,-0.060354,0.036106,0.023049
24736,-4.718971,4.465186,-4.912902,-0.069014,0.031576,0.024914
24751,-4.730942,4.570531,-4.893748,-0.045965,0.026113,0.002398
24766,-4.606444,4.575319,-4.960786,-0.028112,0.014123,-0.015988
24781,-4.596867,4.501099,-4.903325,-0.017720,-0.004130,-0.022649
24796,-4.759673,4.285621,-4.905719,-0.016387,-0.002398,-0.016787
24811,-4.762067,4.376601,-4.960786,-0.023315,0.007994,0.003331
24826,-4.577713,4.374207,-4.903325,-0.035040,0.016654,0.022516
24841,-4.486734,4.539406,-4.795586,-0.038637,0.010792,0.019319
24856,-4.577713,4.656722,-4.927267,-0.021850,0.019052,-0.004263
24871,-4.570531,4.575319,-4.809951,-0.006262,0.008527,-0.021051
24886,-4.537012,4.517859,-4.850653,-0.004130,0.005596,-0.017453
24901,-4.606444,4.498705,-4.821922,0.001865,0.009060,-0.010792
24916,-4.671087,4.486734,-4.817134,-0.003997,0.019319,-0.007461
24931,-4.661510,4.517859,-4.843470,-0.022916,0.016920,-0.002265
24946,-4.419696,4.606444,-4.948815,-0.033308,-0.001998,-0.004130
24961,-4.395754,4.601655,-4.855441,-0.035173,-0.008394,-0.012923
24976,-4.539406,4.498705,-4.687847,-0.034507,-0.009459,-0.016654
24991,-4.671087,4.374207,-4.642357,-0.025047,0.003198,-0.015188
25006,-4.541800,4.479551,-4.680664,-0.016121,0.022250,-0.021450
25021,-4.479551,4.417302,-4.766856,-0.020384,0.042634,-0.016521
25036,-4.659116,4.371812,-4.874595,-0.038904,0.050761,-0.007461
25051,-4.678270,4.462792,-4.891354,-0.037438,0.045299,-0.011991
25066,-4.558560,4.580108,-4.891354,-0.021717,0.028245,-0.023715
25081,-4.429273,4.520253,-4.905719,-0.005329,0.011591,-0.035706
25096,-4.575319,4.467580,-4.836287,0.000799,0.007994,-0.038904
25111,-4.745308,4.311957,-4.893748,-0.009193,0.009593,-0.030377
25126,-4.707000,4.426879,-4.845864,-0.029444,0.031443,-0.014522
25141,-4.496311,4.678270,-4.929661,-0.010658,0.042101,-0.037971
25156,-4.594473,4.532224,-4.970363,0.022516,0.030110,-0.063685
25171,-4.685452,4.333505,-4.984728,0.025181,0.016387,-0.065283
25186,-4.678270,4.240131,-4.917690,0.003464,-0.007194,-0.041302
25201,-4.563348,4.295198,-4.872200,-0.013323,-0.024115,-0.018119
25216,-4.680664,4.436456,-4.872200,-0.013057,-0.014256,-0.015322
25231,-4.757279,4.333505,-4.893748,-0.013989,-0.001199,-0.008527
25246,-4.644751,4.343082,-4.967968,-0.042634,0.016920,0.006528
25261,-4.503493,4.532224,-4.984728,-0.057689,0.016654,0.003864
25276,-4.496311,4.462792,-4.984728,-0.059021,-0.000533,-0.012391
25291,-4.644751,4.276044,-4.754885,-0.057289,-0.022250,-0.024381
25306,-4.735731,4.426879,-4.733336,-0.044100,-0.018253,-0.029044
25321,-4.639963,4.505888,-4.695029,0.006795,0.002398,-0.047430
25336,-4.604050,4.297592,-4.936844,0.019185,0.017853,-0.040236
25351,-4.623203,4.228160,-4.958392,-0.003064,0.015055,-0.015322
25366,-4.577713,4.252102,-4.996699,-0.036505,-0.009459,0.003064
25381,-4.462792,4.367024,-4.963180,-0.067149,-0.028245,0.012790
25396,-4.707000,4.323928,-4.860229,-0.066216,-0.030243,0.019452
25411,-4.762067,4.434062,-4.752491,-0.047830,-0.006528,0.011858
25426,-4.596867,4.489128,-4.809951,-0.025980,0.012790,-0.007061
25441,-4.496311,4.479551,-4.855441,-0.007061,0.017587,-0.025980
25456,-4.532224,4.359841,-4.869806,-0.020651,-0.004530,-0.023715
25471,-4.733336,4.247314,-4.841076,-0.044233,-0.016121,-0.009060
25486,-4.728548,4.146757,-4.821922,-0.069547,-0.006928,0.011058
25501,-4.572925,4.407725,-4.855441,-0.074743,-0.017720,0.020651
25516,-4.611232,4.469975,-4.874595,-0.064217,-0.027712,0.016920
25531,-4.738125,4.417302,-4.692635,-0.026913,-0.019452,-0.003464
25546,-4.728548,4.304775,-4.695029,-0.016387,0.005995,-0.007727
25561,-4.594473,4.412514,-4.802769,-0.019452,0.023182,-0.004530
25576,-4.532224,4.378995,-4.903325,-0.025181,0.011858,0.001599
25591,-4.661510,4.268862,-4.838682,-0.048230,-0.003864,0.007328
25606,-4.747702,4.295198,-4.793192,-0.066749,-0.014789,0.014922
25621,-4.687847,4.443638,-4.707000,-0.067415,-0.022116,0.007328
25636,-4.730942,4.393360,-4.659116,-0.054358,0.000933,-0.000666
25651,-4.824317,4.323928,-4.618415,-0.043700,0.014655,-0.003064
25666,-4.824317,4.424485,-4.702212,-0.023182,0.031975,-0.007061
25681,-4.630386,4.398149,-4.833893,-0.000666,0.042634,-0.012657
25696,-4.606444,4.304775,-4.862624,0.007861,0.030776,0.001332
25711,-4.637568,4.314352,-4.905719,0.006928,0.009593,0.014389
25726,-4.589684,4.194641,-4.941632,-0.019319,-0.010792,0.027179
25741,-4.575319,4.367024,-4.841076,-0.062885,-0.011458,0.036106
25756,-4.594473,4.438850,-4.766856,-0.083669,-0.008793,0.034107
25771,-4.788404,4.422091,-4.666299,-0.074077,0.012524,0.014123
25786,-4.730942,4.299986,-4.764462,-0.073011,0.019452,0.015988
25801,-4.589684,4.381389,-4.845864,-0.072211,-0.007328,0.039303
25816,-4.632780,4.436456,-4.929661,-0.054492,-0.011325,0.053426
25831,-4.735731,4.340688,-4.848258,-0.044233,-0.022383,0.067948
25846,-4.730942,4.458004,-4.692635,-0.052093,-0.005063,0.065816
25861,-4.632780,4.635174,-4.776433,-0.046897,0.010126,0.040769
25876,-4.630386,4.584896,-4.800375,-0.042101,0.020518,0.001732
25891,-4.762067,4.563348,-4.809951,-0.027979,0.019185,-0.038904
25906,-4.783615,4.647145,-4.807557,0.021317,0.018519,-0.086600
25921,-4.644751,4.295198,-4.850653,0.050361,0.004930,-0.091130
25936,-4.599261,4.204218,-4.695029,0.045165,0.002265,-0.062352
25951,-4.599261,4.096479,-4.661510,0.039836,0.001332,-0.027179
25966,-4.908113,3.833117,-4.716577,-0.037838,0.023449,0.050495
25981,-4.745308,4.197035,-4.707000,-0.111914,0.041302,0.107118
25996,-4.551377,4.661510,-4.745308,-0.089665,0.057156,0.079406
26011,-4.608838,4.699818,-4.829105,-0.041302,0.040636,0.031043
26026,-4.627992,4.419696,-4.951209,-0.012790,-0.002665,0.011191
26041,-4.663905,4.458004,-4.874595,-0.002931,-0.031043,0.013057
26056,-4.695029,4.383783,-4.857835,-0.014789,-0.031443,0.037704
26071,-4.793192,4.268862,-4.826711,-0.074609,-0.017720,0.076475
26086,-4.718971,4.498705,-4.802769,-0.122306,0.012657,0.091530
26101,-4.522647,4.802769,-4.711789,-0.114179,0.028911,0.063152
26116,-4.596867,4.814740,-4.733336,-0.064351,0.036372,-0.000533
26131,-4.726154,4.697423,-4.685452,-0.005063,0.046498,-0.065017
26146,-4.857835,4.359841,-4.738125,0.013723,0.043567,-0.085801
26161,-4.774038,4.228160,-4.774038,0.007194,0.028645,-0.064084
26176,-4.718971,4.209006,-4.795586,-0.022383,0.019585,-0.011858
26191,-4.838682,4.345476,-4.893748,-0.027579,0.028511,0.014389
26206,-4.797980,4.381389,-4.946421,-0.039037,0.024914,0.033974
26221,-4.774038,4.455609,-4.836287,-0.047963,0.020917,0.039170
26236,-4.551377,4.553771,-4.797980,-0.048363,0.013190,0.023582
26251,-4.616021,4.450821,-4.809951,-0.047564,-0.001599,0.005329
26266,-4.757279,4.455609,-4.769250,-0.037971,-0.007194,-0.013190
26281,-4.668693,4.443638,-4.759673,-0.024381,0.001332,-0.022383
26296,-4.553771,4.429273,-4.697423,-0.009326,0.028911,-0.026247
26311,-4.776433,4.321534,-4.707000,-0.014123,0.037438,-0.013323
26326,-4.771644,4.400543,-4.742914,-0.020518,0.051161,-0.001599
26341,-4.620809,4.472369,-4.733336,-0.008926,0.052227,-0.000799
26356,-4.508282,4.501099,-4.805163,-0.007461,0.032908,-0.005329
26371,-4.589684,4.498705,-4.786009,-0.009859,0.015588,-0.005329
26386,-4.817134,4.398149,-4.888960,-0.022116,0.010392,-0.005596
26401,-4.730942,4.338294,-4.893748,-0.069280,0.009060,0.019985
26416,-4.570531,4.570531,-4.795586,-0.099790,-0.004130,0.034107
26431,-4.647145,4.632780,-4.807557,-0.089665,-0.001599,0.024381
26446,-4.814740,4.568137,-4.867412,-0.067282,0.005862,0.003331
26461,-4.675876,4.584896,-4.766856,-0.042900,0.014789,-0.017853
26476,-4.582502,4.527435,-4.721365,-0.017054,0.021717,-0.032242
26491,-4.632780,4.390966,-4.723760,-0.017720,0.035306,-0.034773
26506,-4.817134,4.218583,-4.831499,-0.038770,0.032242,-0.015721
26521,-4.762067,4.424485,-4.826711,-0.052626,0.031709,-0.003864
26536,-4.632780,4.424485,-4.898537,-0.047963,0.035706,0.003597
26551,-4.776433,4.386178,-4.939238,-0.045165,0.027845,0.004930
26566,-4.750096,4.367024,-4.869806,-0.042234,0.013190,0.004130
26581,-4.802769,4.529830,-4.778827,-0.008527,0.016254,-0.009193
26596,-4.733336,4.520253,-4.826711,0.009726,0.013590,-0.029311
26611,-4.714183,4.402937,-4.970363,0.007461,0.027046,-0.040502
26626,-4.721365,4.436456,-4.982334,0.001732,0.022783,-0.041435
26641,-4.728548,4.412514,-4.989516,-0.006262,0.001199,-0.033974
26656,-4.604050,4.304775,-4.941632,-0.024781,-0.018386,-0.009326
26671,-4.790798,4.276044,-4.874595,-0.032109,-0.027579,0.014789
26686,-4.807557,4.285621,-4.845864,-0.027179,-0.019052,0.033574
26701,-4.666299,4.438850,-4.666299,-0.032642,-0.018519,0.036772
26716,-4.565742,4.604050,-4.716577,-0.035972,-0.003730,0.031709
26731,-4.560954,4.606444,-4.695029,-0.027179,0.001732,0.004130
26746,-4.661510,4.498705,-4.735731,-0.028911,0.001865,-0.013190
26761,-4.673481,4.534618,-4.661510,-0.035573,0.000933,-0.018386
26776,-4.580108,4.544195,-4.601655,-0.018919,-0.010392,-0.029844
26791,-4.527435,4.307169,-4.627992,-0.024248,-0.005063,-0.020917
26806,-4.812346,4.218583,-4.778827,-0.061420,0.000000,0.002531
26821,-4.769250,4.357447,-4.723760,-0.091397,-0.001199,0.020518
26836,-4.702212,4.419696,-4.620809,-0.081271,0.003864,0.018786
26851,-4.771644,4.431667,-4.606444,-0.045299,0.016521,-0.000933
26866,-4.606444,4.534618,-4.656722,-0.005329,0.015455,-0.019185
26881,-4.510676,4.395754,-4.714183,0.003464,-0.000133,-0.026380
26896,-4.683058,4.225766,-4.750096,-0.013856,0.022516,-0.017986
26911,-4.841076,4.338294,-4.747702,-0.033041,0.045832,-0.006262
26926,-4.817134,4.501099,-4.716577,-0.025181,0.051960,-0.013190
26941,-4.675876,4.343082,-4.857835,-0.014389,0.049296,-0.021184
26956,-4.671087,4.331111,-4.932055,-0.022250,0.029844,-0.010259
26971,-4.661510,4.414908,-4.867412,-0.023049,-0.001466,-0.000400
26986,-4.778827,4.438850,-4.924873,-0.023049,-0.009326,0.008926
27001,-4.718971,4.367024,-4.795586,-0.035972,-0.000266,0.018253
27016,-4.805163,4.390966,-4.809951,-0.055424,0.017320,0.023982
27031,-4.793192,4.438850,-4.685452,-0.054625,0.021717,0.018519
27046,-4.721365,4.469975,-4.857835,-0.049296,0.019319,0.002398
27061,-4.558560,4.493917,-4.829105,-0.043300,-0.002265,-0.004796
27076,-4.663905,4.587290,-4.809951,-0.009193,-0.015588,-0.025847
27091,-4.862624,4.544195,-4.821922,0.026113,-0.001066,-0.047031
27106,-4.790798,4.280833,-4.733336,0.015188,0.008926,-0.040369
27121,-4.656722,4.345476,-4.766856,-0.011991,0.021317,-0.027712
27136,-4.654328,4.580108,-4.714183,-0.003864,0.034907,-0.040902
27151,-4.886566,4.407725,-4.805163,0.014123,0.021983,-0.052493
27166,-4.728548,4.118027,-4.865018,-0.025181,0.003864,-0.028911
27181,-4.627992,4.340688,-4.783615,-0.060753,0.021583,0.003064
27196,-4.666299,4.407725,-4.733336,-0.057423,0.016654,0.009326
27211,-4.683058,4.307169,-4.702212,-0.048230,0.015588,0.009060
27226,-4.759673,4.355053,-4.747702,-0.052093,0.024914,0.007461
27241,-4.675876,4.381389,-4.788404,-0.048230,0.029844,0.001998
27256,-4.685452,4.355053,-4.738125,-0.038637,0.030243,0.000133
27271,-4.805163,4.307169,-4.728548,-0.039436,0.016787,0.000133
27286,-4.738125,4.398149,-4.896142,-0.033441,-0.006129,-0.001199
27301,-4.587290,4.493917,-4.802769,-0.018652,-0.003064,-0.010658
27316,-4.721365,4.316746,-4.809951,-0.027446,-0.000133,-0.006662
27331,-4.836287,4.285621,-4.848258,-0.045965,0.019985,0.001998
27346,-4.862624,4.426879,-4.805163,-0.044233,0.024248,-0.002798
27361,-4.692635,4.460398,-4.783615,-0.031043,0.025714,-0.010658
27376,-4.769250,4.400543,-4.735731,-0.007061,0.019052,-0.021184
27391,-4.771644,4.333505,-4.821922,0.003464,0.004796,-0.022250
27406,-4.783615,4.254497,-4.853047,-0.016387,0.002931,0.001332
27421,-4.704606,4.283227,-4.793192,-0.054758,0.006129,0.026646
27436,-4.699818,4.407725,-4.759673,-0.066083,0.011858,0.036772
27451,-4.769250,4.479551,-4.730942,-0.055824,0.023449,0.029844
27466,-4.790798,4.436456,-4.819528,-0.032642,0.015455,0.011325
27481,-4.632780,4.395754,-4.922479,-0.034773,0.004130,0.007861
27496,-4.668693,4.441244,-4.841076,-0.042501,-0.006395,0.005196
27511,-4.819528,4.429273,-4.745308,-0.034374,0.002398,-0.011591
27526,-4.898537,4.340688,-4.608838,-0.027446,0.019718,-0.019185
27541,-4.867412,4.458004,-4.680664,-0.023848,0.049962,-0.030776
27556,-4.697423,4.503493,-4.874595,-0.006129,0.050894,-0.036106
27571,-4.630386,4.347870,-4.898537,0.008127,0.031043,-0.035173
27586,-4.714183,4.118027,-4.884171,-0.025314,-0.003464,-0.010126
27601,-4.620809,4.029441,-4.821922,-0.079539,-0.021717,0.037038
27616,-4.728548,4.264073,-4.953603,-0.104320,-0.017453,0.062352
27631,-4.730942,4.218583,-4.613626,-0.125904,-0.038904,0.093129
27646,-4.745308,4.469975,-4.493917,-0.118043,-0.019319,0.090864
27661,-4.881777,4.606444,-4.623203,-0.071012,0.012923,0.059288
27676,-4.635174,4.759673,-4.699818,-0.020917,0.033574,0.012124
27691,-4.642357,4.422091,-4.795586,-0.002265,0.042900,-0.020518
27706,-4.704606,4.400543,-4.953603,-0.021051,0.020651,-0.024115
27721,-4.616021,4.446033,-4.845864,-0.018119,-0.011591,-0.020784
27736,-4.769250,4.197035,-4.771644,-0.024381,-0.009459,-0.008660
27751,-5.044583,4.192247,-4.759673,-0.043966,0.012257,0.021983
27766,-4.975151,4.359841,-4.836287,-0.047164,0.034507,0.037704
27781,-4.709394,4.589684,-4.745308,-0.030643,0.047297,0.027312
27796,-4.663905,4.627992,-4.836287,-0.001199,0.045432,-0.001332
27811,-4.692635,4.455609,-4.853047,0.007061,0.045165,-0.023982
27826,-4.783615,4.357447,-4.872200,-0.010259,0.020917,-0.019985
27841,-4.740520,4.352659,-4.836287,-0.029044,-0.003597,-0.009193
27856,-4.726154,4.268862,-4.833893,-0.043700,0.003864,0.015188
27871,-4.800375,4.424485,-4.714183,-0.042368,0.005462,0.016387
27886,-4.896142,4.458004,-4.838682,-0.044632,0.002665,0.013190
27901,-4.795586,4.649539,-4.711789,-0.020384,0.008527,-0.010925
27916,-4.718971,4.534618,-4.745308,-0.001332,0.019052,-0.034107
27931,-4.747702,4.462792,-4.853047,-0.006795,0.027179,-0.041435
27946,-4.769250,4.390966,-4.718971,-0.005196,0.010392,-0.039303
27961,-4.661510,4.326323,-4.716577,-0.020651,0.007594,-0.023182
27976,-4.654328,4.307169,-4.807557,-0.046897,0.002531,-0.000799
27991,-4.745308,4.426879,-4.728548,-0.054625,-0.004530,0.015188
28006,-4.876989,4.419696,-4.757279,-0.042501,0.011458,0.009726
28021,-4.730942,4.481946,-4.709394,-0.037172,0.021184,0.002265
28036,-4.754885,4.525041,-4.771644,-0.020651,0.027845,-0.011991
28051,-4.766856,4.381389,-4.774038,-0.009459,0.025714,-0.019452
28066,-4.853047,4.259285,-4.702212,-0.010392,0.016387,-0.008394
28081,-4.757279,4.256891,-4.695029,-0.037305,0.014789,0.018919
28096,-4.604050,4.264073,-4.752491,-0.074876,0.002265,0.047963
28111,-4.714183,4.486734,-4.754885,-0.081538,-0.005063,0.046631
28126,-4.740520,4.560954,-4.862624,-0.061286,-0.010126,0.024381
28141,-4.721365,4.479551,-4.735731,-0.042368,-0.000266,0.000933
28156,-4.697423,4.378995,-4.718971,-0.033041,0.008127,-0.009193
28171,-4.690241,4.364630,-4.556166,-0.025980,0.011591,-0.002265
28186,-4.860229,4.235343,-4.529830,-0.025047,0.031842,0.007861
28201,-4.774038,4.381389,-4.723760,-0.025047,0.048230,0.009726
28216,-4.654328,4.369418,-4.704606,-0.030910,0.047697,0.010658
28231,-4.735731,4.431667,-4.924873,-0.028911,0.041302,0.002931
28246,-4.754885,4.481946,-4.848258,-0.009593,0.015188,-0.003997
28261,-4.735731,4.343082,-4.781221,0.000400,0.000266,-0.006662
28276,-4.771644,4.297592,-4.759673,-0.005995,0.002398,0.007328
28291,-4.841076,4.216189,-4.726154,-0.036372,0.024648,0.035573
28306,-4.886566,4.436456,-4.783615,-0.046764,0.036239,0.042634
28321,-4.733336,4.599261,-4.742914,-0.030776,0.046498,0.018253
28336,-4.596867,4.750096,-4.790798,-0.002398,0.044233,-0.016920
28351,-4.644751,4.532224,-4.874595,0.018253,0.017054,-0.040236
28366,-4.807557,4.328717,-4.915296,0.012124,0.005196,-0.036239
28381,-4.759673,4.194641,-4.778827,-0.019452,-0.005462,-0.011458
28396,-4.788404,4.218583,-4.766856,-0.060753,0.004530,0.020784
28411,-4.752491,4.400543,-4.752491,-0.076075,0.023449,0.034240
28426,-4.814740,4.525041,-4.718971,-0.049962,0.015322,0.014922
28441,-4.797980,4.541800,-4.764462,-0.019452,0.006795,-0.007461
28456,-4.714183,4.441244,-4.752491,-0.008394,0.011591,-0.019585
28471,-4.812346,4.412514,-4.833893,0.000400,0.018119,-0.023582
28486,-4.900931,4.235343,-4.845864,-0.001466,0.026913,-0.017453
28501,-4.850653,4.252102,-4.888960,-0.028511,0.030377,-0.000266
28516,-4.611232,4.338294,-4.915296,-0.060221,0.017054,0.019452
28531,-4.656722,4.410120,-4.872200,-0.086334,-0.011191,0.034374
