T,AX,AY,AZ,GX,GY,GZ
46,-5.930438,2.990358,-4.489128,-0.038770,0.014522,0.011325
61,-5.944803,2.983175,-4.553771,-0.030643,0.018652,0.009193
76,-6.045359,2.947262,-4.608838,-0.029711,0.014789,0.000133
91,-6.035782,2.892196,-4.553771,-0.030243,0.017187,-0.000799
106,-5.908890,2.882619,-4.596867,-0.035573,0.013323,0.002398
121,-5.961562,2.877831,-4.570531,-0.032242,0.013989,0.005729
136,-6.047753,2.918532,-4.599261,-0.031309,0.017720,0.000133
151,-5.971139,2.875436,-4.596867,-0.033974,0.009859,-0.001865
166,-5.923255,2.906561,-4.565742,-0.031975,0.012124,-0.000799
181,-5.961562,2.937685,-4.498705,-0.034107,0.011325,0.000666
196,-5.992687,2.923320,-4.515464,-0.030776,0.015721,0.001998
211,-5.995081,2.975993,-4.522647,-0.031576,0.016121,-0.000933
226,-5.889736,2.913743,-4.582502,-0.034107,0.015188,0.005995
241,-6.007052,2.832340,-4.642357,-0.038504,0.009326,0.006795
256,-6.030994,2.861071,-4.541800,-0.037305,0.010126,0.011458
271,-6.007052,2.894590,-4.498705,-0.033574,0.014655,0.008260
286,-5.803545,2.978387,-4.546589,-0.034507,0.010259,0.004263
301,-5.961562,2.928109,-4.627992,-0.026913,0.015455,0.001732
316,-6.098032,2.827552,-4.525041,-0.030776,0.017587,0.000799
331,-5.983110,2.937685,-4.627992,-0.030776,0.021583,0.004263
346,-5.894525,2.911349,-4.589684,-0.033308,0.016920,0.005862
361,-5.963956,2.815581,-4.556166,-0.031176,0.013456,0.004796
376,-6.040571,2.870648,-4.563348,-0.031576,0.013590,0.004930
391,-5.978322,2.987964,-4.503493,-0.027446,0.011591,0.001732
406,-5.925649,2.930503,-4.484340,-0.021717,0.006928,-0.001066
421,-5.973533,2.839523,-4.587290,-0.026113,0.015988,0.003730
436,-6.107608,2.803610,-4.525041,-0.033175,0.015988,0.008793
451,-5.983110,2.873042,-4.551377,-0.036239,0.015322,0.008394
466,-5.916072,2.990358,-4.496311,-0.037704,0.020384,0.007061
481,-5.935226,2.904167,-4.596867,-0.035040,0.018786,0.008260
496,-5.999869,2.954445,-4.565742,-0.030110,0.011058,0.005063
511,-5.980716,2.999935,-4.429273,-0.029844,0.014522,0.001599
526,-5.954380,2.956839,-4.582502,-0.029577,0.013456,0.001066
541,-5.968745,2.920926,-4.458004,-0.030110,0.017587,0.003864
556,-6.045359,2.896984,-4.563348,-0.030377,0.017453,-0.001332
571,-6.009446,2.856282,-4.577713,-0.028911,0.012657,-0.002132
586,-5.959168,2.889802,-4.575319,-0.029844,0.013989,-0.004796
601,-5.956774,2.743755,-4.654328,-0.026779,0.008527,-0.003730
616,-6.069301,2.827552,-4.635174,-0.031043,0.017720,-0.007461
631,-6.035782,2.827552,-4.611232,-0.033175,0.019851,-0.006662
646,-5.935226,2.882619,-4.577713,-0.035839,0.030243,-0.000933
661,-6.004658,2.856282,-4.584896,-0.038104,0.028245,0.003464
676,-6.078878,2.978387,-4.556166,-0.038637,0.021450,0.007861
691,-5.908890,3.019088,-4.508282,-0.029577,0.022783,0.003730
706,-5.844246,3.004723,-4.589684,-0.025980,0.021317,-0.003198
721,-5.990293,2.889802,-4.565742,-0.029711,0.010925,0.000533
736,-6.026206,2.932897,-4.572925,-0.030910,0.012524,0.006262
751,-5.956774,2.961627,-4.577713,-0.026380,0.015988,0.004663
766,-5.930438,2.935291,-4.467580,-0.022783,0.011058,-0.001998
781,-6.021417,2.870648,-4.546589,-0.021450,0.018386,-0.001466
796,-6.035782,2.774880,-4.601655,-0.023049,0.014123,-0.005596
811,-5.961562,2.825158,-4.544195,-0.025181,0.022783,-0.000400
826,-5.906496,2.849100,-4.613626,-0.033441,0.011991,0.007994
841,-5.968745,2.837129,-4.575319,-0.033841,0.014389,0.005596
856,-6.023811,2.839523,-4.548983,-0.031975,0.016787,0.005462
871,-5.949591,2.916138,-4.515464,-0.033175,0.015988,0.007194
886,-5.856217,2.844311,-4.558560,-0.037305,0.004796,0.011191
901,-5.942409,2.868254,-4.584896,-0.037038,0.011858,0.007727
916,-6.042965,2.940080,-4.544195,-0.037838,0.011191,0.010126
931,-5.923255,2.975993,-4.594473,-0.035040,0.016920,0.003597
946,-5.865794,2.949656,-4.503493,-0.034107,0.017187,0.005862
961,-5.944803,2.856282,-4.671087,-0.034240,0.015588,0.008127
976,-6.035782,2.832340,-4.467580,-0.035040,0.010525,0.007461
991,-5.968745,2.885013,-4.587290,-0.027312,0.013989,0.003331
1006,-5.923255,2.944868,-4.582502,-0.023049,0.011991,0.001998
1021,-5.930438,2.822764,-4.620809,-0.027046,0.013190,0.004397
1036,-5.999869,2.791639,-4.489128,-0.031443,0.014256,0.006129
1051,-6.009446,2.894590,-4.659116,-0.028645,0.019585,0.007594
1066,-5.920861,2.980781,-4.577713,-0.031443,0.016387,0.007194
1081,-5.961562,2.851494,-4.630386,-0.034773,0.021983,0.003730
1096,-6.040571,2.916138,-4.539406,-0.031842,0.016387,0.000133
1111,-5.925649,2.885013,-4.508282,-0.034374,0.013723,-0.001066
1126,-5.959168,2.973598,-4.613626,-0.030377,0.015055,0.000400
1141,-5.901707,2.906561,-4.551377,-0.031842,0.016787,-0.000266
1156,-6.047753,2.870648,-4.546589,-0.032109,0.013989,0.003597
1171,-5.947197,2.971204,-4.477157,-0.034507,0.017720,0.003464
1186,-5.856217,2.995146,-4.527435,-0.025314,0.013590,0.000933
1201,-5.940014,2.786851,-4.594473,-0.022916,0.010525,-0.000266
1216,-6.138733,2.736573,-4.601655,-0.027845,0.016920,0.005596
1231,-5.949591,2.791639,-4.556166,-0.033974,0.004397,0.016787
1246,-5.894525,2.813187,-4.529830,-0.030510,0.020251,0.007994
1261,-6.004658,2.822764,-4.544195,-0.029311,0.012257,0.003864
1276,-6.066907,2.834735,-4.522647,-0.030643,0.018119,0.004530
1291,-5.947197,2.911349,-4.462792,-0.033708,0.019718,0.007994
1306,-5.916072,2.861071,-4.429273,-0.043433,0.009726,0.015721
1321,-5.949591,3.117250,-4.486734,-0.032908,0.033175,-0.003730
1336,-5.995081,2.937685,-4.606444,-0.025980,0.001599,-0.009726
1351,-6.011840,2.822764,-4.498705,-0.027046,0.015455,-0.002931
1366,-5.954380,2.918532,-4.508282,-0.025847,0.017720,-0.003064
1381,-5.997475,2.837129,-4.544195,-0.032508,0.015988,0.000666
1396,-6.086061,2.791639,-4.659116,-0.029444,0.017320,0.006129
1411,-6.064513,2.841917,-4.513070,-0.033708,0.015988,0.009193
1426,-5.913678,2.908955,-4.489128,-0.032109,0.012391,0.008527
1441,-5.853823,2.944868,-4.639963,-0.031443,0.013456,0.005329
1456,-6.030994,2.875436,-4.548983,-0.030776,0.016121,0.006928
1471,-5.980716,2.928109,-4.541800,-0.029311,0.016121,0.003331
1486,-5.882554,2.916138,-4.601655,-0.028778,0.013190,0.003464
1501,-5.987898,2.935291,-4.481946,-0.028911,0.016521,0.003730
1516,-6.019023,2.853888,-4.551377,-0.032242,0.009326,0.004930
1531,-5.971139,2.916138,-4.541800,-0.026646,0.016787,-0.000133
1546,-5.849035,2.901772,-4.556166,-0.027446,0.014655,-0.001066
1561,-5.937620,2.777274,-4.572925,-0.025847,0.015322,-0.001599
1576,-6.057330,2.896984,-4.575319,-0.027579,0.017720,-0.005596
1591,-5.951985,2.863465,-4.534618,-0.029711,0.012124,0.000266
1606,-5.901707,2.885013,-4.556166,-0.030643,0.018652,0.005729
1621,-5.963956,2.889802,-4.580108,-0.031842,0.008527,0.005995
1636,-6.059724,2.892196,-4.498705,-0.030643,0.010259,0.007061
1651,-5.923255,2.839523,-4.498705,-0.029844,0.007061,0.004397
1666,-5.937620,2.889802,-4.570531,-0.030643,0.010792,0.005596
1681,-5.961562,2.827552,-4.647145,-0.036772,0.009459,0.011325
1696,-6.042965,2.911349,-4.570531,-0.037838,0.017187,0.009060
1711,-5.918467,2.987964,-4.671087,-0.027446,0.011591,-0.003064
1726,-6.028600,2.904167,-4.589684,-0.028245,0.016121,-0.001466
1741,-6.088455,2.822764,-4.503493,-0.029178,0.011458,0.000533
1756,-5.916072,2.925714,-4.580108,-0.034773,0.014655,0.003464
1771,-5.947197,2.841917,-4.608838,-0.035706,0.010259,0.008260
1786,-6.042965,2.882619,-4.558560,-0.038504,0.008926,0.012657
1801,-6.023811,2.930503,-4.532224,-0.035972,0.016654,0.014522
1816,-5.875371,2.966416,-4.529830,-0.033441,0.015855,0.011458
1831,-5.940014,2.937685,-4.477157,-0.029444,0.018652,0.000533
1846,-6.033388,2.870648,-4.525041,-0.029178,0.011724,-0.001066
1861,-6.035782,2.851494,-4.517859,-0.023982,0.012391,-0.002931
1876,-5.911284,2.863465,-4.570531,-0.028645,0.013323,-0.005596
1891,-5.801151,2.849100,-4.656722,-0.027312,0.011458,-0.001199
1906,-6.002264,2.736573,-4.644751,-0.027312,0.010792,-0.001199
1921,-5.956774,2.755726,-4.594473,-0.028112,0.021317,0.002132
1936,-5.944803,2.808398,-4.599261,-0.041035,0.017320,0.019319
1951,-6.126762,3.421314,-4.443638,-0.046897,0.049029,0.016521
1966,-5.743690,3.169923,-4.508282,-0.023982,-0.008926,0.003331
1981,-5.992687,2.853888,-4.513070,-0.008660,0.019851,-0.017853
1996,-6.121974,2.810793,-4.644751,-0.013856,0.006795,-0.013590
2011,-5.760449,2.679112,-4.601655,-0.033708,0.010259,0.006795
2026,-6.050148,2.779668,-4.477157,-0.025447,0.018253,-0.002398
2041,-6.016629,2.679112,-4.651934,-0.043966,0.010259,0.011458
2056,-5.896919,2.899378,-4.642357,-0.047031,0.013856,0.012391
2071,-5.853823,3.047819,-4.541800,-0.035040,0.008527,0.004130
2086,-6.042965,2.966416,-4.611232,-0.027179,0.009459,0.002132
2101,-6.069301,2.923320,-4.525041,-0.024381,0.007061,0.000133
2116,-5.870583,2.935291,-4.594473,-0.023848,0.018919,0.003464
2131,-6.045359,2.877831,-4.551377,-0.031975,0.025447,0.005596
2146,-5.829881,2.889802,-4.544195,-0.029711,0.023182,0.000266
2161,-6.093243,2.825158,-4.647145,-0.031309,0.023449,0.001732
2176,-5.882554,2.911349,-4.529830,-0.029444,0.020917,0.004130
2191,-5.954380,2.911349,-4.520253,-0.027312,0.021850,0.006129
2206,-5.942409,2.873042,-4.589684,-0.035173,0.010658,0.014789
2221,-6.081272,3.057395,-4.417302,-0.035440,0.014123,0.010126
2236,-5.870583,2.944868,-4.462792,-0.020651,0.014256,-0.005063
2251,-5.975927,2.758120,-4.498705,-0.017853,0.001199,-0.002398
2266,-6.133945,2.628834,-4.601655,-0.025314,0.020784,-0.000533
2281,-5.995081,2.813187,-4.582502,-0.031975,0.013456,0.004663
2296,-5.894525,2.616862,-4.551377,-0.057556,0.017986,0.026113
2311,-5.942409,3.076549,-4.496311,-0.037438,0.052626,0.003198
2326,-5.940014,3.114856,-4.599261,-0.019319,0.018386,-0.015721
2341,-5.951985,2.662352,-4.489128,-0.020784,0.011058,-0.001865
2356,-5.987898,2.729390,-4.556166,-0.034240,0.010925,0.013190
2371,-5.875371,2.928109,-4.537012,-0.028378,0.007727,0.006129
2386,-5.992687,2.858677,-4.627992,-0.025314,0.010792,-0.000799
2401,-6.062119,2.832340,-4.477157,-0.030910,0.011991,0.000400
2416,-5.963956,2.832340,-4.551377,-0.029977,0.025181,-0.002265
2431,-5.963956,2.856282,-4.620809,-0.030643,0.015988,0.005196
2446,-6.042965,2.832340,-4.537012,-0.040236,0.013590,0.013590
2461,-6.028600,3.014300,-4.606444,-0.035573,0.020251,0.008127
2476,-5.882554,3.004723,-4.558560,-0.022649,0.009593,-0.000799
2491,-5.913678,2.789245,-4.608838,-0.026513,0.007594,0.001332
2506,-6.098032,2.817975,-4.525041,-0.041168,0.007994,0.012391
2521,-5.999869,2.990358,-4.522647,-0.028112,0.011991,-0.004796
2536,-5.853823,2.916138,-4.580108,-0.021850,0.005196,-0.003864
2551,-5.975927,2.700660,-4.556166,-0.033708,0.009459,0.006528
2566,-6.040571,2.817975,-4.520253,-0.041568,0.026513,0.011058
2581,-6.069301,2.896984,-4.510676,-0.035573,0.007061,0.007861
2596,-5.916072,2.935291,-4.517859,-0.035573,0.020251,0.012657
2611,-5.882554,3.050213,-4.544195,-0.025314,0.021184,-0.003597
2626,-6.050148,2.863465,-4.608838,-0.015188,0.007061,-0.013590
2641,-6.074090,2.738967,-4.599261,-0.025980,0.007461,0.004663
2656,-5.918467,2.801216,-4.587290,-0.033308,0.008660,0.008127
2671,-5.923255,2.913743,-4.584896,-0.032908,0.011191,0.006662
2686,-5.997475,2.762909,-4.544195,-0.036372,0.009992,0.006528
2701,-5.980716,2.947262,-4.544195,-0.037438,0.017720,0.007194
2716,-5.887342,2.959233,-4.477157,-0.027979,0.014655,0.002132
2731,-5.918467,2.911349,-4.541800,-0.025181,0.021717,-0.001332
2746,-5.983110,2.877831,-4.481946,-0.023582,0.015588,-0.002931
2761,-6.064513,2.870648,-4.479551,-0.022916,0.015455,-0.002265
2776,-5.942409,2.861071,-4.503493,-0.030776,0.012923,0.005729
2791,-5.875371,2.832340,-4.606444,-0.034107,0.008127,0.015588
2806,-6.057330,2.892196,-4.601655,-0.034240,0.015455,0.013456
2821,-6.074090,2.923320,-4.592079,-0.027179,0.006795,0.008660
2836,-5.971139,2.849100,-4.529830,-0.027845,0.006395,0.000533
2851,-5.904101,2.889802,-4.544195,-0.029178,0.005995,0.004397
2866,-6.064513,2.784456,-4.601655,-0.031842,0.016654,0.006129
2881,-6.081272,2.894590,-4.515464,-0.035173,0.016387,0.005995
2896,-5.858612,2.999935,-4.551377,-0.032109,0.019851,0.003464
2911,-5.892130,2.916138,-4.508282,-0.028778,0.017986,-0.000266
2926,-5.963956,2.817975,-4.477157,-0.024781,0.014123,-0.001732
2941,-6.042965,2.849100,-4.505888,-0.026513,0.015721,0.001332
2956,-5.942409,2.870648,-4.539406,-0.033841,0.005862,0.002798
2971,-5.920861,2.880225,-4.534618,-0.033841,0.011325,0.012923
2986,-6.102820,2.875436,-4.630386,-0.033841,0.013057,0.007594
3001,-6.014235,2.932897,-4.644751,-0.027579,0.015188,0.003597
3016,-5.954380,2.820369,-4.484340,-0.032775,0.012790,0.005596
3031,-5.923255,2.880225,-4.551377,-0.037838,0.018786,0.008926
3046,-6.076484,2.839523,-4.582502,-0.032908,0.019452,0.008394
3061,-6.019023,2.863465,-4.539406,-0.033974,0.015455,0.003464
3076,-5.935226,2.997540,-4.534618,-0.030110,0.017587,-0.001332
3091,-5.853823,2.851494,-4.510676,-0.029044,0.011191,-0.002132
3106,-6.028600,2.827552,-4.544195,-0.030643,0.016521,0.006129
3121,-6.030994,2.841917,-4.491522,-0.031043,0.011325,0.004130
3136,-5.963956,2.956839,-4.474763,-0.028245,0.014389,-0.000266
3151,-5.923255,2.844311,-4.541800,-0.033574,0.015855,0.007727
3166,-5.995081,2.834735,-4.580108,-0.037438,0.020118,0.009859
3181,-5.997475,2.896984,-4.534618,-0.029444,0.017054,0.001732
3196,-5.949591,2.911349,-4.534618,-0.024515,0.017720,-0.000266
3211,-5.925649,2.834735,-4.599261,-0.020651,0.022383,-0.005462
3226,-6.011840,2.803610,-4.556166,-0.031309,0.009992,0.003997
3241,-6.021417,2.779668,-4.525041,-0.037571,0.012124,0.010925
3256,-5.966351,2.999935,-4.565742,-0.040236,0.015588,0.010792
3271,-5.908890,2.937685,-4.560954,-0.031975,0.012524,0.007194
3286,-6.019023,2.889802,-4.577713,-0.029044,0.013590,0.000933
3301,-6.047753,2.808398,-4.525041,-0.029711,0.015188,-0.000400
3316,-5.930438,2.810793,-4.515464,-0.029577,0.016254,0.002531
3331,-5.880159,2.815581,-4.551377,-0.038637,0.019052,0.008127
3346,-6.011840,2.899378,-4.589684,-0.037571,0.019718,0.007194
3361,-5.983110,2.983175,-4.529830,-0.033708,0.018119,-0.000533
3376,-5.920861,2.956839,-4.570531,-0.023715,0.022383,-0.010126
3391,-5.944803,2.928109,-4.604050,-0.015855,0.018652,-0.011191
3406,-6.078878,2.808398,-4.484340,-0.020784,0.018386,-0.005462
3421,-6.014235,2.755726,-4.582502,-0.026113,0.012790,0.002265
3436,-5.940014,2.846706,-4.649539,-0.037438,0.009593,0.013190
3451,-5.944803,2.942474,-4.491522,-0.033841,0.015455,0.009060
3466,-6.083666,2.916138,-4.515464,-0.030243,0.017720,0.002398
3481,-6.011840,2.820369,-4.527435,-0.023182,0.025181,-0.003198
3496,-5.997475,2.973598,-4.525041,-0.016121,0.027046,-0.007594
3511,-5.839458,2.973598,-4.565742,-0.009992,0.021717,-0.014389
3526,-5.990293,2.964022,-4.613626,-0.001998,0.021717,-0.017187
3541,-5.971139,2.892196,-4.651934,-0.004397,0.017054,-0.016521
3556,-5.834670,2.882619,-4.553771,-0.004263,0.017986,-0.015322
3571,-5.906496,2.798822,-4.647145,-0.011858,0.006528,-0.004930
3586,-6.090849,2.782062,-4.587290,-0.018253,0.013190,0.004530
3601,-6.069301,2.762909,-4.546589,-0.021450,0.012524,0.013057
3616,-5.932832,2.851494,-4.496311,-0.025580,0.010126,0.017054
3631,-5.949591,2.980781,-4.537012,-0.017853,0.007727,0.008660
3646,-5.930438,2.631228,-4.462792,-0.025181,0.009593,0.011591
3661,-6.119579,2.889802,-4.608838,-0.018786,0.033974,-0.003864
3676,-5.887342,2.906561,-4.553771,-0.016521,0.004130,-0.005329
3691,-5.920861,2.832340,-4.496311,-0.007727,0.019718,-0.008793
3706,-6.078878,2.748544,-4.623203,-0.020384,0.004663,-0.002665
3721,-5.985504,2.746149,-4.486734,-0.020251,0.020251,0.001199
3736,-6.014235,2.779668,-4.675876,-0.028911,0.011058,0.010525
3751,-5.896919,2.813187,-4.551377,-0.031842,0.013057,0.007328
3766,-6.100426,2.827552,-4.532224,-0.031176,0.018253,-0.000799
3781,-6.019023,2.748544,-4.520253,-0.032642,0.017853,-0.001732
3796,-5.944803,2.813187,-4.580108,-0.030776,0.018519,-0.000666
3811,-5.911284,2.777274,-4.611232,-0.044632,0.021317,0.000400
3826,-5.971139,2.837129,-4.546589,-0.029711,0.017320,-0.000400
3841,-6.054936,2.964022,-4.544195,-0.022250,0.027312,-0.001998
3856,-5.858612,2.925714,-4.544195,-0.019452,0.012391,-0.007061
3871,-5.944803,2.767697,-4.596867,-0.022383,0.014522,-0.000400
3886,-6.040571,2.631228,-4.584896,-0.024781,0.012524,0.003331
3901,-6.045359,2.779668,-4.548983,-0.032375,0.016920,0.006528
3916,-5.963956,2.844311,-4.623203,-0.032642,0.015188,0.004530
3931,-5.930438,2.906561,-4.520253,-0.028645,0.021317,0.002931
3946,-5.975927,2.935291,-4.529830,-0.014389,0.016521,-0.012524
3961,-6.019023,2.880225,-4.529830,-0.008394,0.015988,-0.018652
3976,-5.937620,2.856282,-4.582502,-0.005063,0.017986,-0.023582
3991,-5.975927,2.679112,-4.606444,-0.019319,0.018919,-0.007994
4006,-6.016629,2.762909,-4.639963,-0.030377,0.020784,0.005596
4021,-5.963956,2.753332,-4.486734,-0.036372,0.019052,0.006795
4036,-5.956774,2.868254,-4.618415,-0.032908,0.016787,0.009459
4051,-5.935226,2.889802,-4.546589,-0.030377,0.019052,0.001865
4066,-5.978322,2.822764,-4.527435,-0.023848,0.008926,-0.000933
4081,-6.023811,2.765303,-4.721365,-0.030377,0.008793,-0.001865
4096,-5.942409,2.762909,-4.534618,-0.029311,0.009193,-0.000933
4111,-5.963956,2.839523,-4.589684,-0.034773,0.014655,-0.002265
4126,-6.074090,2.691083,-4.582502,-0.034240,0.019052,0.000133
4141,-6.038177,2.724602,-4.659116,-0.047830,0.013190,0.012657
4156,-5.999869,2.839523,-4.601655,-0.048496,0.021583,0.020784
4171,-5.892130,2.935291,-4.450821,-0.042368,0.013456,0.016787
4186,-5.980716,2.841917,-4.611232,-0.035306,0.012524,0.011591
4201,-6.035782,2.829946,-4.570531,-0.037172,0.011058,0.009459
4216,-5.853823,2.841917,-4.570531,-0.032109,0.005995,0.008394
4231,-5.913678,2.760514,-4.599261,-0.036239,0.012790,0.006795
4246,-6.038177,2.695871,-4.616021,-0.034907,0.007194,0.007594
4261,-6.021417,2.729390,-4.551377,-0.041968,0.012391,0.012124
4276,-5.971139,2.822764,-4.584896,-0.040636,0.015988,0.009726
4291,-5.966351,2.820369,-4.515464,-0.040902,0.020118,0.004796
4306,-5.992687,2.755726,-4.572925,-0.045165,0.021450,0.007861
4321,-6.009446,2.782062,-4.596867,-0.041968,0.019718,0.006928
4336,-5.849035,2.825158,-4.627992,-0.041168,0.009593,0.005329
4351,-5.913678,2.834735,-4.546589,-0.044366,0.009859,0.011858
4366,-6.057330,2.782062,-4.587290,-0.046764,0.009326,0.016787
4381,-6.002264,2.846706,-4.508282,-0.043300,0.016787,0.008660
4396,-5.920861,2.875436,-4.525041,-0.040502,0.013590,0.005729
4411,-5.949591,2.803610,-4.525041,-0.043966,0.015455,0.008394
4426,-6.095637,2.796427,-4.558560,-0.043567,0.019985,0.013057
4441,-5.944803,2.849100,-4.553771,-0.044366,0.016521,0.011458
4456,-5.925649,2.873042,-4.541800,-0.043034,0.010126,0.013190
4471,-5.880159,2.832340,-4.575319,-0.043833,0.015188,0.005995
4486,-6.038177,2.892196,-4.651934,-0.044766,0.013456,0.003864
4501,-5.978322,2.822764,-4.570531,-0.042101,0.012124,0.001865
4516,-5.918467,2.875436,-4.491522,-0.040369,0.016121,0.003064
4531,-5.930438,2.815581,-4.627992,-0.039836,0.011858,0.006395
4546,-6.026206,2.837129,-4.608838,-0.036372,0.012790,0.005196
4561,-6.117185,2.885013,-4.546589,-0.037571,0.020251,0.007061
4576,-5.877765,2.940080,-4.625597,-0.036905,0.019052,0.006262
4591,-5.944803,2.841917,-4.592079,-0.034773,0.021051,0.001466
4606,-5.959168,2.880225,-4.606444,-0.032375,0.017720,0.008394
4621,-6.086061,2.834735,-4.570531,-0.037038,0.021583,0.010658
4636,-5.853823,2.985569,-4.592079,-0.036106,0.010392,0.015588
4651,-5.935226,2.944868,-4.560954,-0.030910,0.015588,0.001732
4666,-6.016629,2.856282,-4.625597,-0.024381,0.007727,0.000133
4681,-6.011840,2.750938,-4.548983,-0.023982,0.008260,-0.004397
4696,-5.937620,2.777274,-4.623203,-0.029311,0.009193,-0.002398
4711,-5.913678,2.762909,-4.651934,-0.033974,0.009060,0.000133
4726,-6.074090,2.750938,-4.604050,-0.038504,0.017986,0.002265
4741,-6.014235,2.834735,-4.551377,-0.043433,0.015322,0.007861
4756,-5.889736,2.935291,-4.673481,-0.044899,0.017320,0.015055
4771,-5.951985,3.023877,-4.563348,-0.035839,0.021450,0.015721
4786,-5.961562,2.928109,-4.551377,-0.026646,0.013323,0.004930
4801,-5.992687,2.829946,-4.606444,-0.022783,0.010392,-0.005063
4816,-5.951985,2.782062,-4.599261,-0.025580,0.006528,0.000133
4831,-6.014235,2.726996,-4.568137,-0.037571,0.006928,0.010126
4846,-6.093243,2.726996,-4.601655,-0.046498,0.005196,0.021450
4861,-6.019023,2.980781,-4.529830,-0.044499,0.014389,0.017853
4876,-5.858612,2.990358,-4.565742,-0.032109,0.014922,0.009459
4891,-5.913678,2.956839,-4.529830,-0.028511,0.017853,0.002531
4906,-6.088455,2.743755,-4.575319,-0.027712,0.016121,-0.001199
4921,-6.095637,2.806004,-4.548983,-0.028645,0.009593,0.001998
4936,-5.884948,2.873042,-4.596867,-0.030377,0.011058,0.001199
4951,-5.947197,2.877831,-4.599261,-0.031176,0.011458,-0.000799
4966,-6.076484,2.801216,-4.534618,-0.034374,0.018253,0.002265
4981,-6.045359,2.822764,-4.496311,-0.035839,0.015322,0.002665
4996,-5.975927,2.896984,-4.537012,-0.035040,0.016787,0.001332
5011,-5.973533,2.961627,-4.563348,-0.035839,0.011191,0.004796
5026,-6.045359,2.889802,-4.560954,-0.034240,0.007061,0.004663
5041,-5.951985,2.961627,-4.608838,-0.033841,0.010525,0.007594
5056,-5.916072,2.911349,-4.517859,-0.026913,0.013590,0.009726
5071,-5.971139,2.851494,-4.642357,-0.029711,0.020651,0.009193
5086,-6.107608,2.808398,-4.520253,-0.029844,0.020118,0.008527
5101,-6.019023,2.810793,-4.606444,-0.029844,0.015055,0.008660
5116,-5.997475,2.774880,-4.510676,-0.028511,0.013856,0.003730
5131,-5.983110,2.801216,-4.627992,-0.034507,0.009992,-0.001066
5146,-5.937620,2.827552,-4.551377,-0.036372,0.014389,-0.001199
5161,-5.935226,2.837129,-4.565742,-0.041568,0.008260,0.004130
5176,-5.980716,2.851494,-4.592079,-0.044366,0.015188,0.007061
5191,-6.057330,2.873042,-4.568137,-0.043833,0.015588,0.014256
5206,-5.963956,2.873042,-4.541800,-0.047697,0.021051,0.013590
5221,-5.978322,2.966416,-4.532224,-0.038371,0.016387,0.009060
5236,-5.942409,2.978387,-4.584896,-0.029444,0.015855,0.001066
5251,-6.050148,2.944868,-4.498705,-0.021051,0.011325,-0.004397
5266,-5.961562,2.882619,-4.556166,-0.026779,0.010925,0.004663
5281,-5.829881,2.767697,-4.520253,-0.027979,0.008527,0.003597
5296,-6.052542,2.832340,-4.611232,-0.032775,0.016787,0.004663
5311,-5.999869,2.777274,-4.472369,-0.038104,0.010792,0.017187
5326,-5.987898,2.954445,-4.529830,-0.039436,0.018386,0.015188
5341,-5.923255,3.023877,-4.649539,-0.033974,0.014389,0.011191
5356,-5.966351,2.911349,-4.563348,-0.024381,0.015322,0.002798
5371,-6.040571,2.908955,-4.570531,-0.020917,0.015322,-0.002798
5386,-5.978322,2.837129,-4.673481,-0.020917,0.012790,-0.002931
5401,-5.932832,2.736573,-4.630386,-0.027979,0.019985,-0.000133
5416,-6.059724,2.794033,-4.685452,-0.033308,0.016521,0.002132
5431,-6.069301,2.829946,-4.570531,-0.037571,0.018519,0.000666
5446,-5.999869,2.925714,-4.508282,-0.037305,0.017986,0.003064
5461,-5.904101,2.920926,-4.580108,-0.033841,0.007861,0.001998
5476,-6.009446,2.911349,-4.503493,-0.029178,0.010658,0.006395
5491,-6.035782,2.935291,-4.616021,-0.024781,0.014123,0.004930
5506,-5.973533,2.896984,-4.556166,-0.024781,0.015188,0.000533
5521,-5.861006,2.832340,-4.496311,-0.030910,0.008527,0.004530
5536,-6.074090,2.815581,-4.541800,-0.030643,0.013989,0.004397
5551,-6.074090,2.791639,-4.534618,-0.030243,0.011458,0.005729
5566,-5.913678,2.940080,-4.635174,-0.029844,0.016387,0.005462
5581,-5.911284,2.894590,-4.486734,-0.029577,0.018386,0.000400
5596,-5.987898,2.856282,-4.601655,-0.027712,0.021184,-0.000533
5611,-6.059724,2.837129,-4.532224,-0.031709,0.019985,0.007861
5626,-5.963956,2.882619,-4.606444,-0.032109,0.020518,0.009593
5641,-5.930438,2.920926,-4.481946,-0.032775,0.012923,0.010126
5656,-6.016629,2.863465,-4.481946,-0.031576,0.014522,0.007328
5671,-6.057330,2.894590,-4.551377,-0.026646,0.015588,0.000000
5686,-5.954380,2.959233,-4.481946,-0.024914,0.009593,-0.003064
5701,-5.942409,2.865859,-4.563348,-0.021317,0.020651,-0.004796
5716,-5.954380,2.858677,-4.592079,-0.029311,0.019052,0.003464
5731,-6.059724,2.837129,-4.501099,-0.032109,0.015188,0.008926
5746,-5.999869,2.901772,-4.623203,-0.032508,0.020118,0.004663
5761,-5.904101,2.885013,-4.510676,-0.027712,0.012524,-0.001599
5776,-6.038177,2.829946,-4.508282,-0.027446,0.009193,0.001732
5791,-6.011840,2.798822,-4.594473,-0.026513,0.010525,0.000133
5806,-5.947197,2.820369,-4.525041,-0.028112,0.011325,0.000933
5821,-5.971139,2.920926,-4.522647,-0.031309,0.018919,0.001199
5836,-6.071695,2.839523,-4.613626,-0.027446,0.024381,-0.000266
5851,-6.081272,2.772485,-4.582502,-0.030910,0.026779,0.002931
5866,-5.930438,2.861071,-4.580108,-0.033974,0.013323,0.010259
5881,-5.944803,2.916138,-4.541800,-0.031975,0.014256,0.010792
5896,-5.944803,2.885013,-4.582502,-0.028911,0.011991,0.003997
5911,-6.057330,2.810793,-4.584896,-0.025980,0.015055,-0.000666
5926,-5.983110,2.822764,-4.484340,-0.030243,0.012124,0.001199
5941,-5.930438,2.801216,-4.537012,-0.033441,0.018652,0.002265
5956,-6.081272,2.885013,-4.606444,-0.038237,0.017187,0.006528
5971,-6.086061,2.896984,-4.534618,-0.032508,0.018119,0.004397
5986,-6.004658,2.937685,-4.486734,-0.029178,0.020118,-0.002531
6001,-5.858612,2.861071,-4.544195,-0.026513,0.015988,-0.005329
6016,-6.009446,2.801216,-4.568137,-0.028511,0.017986,-0.005729
6031,-6.033388,2.767697,-4.587290,-0.034107,0.012524,0.005729
6046,-5.942409,2.865859,-4.560954,-0.032508,0.013590,0.005596
6061,-5.880159,2.844311,-4.515464,-0.037704,0.011858,0.012124
6076,-6.066907,2.784456,-4.649539,-0.037571,0.013057,0.016521
6091,-6.052542,2.863465,-4.498705,-0.036505,0.009992,0.011724
6106,-5.990293,2.930503,-4.455609,-0.033175,0.018652,0.005329
6121,-5.906496,2.889802,-4.582502,-0.028911,0.012391,-0.000933
6136,-5.990293,2.887407,-4.525041,-0.027046,0.015855,-0.003464
6151,-6.074090,2.813187,-4.589684,-0.028245,0.018119,-0.000266
6166,-5.935226,2.870648,-4.546589,-0.029178,0.018386,-0.000133
6181,-5.961562,2.911349,-4.592079,-0.028645,0.016654,0.002665
6196,-6.014235,2.849100,-4.453215,-0.033308,0.016787,0.002531
6211,-6.014235,2.801216,-4.639963,-0.030377,0.014789,0.000000
6226,-5.963956,2.873042,-4.525041,-0.033574,0.013856,0.006662
6241,-5.916072,2.889802,-4.489128,-0.032775,0.019052,0.007061
6256,-5.916072,2.853888,-4.515464,-0.031043,0.016254,0.002132
6271,-6.028600,2.923320,-4.529830,-0.030776,0.016787,-0.000533
6286,-5.966351,2.844311,-4.577713,-0.028778,0.015455,-0.003864
6301,-5.899313,2.827552,-4.570531,-0.026779,0.017587,-0.004530
6316,-6.021417,2.774880,-4.599261,-0.037571,0.010658,0.009859
6331,-6.071695,2.794033,-4.649539,-0.043966,0.014922,0.011191
6346,-5.906496,2.908955,-4.517859,-0.041035,0.014522,0.009193
6361,-5.887342,2.894590,-4.644751,-0.031576,0.019985,0.003730
6376,-5.992687,2.844311,-4.625597,-0.034240,0.013323,0.005063
6391,-6.076484,2.825158,-4.637568,-0.036772,0.016920,0.004930
6406,-6.016629,2.870648,-4.627992,-0.037172,0.015855,0.004530
6421,-5.908890,2.861071,-4.563348,-0.032242,0.014789,0.000266
6436,-5.963956,2.882619,-4.527435,-0.030643,0.017720,-0.001199
6451,-6.062119,2.841917,-4.553771,-0.028911,0.014389,0.001066
6466,-5.944803,2.834735,-4.639963,-0.036239,0.007594,0.007861
6481,-5.923255,2.853888,-4.608838,-0.032109,0.008394,0.012391
6496,-5.987898,2.798822,-4.501099,-0.035040,0.007061,0.010925
6511,-6.021417,2.901772,-4.539406,-0.031309,0.010925,0.005196
6526,-5.999869,2.846706,-4.537012,-0.033041,0.016654,0.007461
6541,-5.896919,2.817975,-4.582502,-0.034907,0.007994,0.009326
6556,-6.059724,2.846706,-4.414908,-0.039170,0.014655,0.012124
6571,-6.121974,2.904167,-4.651934,-0.037438,0.014522,0.012257
6586,-5.999869,2.947262,-4.426879,-0.029444,0.015188,0.004930
6601,-5.851429,2.928109,-4.424485,-0.027579,0.009726,-0.001199
6616,-6.016629,2.777274,-4.637568,-0.022649,0.008260,-0.005329
6631,-6.083666,2.750938,-4.501099,-0.028245,0.010259,0.001332
6646,-5.954380,2.820369,-4.572925,-0.037038,0.007194,0.006395
6661,-5.872977,2.870648,-4.501099,-0.034640,0.019585,0.006129
6676,-6.076484,2.856282,-4.644751,-0.036772,0.016654,0.008660
6691,-6.038177,2.829946,-4.534618,-0.034240,0.015188,0.006795
6706,-6.014235,2.940080,-4.532224,-0.033841,0.014389,0.008394
6721,-5.901707,2.942474,-4.534618,-0.026913,0.017720,0.005329
6736,-6.002264,2.844311,-4.594473,-0.025047,0.016521,0.003597
6751,-6.033388,2.806004,-4.551377,-0.024781,0.016521,0.005462
6766,-5.959168,2.861071,-4.618415,-0.028645,0.017587,0.002398
6781,-5.973533,2.841917,-4.556166,-0.031309,0.007328,0.003730
6796,-5.980716,2.796427,-4.582502,-0.032109,0.012657,0.007727
6811,-6.059724,2.827552,-4.580108,-0.036772,0.013856,0.007994
6826,-5.942409,2.956839,-4.517859,-0.034374,0.006662,0.002665
6841,-5.920861,2.992752,-4.560954,-0.030776,0.016254,0.003597
6856,-6.002264,2.896984,-4.592079,-0.025447,0.015055,0.000133
6871,-6.093243,2.853888,-4.632780,-0.024648,0.016254,0.000400
6886,-5.954380,2.875436,-4.539406,-0.027312,0.016654,-0.001865
6901,-5.944803,2.801216,-4.560954,-0.024515,0.016387,-0.003331
6916,-5.980716,2.782062,-4.563348,-0.022250,0.015855,-0.010792
6931,-6.062119,2.808398,-4.642357,-0.027179,0.012124,-0.003331
6946,-5.956774,2.791639,-4.532224,-0.033308,0.019052,0.006395
6961,-5.951985,2.877831,-4.546589,-0.042101,0.008260,0.017720
6976,-5.995081,2.925714,-4.477157,-0.032109,0.009593,0.009459
6991,-6.035782,2.954445,-4.546589,-0.021317,0.012524,0.000933
7006,-5.987898,2.815581,-4.623203,-0.020251,0.011458,-0.001066
7021,-5.968745,2.796427,-4.582502,-0.026913,0.013456,0.009326
7036,-6.004658,2.772485,-4.599261,-0.035440,0.015455,0.009992
7051,-6.042965,2.765303,-4.527435,-0.034773,0.016654,0.012524
7066,-5.932832,2.868254,-4.556166,-0.041968,0.016654,0.011458
7081,-6.026206,2.877831,-4.690241,-0.041835,0.007461,0.013723
7096,-5.944803,2.839523,-4.589684,-0.036639,0.013723,0.013590
7111,-6.040571,2.973598,-4.620809,-0.034107,0.011591,0.011858
7126,-5.925649,2.904167,-4.525041,-0.030243,0.014655,0.008127
7141,-5.944803,2.923320,-4.537012,-0.031443,0.017320,0.007461
7156,-6.054936,2.849100,-4.608838,-0.031043,0.018519,0.005995
7171,-6.124368,2.796427,-4.560954,-0.030910,0.017986,0.009859
7186,-6.021417,2.774880,-4.611232,-0.036772,0.016387,0.013723
7201,-5.940014,2.791639,-4.498705,-0.041968,0.014256,0.014256
7216,-6.014235,2.841917,-4.465186,-0.039436,0.015055,0.014123
7231,-5.980716,2.829946,-4.520253,-0.038637,0.013989,0.008926
7246,-5.951985,2.801216,-4.560954,-0.038504,0.009326,0.008394
7261,-5.932832,2.832340,-4.647145,-0.045165,0.017054,0.007194
7276,-5.992687,2.820369,-4.565742,-0.047564,0.010925,0.007594
7291,-6.095637,2.865859,-4.513070,-0.043167,0.018519,0.002665
7306,-5.980716,2.920926,-4.616021,-0.044366,0.019585,0.005063
7321,-5.987898,2.916138,-4.467580,-0.043567,0.009726,0.011058
7336,-5.973533,2.892196,-4.546589,-0.039836,0.021850,0.009593
7351,-6.038177,2.846706,-4.508282,-0.036372,0.013456,0.009593
7366,-5.978322,2.908955,-4.532224,-0.035706,0.017320,0.008127
7381,-5.901707,2.932897,-4.551377,-0.034640,0.009459,0.004530
7396,-5.951985,2.961627,-4.539406,-0.029178,0.004530,0.001199
7411,-6.093243,2.935291,-4.582502,-0.023848,0.014256,-0.007994
7426,-5.971139,2.877831,-4.505888,-0.026913,0.022116,-0.007328
7441,-5.992687,2.880225,-4.570531,-0.027845,0.020784,0.000266
7456,-6.002264,2.849100,-4.618415,-0.032775,0.029577,0.012391
7471,-6.007052,2.885013,-4.515464,-0.037971,0.018119,0.012790
7486,-5.954380,2.930503,-4.441244,-0.033574,0.018919,0.006262
7501,-5.913678,2.954445,-4.438850,-0.025580,0.013323,0.002665
7516,-5.980716,2.822764,-4.558560,-0.018253,0.009593,-0.003064
7531,-6.093243,2.849100,-4.503493,-0.027979,0.013323,-0.001599
7546,-5.975927,2.940080,-4.551377,-0.025314,0.015588,0.001332
7561,-6.002264,2.935291,-4.613626,-0.023982,0.024515,-0.001332
7576,-6.014235,2.825158,-4.501099,-0.026779,0.021983,-0.002931
7591,-6.052542,2.813187,-4.620809,-0.020784,0.018253,0.000133
7606,-5.920861,2.896984,-4.596867,-0.027579,0.013190,-0.000799
7621,-5.935226,2.870648,-4.544195,-0.029178,0.012657,-0.003331
7636,-6.028600,2.798822,-4.544195,-0.032908,0.013590,0.000933
7651,-6.030994,2.825158,-4.493917,-0.036239,0.005196,0.007461
7666,-6.054936,2.863465,-4.522647,-0.036639,0.018253,0.008260
7681,-5.825093,3.023877,-4.582502,-0.040902,0.015188,0.007594
7696,-5.971139,2.940080,-4.558560,-0.032908,0.019718,0.002665
7711,-5.951985,2.880225,-4.539406,-0.032109,0.020384,0.007328
7726,-5.911284,2.868254,-4.508282,-0.027579,0.014256,0.007861
7741,-5.882554,2.846706,-4.580108,-0.032642,0.013323,0.007727
7756,-6.014235,2.832340,-4.601655,-0.030643,0.011858,0.001599
7771,-6.071695,2.841917,-4.450821,-0.029977,0.008660,-0.003064
7786,-5.971139,2.875436,-4.525041,-0.029577,0.015322,-0.003730
7801,-6.021417,2.853888,-4.525041,-0.035040,0.016254,0.002132
7816,-5.992687,2.832340,-4.529830,-0.037038,0.020384,0.003864
7831,-6.133945,2.875436,-4.589684,-0.034374,0.021317,0.002798
7846,-5.951985,2.911349,-4.556166,-0.029044,0.022516,0.001732
7861,-5.872977,2.863465,-4.584896,-0.028645,0.018386,0.008660
7876,-5.980716,2.834735,-4.594473,-0.028911,0.013456,0.008793
7891,-6.016629,2.829946,-4.496311,-0.034773,0.011325,0.008260
7906,-5.951985,2.952051,-4.548983,-0.033574,0.010392,0.009726
7921,-5.932832,2.975993,-4.548983,-0.027312,0.005063,0.008793
7936,-5.983110,2.894590,-4.486734,-0.023715,0.006528,0.000933
7951,-6.105214,2.868254,-4.594473,-0.022916,0.008394,-0.003464
7966,-5.954380,2.851494,-4.467580,-0.024781,0.016521,-0.002132
7981,-5.918467,2.794033,-4.532224,-0.025580,0.017054,0.000666
7996,-6.011840,2.791639,-4.462792,-0.035173,0.021717,0.001466
8011,-6.023811,2.806004,-4.544195,-0.037971,0.018519,0.008527
8026,-5.920861,2.920926,-4.654328,-0.038104,0.016654,0.009326
8041,-5.992687,2.947262,-4.580108,-0.031309,0.018253,0.007994
8056,-5.980716,2.925714,-4.472369,-0.027712,0.005596,0.006928
8071,-6.002264,2.865859,-4.534618,-0.026779,0.007594,0.004796
8086,-5.968745,2.908955,-4.460398,-0.026646,0.014522,0.003730
8101,-5.932832,2.873042,-4.577713,-0.029977,0.011724,0.002665
8116,-6.014235,2.774880,-4.505888,-0.035306,0.017720,0.007994
8131,-5.999869,2.863465,-4.685452,-0.037971,0.014522,0.009459
8146,-5.920861,2.808398,-4.522647,-0.041302,0.021051,0.011858
8161,-5.966351,2.875436,-4.534618,-0.043167,0.017054,0.017054
8176,-6.011840,2.904167,-4.563348,-0.039303,0.020651,0.010792
8191,-6.069301,2.880225,-4.508282,-0.033175,0.017720,0.001865
8206,-5.980716,2.908955,-4.639963,-0.032908,0.017453,-0.001332
8221,-5.894525,2.868254,-4.479551,-0.032375,0.019851,0.000933
8236,-5.980716,2.806004,-4.501099,-0.031443,0.013057,0.005729
8251,-6.030994,2.798822,-4.580108,-0.032908,0.011458,0.005729
8266,-5.954380,2.906561,-4.486734,-0.033308,0.016387,0.004796
8281,-5.911284,2.920926,-4.544195,-0.033175,0.013989,0.004663
8296,-5.940014,2.798822,-4.639963,-0.034640,0.013590,0.004263
8311,-6.105214,2.923320,-4.560954,-0.035573,0.012257,0.004663
8326,-5.904101,2.913743,-4.417302,-0.035040,0.011991,0.005862
8341,-5.896919,2.913743,-4.575319,-0.035440,0.015188,0.004930
8356,-6.019023,2.870648,-4.563348,-0.032109,0.018652,0.008527
8371,-6.002264,2.932897,-4.575319,-0.034907,0.014522,0.007594
8386,-5.906496,2.853888,-4.520253,-0.032242,0.014789,0.004930
8401,-5.908890,2.832340,-4.632780,-0.027979,0.013989,0.005196
8416,-6.014235,2.863465,-4.544195,-0.033574,0.006928,0.003064
8431,-6.042965,2.877831,-4.596867,-0.030776,0.013323,0.002265
8446,-5.980716,2.861071,-4.551377,-0.034374,0.008394,0.005596
8461,-5.911284,2.880225,-4.417302,-0.037838,0.014922,0.010126
8476,-6.016629,2.829946,-4.510676,-0.036639,0.020518,0.008793
8491,-6.030994,2.786851,-4.532224,-0.033841,0.015721,0.003864
8506,-5.940014,2.873042,-4.541800,-0.032642,0.016387,0.005063
8521,-5.999869,2.901772,-4.584896,-0.036372,0.014922,0.005862
8536,-5.987898,2.904167,-4.455609,-0.031842,0.016254,0.011458
8551,-5.954380,2.966416,-4.525041,-0.031309,0.014123,0.008527
8566,-5.980716,2.863465,-4.604050,-0.030776,0.015055,0.007461
8581,-6.064513,2.873042,-4.548983,-0.034507,0.017720,0.005729
8596,-5.963956,2.904167,-4.450821,-0.033441,0.015988,0.005862
8611,-5.923255,2.892196,-4.596867,-0.034907,0.012124,0.007994
8626,-5.959168,2.865859,-4.649539,-0.034907,0.007994,0.009193
8641,-6.093243,2.894590,-4.596867,-0.033708,0.013456,0.005329
8656,-5.990293,2.949656,-4.534618,-0.027446,0.006795,0.003864
8671,-5.901707,2.916138,-4.572925,-0.029711,0.012923,0.000266
8686,-5.990293,2.913743,-4.568137,-0.028645,0.010658,0.002531
8701,-6.107608,2.791639,-4.570531,-0.029044,0.008527,0.003064
8716,-6.042965,2.839523,-4.541800,-0.033841,0.015322,0.007061
8731,-5.918467,2.940080,-4.390966,-0.043034,0.011591,0.014389
8746,-5.968745,2.906561,-4.472369,-0.039436,0.017986,0.010925
8761,-6.023811,2.896984,-4.491522,-0.029311,0.023049,0.003864
8776,-5.997475,2.947262,-4.525041,-0.026113,0.013856,0.000400
8791,-5.901707,2.889802,-4.575319,-0.025314,0.011991,0.004397
8806,-5.894525,2.808398,-4.551377,-0.032508,0.013590,0.007594
8821,-6.047753,2.853888,-4.644751,-0.034907,0.009326,0.010792
8836,-5.973533,2.901772,-4.532224,-0.032908,0.015188,0.006928
8851,-5.918467,2.942474,-4.551377,-0.027312,0.016920,0.000933
8866,-5.940014,2.916138,-4.556166,-0.024781,0.018786,-0.005729
8881,-6.093243,2.844311,-4.493917,-0.022383,0.025847,-0.006395
8896,-5.980716,2.856282,-4.556166,-0.028778,0.021184,-0.000400
8911,-5.947197,2.858677,-4.544195,-0.035040,0.019319,0.006528
8926,-5.987898,2.959233,-4.431667,-0.041035,0.009992,0.010126
8941,-5.987898,2.944868,-4.515464,-0.033841,0.020651,0.010126
8956,-6.052542,2.983175,-4.534618,-0.028911,0.013989,-0.000799
8971,-5.863400,2.920926,-4.525041,-0.029178,0.014522,-0.000400
8986,-6.014235,2.844311,-4.601655,-0.027579,0.014123,0.003064
9001,-6.038177,2.810793,-4.491522,-0.032642,0.013057,0.004930
9016,-6.035782,2.892196,-4.520253,-0.035173,0.014123,0.010658
9031,-5.861006,2.954445,-4.493917,-0.032242,0.019185,0.007861
9046,-5.935226,2.928109,-4.486734,-0.028112,0.012524,0.004263
9061,-6.004658,2.873042,-4.570531,-0.025980,0.015055,0.002798
9076,-5.999869,2.923320,-4.618415,-0.028112,0.014389,0.002265
9091,-5.904101,2.877831,-4.472369,-0.031309,0.011724,0.004930
9106,-5.966351,2.889802,-4.458004,-0.030110,0.011058,0.002931
9121,-6.052542,2.817975,-4.534618,-0.032375,0.007727,0.003730
9136,-5.980716,2.856282,-4.548983,-0.027712,0.013057,0.005329
9151,-5.894525,2.901772,-4.587290,-0.029044,0.014123,0.001599
9166,-5.975927,2.801216,-4.565742,-0.030910,0.012657,0.009060
9181,-5.992687,2.875436,-4.618415,-0.034640,0.015721,0.010525
9196,-6.074090,2.894590,-4.544195,-0.032775,0.016787,0.003997
9211,-5.863400,2.937685,-4.532224,-0.032908,0.011325,0.002798
9226,-5.978322,2.952051,-4.508282,-0.028511,0.017986,0.005196
9241,-5.983110,2.882619,-4.510676,-0.029577,0.003331,0.007994
9256,-6.057330,2.865859,-4.604050,-0.030510,0.011058,0.002798
9271,-5.935226,2.858677,-4.532224,-0.027046,0.008527,0.003331
9286,-5.942409,2.834735,-4.529830,-0.028245,0.016121,0.002398
9301,-6.038177,2.825158,-4.601655,-0.032775,0.016654,0.003064
9316,-6.054936,2.870648,-4.587290,-0.033841,0.020518,0.010259
9331,-5.901707,2.899378,-4.441244,-0.037438,0.017986,0.010126
9346,-5.973533,2.932897,-4.489128,-0.030377,0.012657,0.009060
9361,-6.016629,2.870648,-4.472369,-0.029178,0.009593,0.006528
9376,-6.021417,2.908955,-4.525041,-0.033574,0.009326,0.008660
9391,-5.868188,2.849100,-4.390966,-0.031443,0.009060,0.009859
9406,-5.973533,2.892196,-4.570531,-0.031043,0.015855,0.004530
9421,-6.050148,2.849100,-4.616021,-0.029844,0.014389,0.000133
9436,-6.045359,2.863465,-4.565742,-0.032508,0.023715,-0.001599
9451,-5.942409,2.858677,-4.517859,-0.034507,0.015721,0.001066
9466,-5.978322,2.887407,-4.544195,-0.038637,0.021717,0.007994
9481,-6.069301,2.880225,-4.560954,-0.040502,0.016787,0.008127
9496,-6.021417,2.906561,-4.481946,-0.037838,0.014922,0.008127
9511,-5.947197,2.932897,-4.520253,-0.037305,0.011991,0.008926
9526,-5.980716,2.932897,-4.479551,-0.033974,0.016254,0.007994
9541,-6.047753,2.865859,-4.575319,-0.032375,0.015322,0.004663
9556,-5.997475,2.992752,-4.469975,-0.024381,0.011458,-0.007061
9571,-5.992687,2.837129,-4.625597,-0.024781,0.021850,-0.011325
9586,-5.875371,2.973598,-4.532224,-0.021317,0.012923,-0.017187
9601,-6.143521,2.698265,-4.695029,-0.038904,0.029711,0.001466
9616,-6.050148,2.841917,-4.481946,-0.049695,0.002931,0.020251
9631,-5.810728,3.088520,-4.472369,-0.036239,0.026113,0.005196
9646,-5.975927,2.995146,-4.513070,-0.025447,0.016387,-0.004663
9661,-6.011840,2.889802,-4.587290,-0.022783,0.014789,-0.008660
9676,-6.052542,2.834735,-4.541800,-0.020251,0.011858,-0.007994
9691,-5.930438,2.846706,-4.556166,-0.028245,0.016121,-0.000933
9706,-5.925649,2.887407,-4.568137,-0.032375,0.014522,0.002798
9721,-6.035782,2.880225,-4.553771,-0.031975,0.015988,0.000266
9736,-6.071695,2.887407,-4.525041,-0.026779,0.020118,-0.005063
9751,-5.882554,2.944868,-4.553771,-0.029444,0.014655,-0.002931
9766,-5.937620,2.906561,-4.520253,-0.021317,0.015855,0.004263
9781,-6.081272,2.885013,-4.568137,-0.024381,0.015322,0.004263
9796,-6.059724,2.904167,-4.577713,-0.028245,0.015721,0.005596
9811,-5.918467,2.849100,-4.616021,-0.025847,0.014655,0.005596
9826,-5.942409,2.870648,-4.508282,-0.026513,0.010392,0.002531
9841,-6.040571,2.813187,-4.601655,-0.027845,0.011991,0.002398
9856,-5.968745,2.846706,-4.541800,-0.024914,0.011325,-0.000933
9871,-5.913678,2.966416,-4.616021,-0.025980,0.012923,0.001332
9886,-5.975927,2.880225,-4.594473,-0.028378,0.017853,0.000799
9901,-6.078878,2.873042,-4.498705,-0.024515,0.017587,0.000266
9916,-6.045359,2.870648,-4.568137,-0.029844,0.017320,0.000533
9931,-5.908890,2.877831,-4.503493,-0.027579,0.013323,-0.001599
9946,-5.937620,2.822764,-4.616021,-0.032242,0.015322,0.002265
9961,-6.081272,2.887407,-4.663905,-0.030910,0.009193,0.004530
9976,-5.997475,2.947262,-4.558560,-0.028645,0.019452,0.000933
9991,-5.901707,2.968810,-4.596867,-0.027845,0.022916,-0.000266
10006,-5.899313,2.889802,-4.625597,-0.022516,0.021450,-0.002665
10021,-6.114791,2.808398,-4.563348,-0.022383,0.020784,-0.008527
10036,-6.016629,2.815581,-4.563348,-0.023182,0.019052,-0.008926
10051,-5.959168,2.806004,-4.558560,-0.029311,0.015855,-0.003198
10066,-5.954380,2.913743,-4.580108,-0.030910,0.011991,-0.004530
10081,-6.004658,2.880225,-4.599261,-0.034240,0.019585,-0.000799
10096,-5.949591,2.894590,-4.599261,-0.033841,0.019585,0.010392
10111,-5.892130,3.088520,-4.556166,-0.027312,0.017054,0.008127
10126,-5.918467,2.935291,-4.556166,-0.021717,0.019319,-0.000133
10141,-5.997475,2.798822,-4.450821,-0.014389,0.008793,-0.007994
10156,-6.028600,2.767697,-4.592079,-0.017054,0.013456,-0.004130
10171,-5.937620,2.815581,-4.572925,-0.024515,0.002398,-0.000666
10186,-5.961562,2.856282,-4.539406,-0.031309,0.017054,0.004796
10201,-6.090849,2.844311,-4.580108,-0.036106,0.012257,0.006662
10216,-5.995081,2.880225,-4.546589,-0.036772,0.018652,0.013057
10231,-5.925649,2.892196,-4.522647,-0.032508,0.018119,0.011325
10246,-5.923255,2.839523,-4.532224,-0.030243,0.013723,0.007061
10261,-6.062119,2.841917,-4.568137,-0.027712,0.009326,-0.000933
10276,-6.028600,2.853888,-4.584896,-0.031842,0.014922,0.002798
10291,-5.920861,2.918532,-4.587290,-0.031975,0.012391,0.002265
10306,-5.944803,2.829946,-4.584896,-0.035972,0.017054,0.005196
10321,-6.095637,2.892196,-4.517859,-0.038504,0.017054,0.004930
10336,-6.040571,2.913743,-4.556166,-0.037838,0.017720,0.004796
10351,-5.918467,2.971204,-4.618415,-0.030643,0.024248,0.002931
10366,-5.937620,2.904167,-4.458004,-0.031443,0.019985,0.001998
10381,-6.052542,2.794033,-4.582502,-0.033308,0.017187,0.005329
10396,-5.997475,2.873042,-4.508282,-0.032242,0.017853,0.002665
10411,-5.925649,2.937685,-4.517859,-0.027179,0.018786,0.000933
10426,-5.951985,2.844311,-4.525041,-0.031709,0.010925,0.007194
10441,-6.028600,2.803610,-4.551377,-0.036372,0.011991,0.009726
10456,-6.062119,2.817975,-4.582502,-0.033308,0.013989,0.009459
10471,-5.944803,2.971204,-4.496311,-0.030776,0.012257,0.007861
10486,-5.877765,2.889802,-4.584896,-0.027845,0.010792,0.004130
10501,-6.083666,2.873042,-4.565742,-0.029844,0.013590,0.002931
10516,-6.028600,2.829946,-4.613626,-0.033441,0.013190,0.012257
10531,-5.920861,2.856282,-4.575319,-0.035573,0.013723,0.010259
10546,-5.892130,2.829946,-4.565742,-0.037305,0.010126,0.009459
10561,-6.081272,2.832340,-4.534618,-0.037704,0.012524,0.011724
10576,-6.009446,2.846706,-4.548983,-0.032375,0.008260,0.005329
10591,-5.889736,2.894590,-4.534618,-0.032775,0.015055,0.005063
10606,-5.968745,2.865859,-4.577713,-0.037172,0.018253,0.011724
10621,-5.997475,2.906561,-4.596867,-0.036639,0.010792,0.010392
10636,-6.045359,2.882619,-4.534618,-0.038504,0.019052,0.011325
10651,-5.913678,2.870648,-4.613626,-0.037172,0.015988,0.012124
10666,-5.932832,2.930503,-4.527435,-0.031309,0.015455,0.008394
10681,-6.129156,2.822764,-4.541800,-0.026779,0.012257,0.003064
10696,-5.973533,2.827552,-4.584896,-0.027179,0.009992,-0.000533
10711,-5.889736,2.889802,-4.489128,-0.025447,0.012124,0.000933
10726,-5.954380,2.947262,-4.582502,-0.031043,0.014522,0.005063
10741,-6.064513,2.863465,-4.498705,-0.027312,0.013723,0.007194
10756,-5.999869,2.856282,-4.556166,-0.029844,0.015855,0.009193
10771,-5.949591,2.901772,-4.582502,-0.033308,0.013190,0.009459
10786,-5.906496,2.861071,-4.548983,-0.032908,0.015588,0.012391
10801,-6.030994,2.827552,-4.558560,-0.031443,0.010658,0.007194
10816,-6.002264,2.916138,-4.601655,-0.029711,0.016654,-0.001865
10831,-5.999869,2.820369,-4.592079,-0.032109,0.015055,0.001466
10846,-5.975927,2.861071,-4.565742,-0.033574,0.017320,0.001332
10861,-6.038177,2.873042,-4.556166,-0.033708,0.019319,0.006395
10876,-5.961562,2.906561,-4.501099,-0.037704,0.016121,0.003464
10891,-5.985504,2.973598,-4.522647,-0.034107,0.010925,0.001466
10906,-5.920861,2.851494,-4.498705,-0.035040,0.007194,0.004796
10921,-6.057330,2.856282,-4.534618,-0.036505,0.012524,0.006395
10936,-6.062119,2.880225,-4.587290,-0.032908,0.010925,0.008793
10951,-5.920861,2.949656,-4.503493,-0.030243,0.019319,0.008127
10966,-5.956774,2.920926,-4.484340,-0.032642,0.015988,0.003730
10981,-6.052542,2.875436,-4.446033,-0.034507,0.017054,0.007194
10996,-6.069301,2.896984,-4.491522,-0.029178,0.016121,0.008793
11011,-5.935226,2.911349,-4.613626,-0.031576,0.009726,0.006129
11026,-5.959168,2.865859,-4.560954,-0.031443,0.012923,0.005729
11041,-5.983110,2.839523,-4.546589,-0.034374,0.010925,0.004530
11056,-6.040571,2.896984,-4.594473,-0.031709,0.014389,0.002132
11071,-5.880159,2.870648,-4.623203,-0.035040,0.012923,0.003331
11086,-6.026206,2.832340,-4.613626,-0.032775,0.016121,0.001066
11101,-6.052542,2.906561,-4.520253,-0.034240,0.023715,0.004530
11116,-6.054936,2.882619,-4.525041,-0.033308,0.020118,0.001066
11131,-5.916072,2.908955,-4.429273,-0.031842,0.010658,0.005196
11146,-5.928043,2.908955,-4.596867,-0.031576,0.009459,0.001199
11161,-6.047753,2.923320,-4.575319,-0.027446,0.009726,-0.000533
11176,-6.064513,2.829946,-4.513070,-0.030776,0.009593,0.002531
11191,-5.923255,2.978387,-4.558560,-0.034374,0.017587,0.010392
11206,-5.920861,2.870648,-4.568137,-0.032109,0.013723,0.004663
11221,-5.999869,2.815581,-4.601655,-0.028645,0.017187,0.003064
11236,-6.078878,2.873042,-4.601655,-0.030243,0.019052,0.002265
11251,-5.920861,2.868254,-4.539406,-0.034374,0.016521,0.006262
11266,-5.954380,2.904167,-4.505888,-0.032908,0.018786,0.003730
11281,-6.076484,2.959233,-4.520253,-0.027712,0.015721,0.000533
11296,-6.047753,2.875436,-4.570531,-0.029711,0.014389,0.000266
11311,-5.947197,2.837129,-4.510676,-0.034240,0.015721,0.004397
11326,-5.918467,2.873042,-4.575319,-0.035972,0.017320,0.007061
11341,-6.021417,2.832340,-4.606444,-0.037571,0.010525,0.012790
11356,-6.007052,2.918532,-4.539406,-0.034374,0.011724,0.014123
11371,-5.956774,2.949656,-4.534618,-0.032109,0.020251,0.003597
11386,-5.889736,2.873042,-4.558560,-0.025181,0.013723,0.002665
11401,-6.045359,2.815581,-4.616021,-0.025580,0.020917,-0.000666
11416,-6.021417,2.822764,-4.575319,-0.029178,0.021850,0.000799
11431,-5.949591,2.875436,-4.551377,-0.031576,0.023449,0.006795
11446,-5.983110,2.853888,-4.534618,-0.037172,0.021317,0.006928
11461,-6.074090,2.834735,-4.529830,-0.032109,0.015988,0.003464
11476,-6.009446,2.932897,-4.558560,-0.028112,0.016920,0.003331
11491,-5.880159,2.911349,-4.508282,-0.027179,0.018253,-0.000666
11506,-5.947197,2.849100,-4.582502,-0.029444,0.013323,0.000533
11521,-6.047753,2.803610,-4.553771,-0.032908,0.014655,-0.000533
11536,-5.985504,2.827552,-4.563348,-0.032109,0.021184,0.006129
11551,-5.884948,2.841917,-4.546589,-0.032775,0.019319,0.005063
11566,-5.956774,2.851494,-4.496311,-0.035839,0.019985,0.006528
11581,-6.023811,2.875436,-4.529830,-0.030643,0.011325,0.003997
11596,-5.971139,2.971204,-4.486734,-0.026513,0.014922,-0.000533
11611,-5.889736,2.904167,-4.548983,-0.026247,0.007861,0.001998
11626,-5.961562,2.880225,-4.570531,-0.028378,0.011458,0.005596
11641,-5.992687,2.839523,-4.539406,-0.034507,0.021850,0.007461
11656,-5.963956,2.851494,-4.620809,-0.036372,0.015588,0.006262
11671,-6.033388,2.880225,-4.565742,-0.034907,0.019052,0.008260
11686,-5.968745,2.856282,-4.560954,-0.036772,0.013057,0.009326
11701,-6.014235,2.839523,-4.613626,-0.033308,0.016920,0.001332
11716,-5.997475,2.825158,-4.556166,-0.028645,0.011458,0.002531
11731,-5.997475,2.870648,-4.592079,-0.032375,0.018652,0.002531
11746,-5.968745,2.870648,-4.580108,-0.034374,0.014256,0.004930
11761,-6.040571,2.894590,-4.570531,-0.034773,0.015855,0.005329
11776,-6.030994,2.786851,-4.570531,-0.035573,0.017587,0.004930
11791,-5.978322,2.894590,-4.611232,-0.038904,0.015322,0.012923
11806,-5.925649,2.964022,-4.560954,-0.037704,0.020917,0.010658
11821,-6.028600,2.894590,-4.498705,-0.030510,0.017853,0.007328
11836,-6.004658,2.894590,-4.563348,-0.025847,0.011724,0.001199
11851,-5.911284,2.892196,-4.508282,-0.027979,0.013590,-0.005196
11866,-5.899313,2.806004,-4.539406,-0.029977,0.015988,-0.002665
11881,-5.995081,2.880225,-4.551377,-0.031975,0.015588,0.003198
11896,-5.944803,2.954445,-4.630386,-0.037571,0.015855,0.009459
11911,-6.042965,2.822764,-4.558560,-0.034240,0.017453,0.006262
11926,-6.052542,2.870648,-4.580108,-0.030643,0.018119,0.001332
11941,-5.971139,2.973598,-4.589684,-0.028511,0.013590,0.003464
11956,-5.875371,2.889802,-4.575319,-0.026247,0.018386,-0.005063
11971,-6.040571,2.791639,-4.539406,-0.023715,0.018786,-0.000400
11986,-5.992687,2.865859,-4.546589,-0.030377,0.013057,-0.000133
12001,-5.928043,2.863465,-4.486734,-0.034374,0.017320,0.005596
12016,-5.918467,2.908955,-4.627992,-0.037038,0.010525,0.009593
12031,-5.992687,2.913743,-4.570531,-0.037438,0.014522,0.012923
12046,-6.004658,2.920926,-4.481946,-0.033574,0.012923,0.006928
12061,-5.935226,2.923320,-4.580108,-0.029577,0.006262,0.001599
12076,-5.884948,2.913743,-4.611232,-0.024781,0.009859,-0.001066
12091,-5.987898,2.844311,-4.604050,-0.027446,0.012923,0.000000
12106,-6.059724,2.829946,-4.501099,-0.029844,0.017587,0.004397
12121,-5.983110,2.911349,-4.462792,-0.029711,0.016920,0.000666
12136,-5.899313,2.851494,-4.572925,-0.033175,0.019718,0.006129
12151,-5.968745,2.873042,-4.558560,-0.034107,0.011724,0.009992
12166,-6.014235,2.832340,-4.548983,-0.035706,0.018386,0.010658
12181,-5.944803,2.877831,-4.568137,-0.036772,0.013323,0.010525
12196,-5.904101,2.887407,-4.560954,-0.033708,0.011191,0.003730
12211,-5.968745,2.918532,-4.520253,-0.033041,0.015055,0.001998
12226,-6.030994,2.822764,-4.556166,-0.039436,0.014655,0.004796
12241,-5.968745,2.920926,-4.582502,-0.034107,0.018253,0.006262
12256,-5.951985,2.920926,-4.460398,-0.032908,0.017720,0.004663
12271,-6.007052,2.916138,-4.613626,-0.027579,0.019718,-0.001066
12286,-6.066907,2.873042,-4.582502,-0.024914,0.019185,-0.003597
12301,-5.894525,2.846706,-4.616021,-0.029178,0.009459,-0.002265
12316,-5.884948,2.870648,-4.639963,-0.026646,0.010658,-0.005729
12331,-6.030994,2.829946,-4.584896,-0.026380,0.003198,-0.000266
12346,-6.054936,2.796427,-4.587290,-0.034107,0.012524,0.001332
12361,-5.971139,2.885013,-4.525041,-0.041968,0.012524,0.005196
12376,-5.990293,2.928109,-4.625597,-0.041568,0.027446,0.015322
12391,-6.014235,2.930503,-4.517859,-0.036106,0.015855,0.006795
12406,-6.054936,2.861071,-4.527435,-0.025714,0.025447,-0.002398
12421,-5.908890,2.882619,-4.611232,-0.025580,0.009992,0.000266
12436,-5.880159,2.837129,-4.568137,-0.030377,0.011858,0.003064
12451,-5.975927,2.801216,-4.541800,-0.033041,0.016787,0.005329
12466,-6.035782,2.846706,-4.537012,-0.037838,0.015855,0.009726
12481,-5.956774,2.964022,-4.517859,-0.031576,0.017853,0.007461
12496,-5.942409,2.885013,-4.510676,-0.032109,0.020384,0.002798
12511,-5.954380,2.896984,-4.493917,-0.031842,0.012790,0.002798
12526,-6.076484,2.798822,-4.522647,-0.034374,0.015988,0.000533
12541,-5.949591,2.904167,-4.582502,-0.036239,0.015721,0.002798
12556,-5.889736,2.944868,-4.544195,-0.035839,0.014522,0.001865
12571,-6.009446,2.846706,-4.685452,-0.032508,0.017187,0.002665
12586,-6.028600,2.911349,-4.484340,-0.036239,0.018386,0.007328
12601,-5.966351,2.827552,-4.668693,-0.038637,0.014522,0.009060
12616,-5.925649,2.961627,-4.587290,-0.037172,0.015188,0.014522
12631,-6.052542,2.887407,-4.525041,-0.037038,0.013456,0.006528
12646,-6.028600,2.880225,-4.539406,-0.028378,0.015055,0.001599
12661,-5.956774,2.887407,-4.596867,-0.031842,0.012257,-0.000666
12676,-5.928043,2.815581,-4.604050,-0.035573,0.012657,0.006395
12691,-5.975927,2.813187,-4.489128,-0.039170,0.020118,0.011724
12706,-6.042965,2.887407,-4.489128,-0.041568,0.014522,0.011191
12721,-5.932832,2.985569,-4.534618,-0.036505,0.017587,0.009593
12736,-5.932832,2.925714,-4.575319,-0.033574,0.013989,0.003864
12751,-5.908890,2.870648,-4.608838,-0.030510,0.010525,-0.002798
12766,-6.143521,2.873042,-4.556166,-0.029044,0.020651,0.000400
12781,-5.872977,2.901772,-4.474763,-0.036372,0.010792,0.007861
12796,-5.906496,2.901772,-4.601655,-0.037172,0.014655,0.012923
12811,-5.971139,2.889802,-4.632780,-0.037838,0.008127,0.012923
12826,-6.023811,2.937685,-4.558560,-0.035040,0.014256,0.007594
12841,-6.009446,2.913743,-4.498705,-0.025980,0.017320,0.005462
12856,-5.901707,2.877831,-4.532224,-0.023582,0.018652,0.001066
12871,-5.990293,2.858677,-4.513070,-0.024648,0.017587,0.002265
12886,-5.987898,2.853888,-4.534618,-0.027579,0.013856,0.000933
12901,-5.973533,2.858677,-4.539406,-0.034374,0.017453,0.007194
12916,-5.856217,2.851494,-4.565742,-0.040636,0.014789,0.012391
12931,-5.975927,2.882619,-4.604050,-0.039836,0.014789,0.009992
12946,-6.076484,2.882619,-4.613626,-0.038770,0.018652,0.010525
12961,-5.973533,2.906561,-4.553771,-0.033841,0.013856,0.005196
12976,-5.920861,2.949656,-4.608838,-0.032908,0.008793,0.002531
12991,-6.062119,2.899378,-4.491522,-0.031709,0.016387,-0.001599
13006,-6.023811,2.861071,-4.460398,-0.032642,0.016254,-0.001865
13021,-5.963956,2.896984,-4.517859,-0.033574,0.014522,-0.000266
13036,-5.899313,2.930503,-4.548983,-0.036372,0.020917,0.007461
13051,-5.966351,2.882619,-4.618415,-0.037305,0.018652,0.009726
13066,-6.090849,2.896984,-4.587290,-0.039037,0.011724,0.012391
13081,-5.995081,2.956839,-4.553771,-0.040369,0.016654,0.014655
13096,-5.896919,2.968810,-4.467580,-0.037704,0.010792,0.010525
13111,-6.047753,2.896984,-4.541800,-0.034907,0.011458,0.005596
13126,-6.062119,2.877831,-4.474763,-0.029577,0.013989,0.003464
13141,-5.978322,2.877831,-4.580108,-0.031576,0.023848,0.003997
13156,-5.911284,2.880225,-4.558560,-0.032908,0.018652,0.009859
13171,-5.904101,2.935291,-4.510676,-0.033841,0.017587,0.010392
13186,-6.028600,2.961627,-4.450821,-0.032375,0.019052,0.004397
13201,-5.951985,2.894590,-4.527435,-0.033841,0.015855,0.001732
13216,-5.877765,2.896984,-4.601655,-0.033308,0.003730,0.004530
13231,-6.026206,2.877831,-4.596867,-0.035706,0.012257,0.008793
13246,-6.059724,2.873042,-4.539406,-0.039303,0.010259,0.014789
13261,-5.951985,2.940080,-4.548983,-0.040369,0.011325,0.013989
13276,-5.923255,3.047819,-4.446033,-0.031176,0.018119,0.006528
13291,-5.968745,2.911349,-4.477157,-0.022649,0.013590,-0.001199
13306,-6.045359,2.901772,-4.453215,-0.022116,0.022649,-0.005196
13321,-6.028600,2.894590,-4.570531,-0.021450,0.015322,-0.000266
13336,-5.870583,2.889802,-4.577713,-0.029711,0.010525,0.001865
13351,-6.019023,2.856282,-4.563348,-0.030643,0.011325,0.001732
13366,-6.071695,2.975993,-4.601655,-0.024914,0.015322,-0.009593
13381,-5.911284,2.913743,-4.558560,-0.023982,0.009593,-0.014922
13396,-5.901707,2.853888,-4.572925,-0.027979,0.016787,-0.004796
13411,-5.956774,2.846706,-4.520253,-0.042501,0.015455,0.004530
13426,-6.098032,2.782062,-4.570531,-0.052093,0.006662,0.016121
13441,-5.947197,2.911349,-4.575319,-0.057023,0.006262,0.027579
13456,-5.870583,2.995146,-4.546589,-0.053292,0.009992,0.026779
13471,-5.997475,2.954445,-4.539406,-0.046897,0.012391,0.019985
13486,-6.035782,2.942474,-4.572925,-0.040103,0.008394,0.015988
13501,-6.007052,2.930503,-4.548983,-0.038104,0.017720,0.013323
13516,-5.918467,3.002329,-4.458004,-0.035306,0.011724,0.010126
13531,-5.968745,2.873042,-4.553771,-0.037438,0.021051,0.012391
13546,-6.095637,2.906561,-4.582502,-0.035440,0.024248,0.005729
13561,-5.894525,2.947262,-4.503493,-0.030776,0.008527,0.006795
13576,-5.951985,2.906561,-4.534618,-0.033574,0.021317,0.006262
13591,-5.928043,2.894590,-4.611232,-0.035040,0.011058,0.008394
13606,-5.968745,2.882619,-4.548983,-0.035306,0.015322,0.006129
13621,-5.985504,2.918532,-4.431667,-0.033974,0.015455,0.012257
13636,-5.899313,2.999935,-4.575319,-0.028645,0.017720,0.012790
13651,-5.968745,2.925714,-4.611232,-0.025847,0.014389,0.005862
13666,-6.023811,2.885013,-4.515464,-0.026380,0.021184,0.004130
13681,-6.004658,2.853888,-4.604050,-0.026779,0.018253,0.005596
13696,-5.884948,2.887407,-4.632780,-0.032109,0.019185,0.005862
13711,-5.999869,2.827552,-4.570531,-0.037172,0.008660,0.012257
13726,-6.030994,2.896984,-4.534618,-0.038637,0.016521,0.007328
13741,-5.963956,3.004723,-4.563348,-0.038504,0.005063,0.009326
13756,-5.851429,2.997540,-4.513070,-0.029711,0.015455,0.001599
13771,-6.023811,2.940080,-4.544195,-0.029311,0.017587,0.001066
13786,-6.076484,2.983175,-4.505888,-0.031443,0.022783,0.006395
13801,-5.990293,2.916138,-4.510676,-0.033175,0.029178,0.007461
13816,-5.911284,2.911349,-4.560954,-0.036106,0.025847,0.007328
13831,-5.973533,2.908955,-4.587290,-0.040502,0.018919,0.008127
13846,-5.987898,2.901772,-4.529830,-0.043433,0.017054,0.010525
13861,-5.999869,2.971204,-4.484340,-0.038104,0.013590,0.006795
13876,-5.894525,2.978387,-4.438850,-0.032642,0.016654,0.004530
13891,-6.035782,2.935291,-4.486734,-0.033175,0.014522,0.000266
13906,-5.923255,2.901772,-4.513070,-0.035706,0.014655,0.004930
13921,-5.978322,2.904167,-4.608838,-0.038504,0.021184,0.008660
13936,-5.913678,2.985569,-4.563348,-0.038770,0.030510,0.010259
13951,-5.918467,2.928109,-4.601655,-0.039703,0.019985,0.009193
13966,-5.920861,2.956839,-4.539406,-0.038104,0.021717,0.007594
13981,-5.978322,2.913743,-4.541800,-0.037172,0.016254,0.010792
13996,-5.856217,3.002329,-4.558560,-0.039303,0.015721,0.011325
14011,-6.026206,2.844311,-4.546589,-0.039170,0.015322,0.013590
14026,-5.968745,2.882619,-4.472369,-0.044632,0.013856,0.018519
14041,-5.949591,2.853888,-4.546589,-0.048896,0.013323,0.020251
14056,-5.882554,3.055001,-4.460398,-0.043833,0.016254,0.016521
14071,-5.999869,2.983175,-4.606444,-0.036239,0.018786,0.008527
14086,-5.983110,2.949656,-4.484340,-0.036505,0.016787,0.005196
14101,-5.942409,3.035848,-4.632780,-0.030910,0.019585,0.001732
14116,-5.846641,3.011906,-4.532224,-0.030243,0.015055,0.000666
14131,-6.011840,2.920926,-4.580108,-0.028378,0.012657,0.000666
14146,-6.045359,2.892196,-4.572925,-0.034773,0.009459,0.005596
14161,-5.980716,2.990358,-4.568137,-0.036106,0.008127,0.010525
14176,-5.920861,2.949656,-4.446033,-0.039969,0.011591,0.009459
14191,-5.956774,2.932897,-4.438850,-0.039303,0.005329,0.011858
14206,-6.011840,2.899378,-4.613626,-0.034773,0.023582,0.008394
14221,-5.987898,2.997540,-4.582502,-0.032642,0.011058,0.010792
14236,-5.906496,2.997540,-4.426879,-0.026247,0.022649,0.000400
14251,-5.935226,2.911349,-4.548983,-0.027046,0.021717,0.004397
14266,-6.028600,2.906561,-4.544195,-0.024248,0.022783,-0.002531
14281,-5.968745,2.947262,-4.582502,-0.029844,0.017320,0.000666
14296,-5.856217,2.908955,-4.517859,-0.037038,0.013323,0.005063
14311,-6.021417,2.844311,-4.584896,-0.047430,0.012923,0.015055
14326,-6.057330,2.952051,-4.529830,-0.057822,0.014389,0.028778
14341,-5.949591,3.038242,-4.537012,-0.054092,0.013190,0.029044
14356,-5.865794,3.069366,-4.510676,-0.045165,0.010925,0.016387
14371,-5.853823,3.019088,-4.532224,-0.032775,0.009060,0.010792
14386,-6.050148,2.985569,-4.553771,-0.029311,0.010792,0.009726
14401,-5.916072,2.956839,-4.513070,-0.030510,0.005596,0.010525
14416,-5.937620,2.904167,-4.618415,-0.034640,0.015588,0.017187
14431,-6.040571,2.966416,-4.525041,-0.031842,0.006395,0.012391
14446,-5.923255,2.966416,-4.525041,-0.024781,0.009060,0.002132
14461,-5.963956,2.944868,-4.594473,-0.019319,0.018652,-0.009992
14476,-5.889736,2.978387,-4.477157,-0.024115,0.004663,-0.002265
14491,-5.959168,2.975993,-4.572925,-0.019319,0.016387,-0.006262
14506,-6.114791,2.916138,-4.458004,-0.029444,0.005196,0.003864
14521,-5.889736,2.858677,-4.458004,-0.035306,0.010925,0.011058
14536,-5.954380,2.968810,-4.592079,-0.036639,0.019185,0.010658
14551,-5.942409,2.904167,-4.517859,-0.039037,0.023182,0.015188
14566,-5.968745,2.990358,-4.601655,-0.036905,0.023982,0.010792
14581,-5.896919,3.007117,-4.510676,-0.036372,0.020118,0.006795
14596,-5.813122,3.052607,-4.438850,-0.033574,0.014655,0.002132
14611,-5.930438,2.975993,-4.537012,-0.028645,0.017187,-0.003597
14626,-5.987898,2.959233,-4.474763,-0.027845,0.004530,-0.006795
14641,-5.959168,2.944868,-4.601655,-0.025314,0.015188,-0.012524
14656,-5.951985,2.841917,-4.582502,-0.041835,0.007594,0.002931
14671,-5.844246,2.743755,-4.486734,-0.057423,0.028645,0.015988
14686,-6.270414,2.985569,-4.584896,-0.057956,0.025580,0.024781
14701,-5.789180,3.057395,-4.474763,-0.058489,0.028245,0.027312
14716,-5.930438,3.100491,-4.515464,-0.049828,0.030377,0.014922
14731,-5.896919,2.985569,-4.601655,-0.045165,0.023982,0.008527
14746,-6.014235,3.035848,-4.663905,-0.034374,0.028645,0.001865
14761,-5.925649,3.057395,-4.537012,-0.030110,0.024648,-0.000133
14776,-5.808333,3.026271,-4.589684,-0.028511,0.025714,0.001599
14791,-5.954380,2.999935,-4.498705,-0.025314,0.022783,0.003597
14806,-5.954380,3.052607,-4.441244,-0.021583,0.022916,0.004530
14821,-6.019023,3.035848,-4.534618,-0.018652,0.015988,-0.001599
14836,-5.813122,2.997540,-4.484340,-0.011591,0.014123,-0.003730
14851,-5.983110,2.975993,-4.477157,-0.015455,0.015855,0.003464
14866,-6.033388,2.820369,-4.532224,-0.019319,0.018119,0.007461
14881,-5.940014,2.959233,-4.505888,-0.022383,0.021983,0.017587
14896,-5.839458,3.004723,-4.462792,-0.032242,0.011591,0.024381
14911,-5.987898,2.990358,-4.424485,-0.027845,0.021317,0.019985
14926,-6.009446,2.968810,-4.501099,-0.022649,0.009726,0.011458
14941,-5.968745,2.997540,-4.390966,-0.018652,0.009326,0.009060
14956,-5.827487,3.002329,-4.513070,-0.013057,0.011991,0.000933
14971,-5.980716,2.971204,-4.558560,-0.012524,0.014789,-0.002665
14986,-5.990293,2.889802,-4.596867,-0.015855,0.015721,-0.004930
15001,-5.954380,2.940080,-4.539406,-0.019718,0.014922,0.001998
15016,-5.894525,2.985569,-4.582502,-0.031309,0.015188,0.005462
15031,-5.951985,2.920926,-4.515464,-0.029178,0.014789,0.001732
15046,-6.040571,3.021482,-4.565742,-0.024248,0.014655,0.002132
15061,-5.999869,3.004723,-4.525041,-0.021717,0.018119,0.002265
15076,-5.841852,2.930503,-4.635174,-0.020251,0.018919,-0.001599
15091,-5.995081,2.829946,-4.589684,-0.029977,0.019851,0.013723
15106,-5.987898,3.019088,-4.390966,-0.027046,0.021184,0.009992
15121,-5.872977,3.028665,-4.493917,-0.018253,0.020518,-0.000933
15136,-5.841852,2.892196,-4.527435,-0.019319,0.020118,-0.003730
15151,-5.963956,2.853888,-4.659116,-0.026113,0.009593,0.004796
15166,-5.961562,2.870648,-4.618415,-0.035440,0.012124,0.010792
15181,-5.870583,3.043030,-4.539406,-0.036639,0.003864,0.012923
15196,-5.868188,3.088520,-4.510676,-0.039969,0.005729,0.017054
15211,-6.047753,3.031059,-4.491522,-0.033308,0.010525,0.015055
15226,-5.959168,2.973598,-4.527435,-0.023715,0.001865,0.004930
15241,-5.987898,2.966416,-4.548983,-0.019851,0.008793,-0.000133
15256,-5.872977,2.844311,-4.594473,-0.022516,0.009726,0.004663
15271,-6.009446,2.901772,-4.577713,-0.028778,0.017587,0.005462
15286,-5.968745,2.978387,-4.522647,-0.029977,0.017986,0.000400
15301,-5.870583,2.992752,-4.563348,-0.029577,0.008394,0.002531
15316,-5.930438,2.940080,-4.462792,-0.024515,0.016920,-0.002398
15331,-5.980716,2.980781,-4.508282,-0.024914,0.005995,-0.000533
15346,-5.884948,2.940080,-4.515464,-0.026113,0.008527,-0.005995
15361,-5.916072,2.885013,-4.563348,-0.035040,0.011991,0.001466
15376,-6.088455,2.813187,-4.647145,-0.040636,0.012657,0.011991
15391,-5.947197,2.920926,-4.560954,-0.040902,0.012524,0.016121
15406,-5.899313,3.023877,-4.515464,-0.040502,0.015455,0.007461
15421,-5.896919,3.095703,-4.556166,-0.031176,0.014256,0.004130
15436,-6.083666,3.016694,-4.601655,-0.029178,0.014522,-0.002931
15451,-5.928043,2.904167,-4.560954,-0.029977,0.015988,0.001998
15466,-5.858612,2.964022,-4.460398,-0.032375,0.009459,0.002798
15481,-5.987898,2.908955,-4.477157,-0.039170,0.009992,0.009726
15496,-6.011840,2.904167,-4.520253,-0.036106,0.013989,0.003597
15511,-6.054936,2.966416,-4.553771,-0.034107,0.016254,0.001466
15526,-5.851429,2.961627,-4.604050,-0.034773,0.017453,0.001998
15541,-5.930438,2.904167,-4.563348,-0.034507,0.017986,0.004397
15556,-6.071695,2.973598,-4.611232,-0.028645,0.019319,0.003864
15571,-5.995081,3.093308,-4.534618,-0.021983,0.012657,-0.000133
15586,-5.894525,2.980781,-4.527435,-0.020917,0.013590,-0.002798
15601,-5.923255,2.956839,-4.627992,-0.017320,0.014655,-0.001732
15616,-6.026206,2.868254,-4.513070,-0.020384,0.007861,0.003198
15631,-6.040571,2.837129,-4.469975,-0.025047,0.013456,0.005729
15646,-5.877765,2.968810,-4.565742,-0.029977,0.007727,0.008127
15661,-5.937620,2.975993,-4.568137,-0.031576,0.010925,0.009193
15676,-6.057330,2.947262,-4.479551,-0.024515,0.009726,0.001865
15691,-5.987898,2.928109,-4.508282,-0.028911,0.012923,0.001199
15706,-5.877765,2.980781,-4.599261,-0.024781,0.004397,0.004397
15721,-5.937620,2.954445,-4.553771,-0.022516,0.007328,0.003064
15736,-6.045359,2.911349,-4.563348,-0.019985,0.006262,-0.003064
15751,-6.021417,2.920926,-4.501099,-0.011591,0.006928,-0.006795
15766,-5.916072,2.877831,-4.505888,-0.018519,0.011325,-0.003730
15781,-5.870583,2.892196,-4.572925,-0.023315,0.012657,0.002531
15796,-6.050148,2.896984,-4.589684,-0.030243,0.012391,0.000666
15811,-5.932832,2.978387,-4.501099,-0.029577,0.012923,0.002931
15826,-5.894525,2.947262,-4.455609,-0.031043,0.009992,0.004930
15841,-5.920861,2.971204,-4.548983,-0.028778,0.010925,0.003597
15856,-5.980716,2.899378,-4.398149,-0.021583,0.012257,-0.004530
15871,-5.959168,2.906561,-4.390966,-0.019718,0.012124,-0.005329
15886,-5.911284,2.920926,-4.551377,-0.022250,0.009726,-0.004397
15901,-5.968745,2.851494,-4.584896,-0.028911,0.014922,0.004397
15916,-5.980716,2.925714,-4.560954,-0.038770,0.013057,0.014123
15931,-5.985504,2.952051,-4.508282,-0.038637,0.004930,0.015588
15946,-5.908890,3.028665,-4.489128,-0.030377,0.010658,0.006662
15961,-5.928043,2.973598,-4.570531,-0.031309,0.008793,0.010658
15976,-6.047753,2.892196,-4.620809,-0.030243,0.012124,0.010525
15991,-6.064513,2.916138,-4.529830,-0.029711,0.019985,0.000933
16006,-5.937620,2.944868,-4.479551,-0.028245,0.016654,0.003464
16021,-6.004658,2.894590,-4.656722,-0.030377,0.014256,-0.000533
16036,-6.007052,2.885013,-4.539406,-0.034240,0.022783,0.001332
16051,-6.045359,2.966416,-4.520253,-0.036372,0.016521,0.003064
16066,-5.920861,2.949656,-4.608838,-0.034507,0.014922,0.001865
16081,-5.954380,2.880225,-4.580108,-0.040902,0.014789,0.007461
16096,-6.066907,2.944868,-4.577713,-0.042767,0.014789,0.009459
16111,-5.987898,2.997540,-4.537012,-0.040769,0.022250,0.007861
16126,-5.880159,2.995146,-4.498705,-0.034640,0.017853,0.002132
16141,-6.004658,2.889802,-4.513070,-0.030110,0.017320,-0.000533
16156,-5.987898,2.853888,-4.498705,-0.031443,0.008127,0.001199
16171,-6.054936,2.968810,-4.453215,-0.031043,0.012790,-0.001466
16186,-5.865794,2.952051,-4.491522,-0.034374,0.012657,0.000400
16201,-5.992687,2.858677,-4.498705,-0.040236,0.014655,0.007061
16216,-6.014235,2.877831,-4.498705,-0.041568,0.015322,0.011325
16231,-6.069301,2.966416,-4.525041,-0.046764,0.016920,0.010658
16246,-5.906496,2.987964,-4.510676,-0.045032,0.013989,0.009593
16261,-5.901707,2.928109,-4.647145,-0.043167,0.007194,0.008527
16276,-5.997475,2.932897,-4.563348,-0.045299,0.007727,0.007861
16291,-5.987898,2.990358,-4.560954,-0.039570,-0.001066,0.005995
16306,-5.930438,3.014300,-4.462792,-0.039170,0.008793,0.001199
16321,-5.906496,2.954445,-4.525041,-0.036239,0.001732,0.005596
16336,-6.026206,2.887407,-4.575319,-0.038237,0.005462,0.012391
16351,-6.035782,3.004723,-4.481946,-0.040769,0.009859,0.011858
16366,-5.942409,3.033453,-4.419696,-0.034240,0.013456,0.005329
16381,-5.825093,3.009511,-4.539406,-0.034507,0.011058,0.006528
16396,-6.057330,2.904167,-4.515464,-0.029444,0.010925,0.006795
16411,-6.028600,2.908955,-4.544195,-0.032642,0.012524,0.009060
16426,-5.937620,2.973598,-4.517859,-0.027312,0.008660,0.005596
16441,-5.916072,2.944868,-4.508282,-0.028911,0.013856,0.003864
16456,-6.045359,2.865859,-4.503493,-0.031309,0.011591,0.003464
16471,-6.057330,2.985569,-4.508282,-0.031842,0.027446,-0.005329
16486,-5.916072,2.975993,-4.623203,-0.033041,0.016787,-0.004796
16501,-5.932832,2.918532,-4.553771,-0.027712,0.017054,-0.005596
16516,-6.052542,2.904167,-4.467580,-0.031443,0.016521,-0.005995
16531,-6.057330,2.911349,-4.575319,-0.035573,0.017986,-0.001865
16546,-5.918467,2.908955,-4.544195,-0.042234,0.014655,0.003864
16561,-5.861006,2.942474,-4.453215,-0.050228,0.009726,0.012124
16576,-6.059724,3.019088,-4.558560,-0.052626,0.002132,0.017720
16591,-5.978322,3.074155,-4.493917,-0.041035,0.007861,0.010792
16606,-5.963956,3.119645,-4.539406,-0.029311,0.015855,0.004263
16621,-5.827487,2.973598,-4.623203,-0.029444,0.012391,0.006262
16636,-6.057330,2.923320,-4.486734,-0.034773,0.024648,0.008527
16651,-6.069301,2.952051,-4.639963,-0.037305,0.017587,0.009859
16666,-5.918467,2.966416,-4.525041,-0.033974,0.021184,0.010392
16681,-5.865794,2.952051,-4.534618,-0.039703,0.011724,0.018119
16696,-6.026206,2.973598,-4.515464,-0.036106,0.017187,0.013456
16711,-6.021417,2.949656,-4.522647,-0.032908,0.007727,0.011325
16726,-5.923255,2.966416,-4.503493,-0.031443,0.016121,0.005862
16741,-5.980716,2.952051,-4.544195,-0.028778,0.014123,0.003864
16756,-6.035782,2.851494,-4.503493,-0.036639,0.013323,0.002798
16771,-6.038177,2.861071,-4.560954,-0.034507,0.017054,0.008260
16786,-5.961562,2.968810,-4.489128,-0.042634,0.022783,0.007994
16801,-5.999869,3.078943,-4.479551,-0.031176,0.025047,-0.001732
16816,-6.035782,2.987964,-4.529830,-0.023848,0.025314,-0.002665
16831,-5.978322,2.990358,-4.606444,-0.025580,0.016121,0.003730
16846,-5.884948,2.959233,-4.534618,-0.027845,0.013856,0.007194
16861,-5.916072,2.990358,-4.484340,-0.026113,0.012257,0.003730
16876,-6.007052,2.937685,-4.517859,-0.029178,0.007994,-0.000266
16891,-6.047753,2.944868,-4.546589,-0.028112,0.013190,-0.002132
16906,-5.949591,2.964022,-4.570531,-0.029844,0.011058,0.001466
16921,-5.916072,3.045424,-4.462792,-0.027446,0.023315,-0.004530
16936,-6.074090,3.002329,-4.501099,-0.026380,0.029044,0.000400
16951,-5.932832,2.889802,-4.505888,-0.028378,0.016387,0.003464
16966,-5.887342,2.978387,-4.479551,-0.028245,0.022916,0.006262
16981,-5.942409,2.966416,-4.517859,-0.034640,0.017187,0.008260
16996,-5.975927,2.956839,-4.481946,-0.034107,0.012257,0.011058
17011,-5.971139,2.980781,-4.529830,-0.033974,0.013989,0.009593
17026,-5.932832,2.987964,-4.450821,-0.024115,0.015455,-0.001332
17041,-5.940014,2.892196,-4.599261,-0.025980,0.016920,0.000266
17056,-6.007052,2.868254,-4.568137,-0.026779,0.015988,0.002132
17071,-6.009446,2.973598,-4.517859,-0.027979,0.019718,0.003064
17086,-5.892130,3.038242,-4.493917,-0.025447,0.015721,-0.000133
17101,-5.841852,2.961627,-4.498705,-0.022916,0.019319,-0.000533
17116,-6.038177,2.952051,-4.541800,-0.021850,0.018786,-0.000933
17131,-5.999869,2.975993,-4.544195,-0.026646,0.019452,-0.002398
17146,-5.937620,2.896984,-4.548983,-0.035839,0.012391,0.006662
17161,-5.949591,2.856282,-4.513070,-0.038371,0.013590,0.005729
17176,-6.030994,2.947262,-4.596867,-0.036772,0.010925,0.007194
17191,-5.983110,3.011906,-4.548983,-0.029311,0.015455,-0.001998
17206,-5.935226,3.002329,-4.532224,-0.029444,0.014522,-0.007061
17221,-5.944803,2.997540,-4.520253,-0.030243,0.012657,-0.003064
17236,-5.999869,2.894590,-4.520253,-0.027446,0.017187,-0.002132
17251,-5.997475,2.966416,-4.529830,-0.025980,0.011858,-0.002665
17266,-5.853823,3.004723,-4.489128,-0.030643,0.019851,-0.001599
17281,-5.935226,2.937685,-4.611232,-0.039969,0.015855,0.010658
17296,-5.975927,2.956839,-4.539406,-0.035440,0.013590,0.011458
17311,-6.038177,2.956839,-4.529830,-0.038371,0.014522,0.011991
17326,-5.911284,3.007117,-4.393360,-0.028378,0.005862,0.004663
17341,-5.951985,2.942474,-4.527435,-0.023582,0.019851,-0.001732
17356,-6.009446,2.827552,-4.496311,-0.031576,0.009593,0.003997
17371,-6.052542,2.916138,-4.534618,-0.036239,0.010925,0.005729
17386,-5.896919,2.999935,-4.594473,-0.034773,0.011858,0.004663
17401,-5.861006,2.935291,-4.541800,-0.041435,0.008394,0.009060
17416,-6.069301,2.964022,-4.594473,-0.042234,0.019585,0.013856
17431,-5.995081,2.935291,-4.546589,-0.041701,0.014256,0.018919
17446,-5.963956,3.028665,-4.443638,-0.037172,0.019851,0.011991
17461,-5.920861,2.875436,-4.443638,-0.038770,0.005063,0.013989
17476,-6.011840,2.834735,-4.517859,-0.042101,0.011058,0.013590
17491,-6.078878,3.014300,-4.563348,-0.040769,0.011991,0.016521
17506,-5.700594,3.045424,-4.355053,-0.029178,0.025314,0.005995
17521,-6.110003,2.983175,-4.625597,-0.017720,0.056090,-0.022250
17536,-5.896919,2.844311,-4.529830,-0.037305,0.011058,0.004130
17551,-5.966351,2.971204,-4.647145,-0.043433,0.038104,0.004130
17566,-6.028600,2.937685,-4.498705,-0.045565,0.018519,0.006129
17581,-5.758055,2.959233,-4.441244,-0.044499,-0.001599,0.009992
17596,-6.045359,2.877831,-4.505888,-0.050095,0.025314,0.005329
17611,-6.069301,2.913743,-4.481946,-0.056757,0.005862,0.010792
17626,-5.963956,2.913743,-4.565742,-0.065550,0.013323,0.017587
17641,-5.947197,2.961627,-4.498705,-0.059421,0.019985,0.018519
17656,-6.155492,3.004723,-4.424485,-0.057956,0.013456,0.017187
17671,-5.992687,3.035848,-4.481946,-0.049029,0.011858,0.010259
17686,-5.872977,3.105279,-4.481946,-0.043167,0.013723,0.005196
17701,-5.837064,3.114856,-4.426879,-0.042368,0.012257,0.003464
17716,-5.999869,3.076549,-4.515464,-0.037172,0.010925,0.002931
17731,-6.007052,3.019088,-4.479551,-0.036372,0.014922,0.000799
17746,-5.997475,3.093308,-4.453215,-0.027979,0.015188,-0.002798
17761,-5.884948,3.004723,-4.458004,-0.029044,0.007994,-0.004263
17776,-6.016629,2.973598,-4.537012,-0.026113,0.022383,-0.006528
17791,-6.014235,2.932897,-4.477157,-0.035573,0.014123,0.001199
17806,-5.944803,2.954445,-4.546589,-0.036106,0.019585,0.010392
17821,-5.889736,3.057395,-4.527435,-0.042101,0.011458,0.014655
17836,-5.973533,2.973598,-4.505888,-0.033708,0.015322,0.014256
17851,-6.026206,3.086126,-4.508282,-0.023982,0.006395,0.007461
17866,-5.916072,3.071761,-4.477157,-0.019185,0.010792,-0.001732
17881,-5.913678,2.995146,-4.553771,-0.021317,0.007328,-0.001732
17896,-6.062119,2.911349,-4.517859,-0.022250,0.014256,0.003730
17911,-6.083666,2.999935,-4.532224,-0.025847,0.013856,0.003064
17926,-5.870583,2.997540,-4.484340,-0.028378,0.017720,0.011858
17941,-5.937620,3.004723,-4.467580,-0.023182,0.014123,0.005329
17956,-5.992687,2.966416,-4.563348,-0.023315,0.011058,0.004130
17971,-5.961562,2.978387,-4.479551,-0.023982,0.008260,0.007461
17986,-5.932832,3.055001,-4.527435,-0.025980,-0.000400,0.006928
18001,-5.882554,2.947262,-4.438850,-0.026513,0.013456,0.007461
18016,-6.069301,2.983175,-4.503493,-0.022916,0.018519,0.002531
18031,-6.069301,3.007117,-4.434062,-0.022250,0.017720,-0.003064
18046,-5.923255,2.901772,-4.548983,-0.025181,0.020518,-0.002265
18061,-5.889736,2.873042,-4.443638,-0.025714,0.015455,-0.000400
18076,-5.990293,2.980781,-4.529830,-0.029044,0.013057,-0.000799
18091,-6.102820,2.940080,-4.489128,-0.036505,0.015322,0.004263
18106,-5.894525,2.973598,-4.544195,-0.038104,0.009593,0.009459
18121,-5.913678,3.045424,-4.560954,-0.033441,0.014256,0.010658
18136,-6.030994,3.014300,-4.429273,-0.027979,0.014789,0.002265
18151,-6.042965,2.964022,-4.393360,-0.021051,0.019319,-0.006928
18166,-5.975927,2.961627,-4.496311,-0.022916,0.022516,-0.005196
18181,-5.901707,2.896984,-4.462792,-0.036505,0.020251,0.004930
18196,-6.040571,2.906561,-4.424485,-0.042368,0.025714,0.006795
18211,-6.035782,3.009511,-4.505888,-0.040369,0.015721,0.004530
18226,-5.899313,3.078943,-4.472369,-0.033574,0.008260,0.001599
18241,-5.949591,2.961627,-4.548983,-0.037571,0.020251,0.001732
18256,-6.028600,2.937685,-4.453215,-0.039303,0.012257,0.009859
18271,-6.078878,2.980781,-4.577713,-0.044632,0.023449,0.011325
18286,-5.911284,3.043030,-4.501099,-0.043034,0.017320,0.016787
18301,-5.896919,3.069366,-4.496311,-0.039703,0.023049,0.009193
18316,-5.999869,2.906561,-4.431667,-0.037438,0.008260,0.007461
18331,-6.059724,2.980781,-4.493917,-0.036106,0.006395,0.005729
18346,-5.980716,2.995146,-4.481946,-0.033708,0.012790,0.000000
18361,-5.966351,3.007117,-4.498705,-0.031309,0.013057,-0.001732
18376,-5.954380,2.987964,-4.460398,-0.030643,0.015988,-0.004796
18391,-6.052542,3.002329,-4.635174,-0.031975,0.021184,0.002931
18406,-5.928043,3.069366,-4.453215,-0.028511,0.020917,0.000400
18421,-5.925649,2.992752,-4.532224,-0.034507,0.016254,0.005196
18436,-5.990293,2.959233,-4.505888,-0.034374,0.019851,0.002132
18451,-5.992687,3.014300,-4.419696,-0.031176,0.019718,0.000000
18466,-5.901707,3.045424,-4.534618,-0.027845,0.019452,0.002665
18481,-5.942409,3.007117,-4.517859,-0.025447,0.011591,-0.000133
18496,-5.954380,2.971204,-4.508282,-0.021717,0.013190,-0.008527
18511,-5.983110,2.944868,-4.510676,-0.014655,0.016920,-0.007061
18526,-6.052542,2.964022,-4.537012,-0.021983,0.020251,-0.007861
18541,-5.880159,2.959233,-4.570531,-0.029577,0.017853,0.002798
18556,-6.004658,3.007117,-4.472369,-0.026779,0.026380,0.004397
18571,-6.023811,3.086126,-4.548983,-0.026779,0.019851,0.004930
18586,-5.880159,3.016694,-4.467580,-0.020118,0.023582,0.003997
18601,-5.940014,3.055001,-4.539406,-0.013590,0.019585,0.000000
18616,-5.971139,2.992752,-4.587290,-0.008260,0.019319,-0.004796
18631,-6.023811,2.944868,-4.575319,-0.000666,0.017320,-0.011191
18646,-5.944803,2.896984,-4.517859,-0.010392,0.014922,-0.008394
18661,-5.992687,2.856282,-4.620809,-0.023049,0.011591,0.000400
18676,-6.002264,2.882619,-4.501099,-0.034907,0.012391,0.007994
18691,-5.882554,2.956839,-4.481946,-0.037838,0.014922,0.005995
18706,-6.019023,2.966416,-4.532224,-0.031176,0.014922,0.005329
18721,-6.054936,2.904167,-4.596867,-0.026646,0.015588,-0.000266
18736,-6.016629,2.975993,-4.527435,-0.024115,0.016387,-0.003198
18751,-5.884948,3.026271,-4.577713,-0.023315,0.013989,-0.006262
18766,-5.904101,2.899378,-4.553771,-0.024781,0.016254,-0.009459
18781,-6.121974,2.849100,-4.627992,-0.031709,0.013723,0.005063
18796,-5.978322,2.870648,-4.537012,-0.041701,0.013190,0.013456
18811,-5.822699,2.980781,-4.438850,-0.045965,0.019851,0.016521
18826,-5.995081,2.995146,-4.587290,-0.039170,0.013856,0.013190
18841,-6.035782,2.920926,-4.450821,-0.037571,0.011325,0.010259
18856,-5.995081,2.942474,-4.539406,-0.035306,0.012657,0.001466
18871,-5.865794,2.997540,-4.438850,-0.028778,0.020518,-0.004930
18886,-5.906496,2.930503,-4.510676,-0.028112,0.020518,-0.011191
18901,-6.038177,2.849100,-4.594473,-0.029444,0.017587,-0.010525
18916,-5.997475,2.846706,-4.520253,-0.040636,0.017320,-0.003331
18931,-5.908890,2.911349,-4.522647,-0.049296,0.003198,0.005063
18946,-5.966351,3.014300,-4.604050,-0.051960,0.011458,0.008527
18961,-6.023811,2.964022,-4.527435,-0.049562,0.012124,0.005596
18976,-5.959168,2.995146,-4.446033,-0.041035,0.020917,-0.000266
18991,-5.882554,3.098097,-4.467580,-0.033441,0.018786,-0.001199
19006,-5.959168,3.107674,-4.498705,-0.023315,0.021850,-0.012790
19021,-6.023811,2.935291,-4.546589,-0.016254,0.019851,-0.017720
19036,-5.944803,2.940080,-4.491522,-0.017720,0.016121,-0.018519
19051,-5.932832,2.978387,-4.472369,-0.017853,0.015855,-0.013057
19066,-5.997475,2.961627,-4.544195,-0.029577,0.011058,-0.006528
19081,-6.074090,2.916138,-4.501099,-0.031842,0.020251,0.002531
19096,-5.942409,3.014300,-4.496311,-0.028645,0.014655,0.009060
19111,-5.901707,3.093308,-4.436456,-0.016521,0.019319,-0.003597
19126,-5.942409,3.045424,-4.527435,-0.010658,0.012923,-0.008394
19141,-6.009446,2.887407,-4.513070,-0.010658,0.014389,-0.010392
19156,-6.052542,2.861071,-4.639963,-0.015721,0.010658,-0.005329
19171,-5.961562,2.877831,-4.592079,-0.032375,0.012257,0.010126
19186,-5.961562,2.870648,-4.431667,-0.037438,0.014655,0.016121
19201,-6.086061,2.983175,-4.560954,-0.037038,0.017986,0.014256
19216,-5.956774,3.004723,-4.553771,-0.032242,0.015322,0.008527
19231,-5.846641,3.021482,-4.551377,-0.025980,0.015455,0.004263
19246,-5.985504,3.009511,-4.560954,-0.026113,0.013057,0.009193
19261,-6.042965,2.940080,-4.589684,-0.024381,0.015721,0.004663
19276,-6.033388,2.853888,-4.651934,-0.027979,0.017853,0.009992
19291,-5.889736,2.973598,-4.503493,-0.029178,0.012923,0.015322
19306,-5.968745,2.935291,-4.515464,-0.027446,0.021317,0.010126
19321,-5.971139,2.959233,-4.489128,-0.026646,0.012790,0.006129
19336,-5.947197,2.952051,-4.484340,-0.027979,0.014389,0.002798
19351,-5.959168,2.901772,-4.551377,-0.028245,0.010126,0.005063
19366,-5.949591,2.911349,-4.508282,-0.032775,0.007461,0.002265
19381,-6.054936,2.877831,-4.515464,-0.038637,0.007861,0.008660
19396,-6.002264,2.954445,-4.501099,-0.041168,0.004130,0.015322
19411,-5.920861,3.016694,-4.534618,-0.039303,0.004397,0.012524
19426,-5.956774,2.992752,-4.491522,-0.036905,0.005196,0.010658
19441,-6.098032,2.942474,-4.446033,-0.033041,0.010658,0.004930
19456,-5.995081,2.928109,-4.575319,-0.030776,0.008527,0.006528
19471,-5.935226,2.918532,-4.534618,-0.034240,0.016254,0.001199
19486,-5.949591,2.935291,-4.551377,-0.037571,0.010126,0.007994
19501,-5.978322,2.964022,-4.544195,-0.039303,0.012524,0.005063
19516,-5.971139,2.973598,-4.513070,-0.035706,0.008793,0.004130
19531,-5.940014,3.050213,-4.525041,-0.037172,0.007994,0.007861
19546,-5.975927,2.956839,-4.587290,-0.039703,0.004130,0.013057
19561,-6.019023,2.875436,-4.467580,-0.038237,0.013723,0.012124
19576,-6.064513,2.937685,-4.467580,-0.042634,0.008793,0.009992
19591,-5.932832,2.952051,-4.481946,-0.039969,0.013057,0.009726
19606,-5.968745,2.992752,-4.517859,-0.040502,0.013190,0.006129
19621,-6.004658,2.940080,-4.537012,-0.038104,0.008926,0.003331
19636,-6.038177,2.956839,-4.450821,-0.035573,0.009060,0.003198
19651,-5.901707,2.997540,-4.453215,-0.037571,0.008926,0.002531
19666,-5.940014,2.932897,-4.534618,-0.040636,0.005995,0.007994
19681,-6.038177,2.961627,-4.496311,-0.037438,0.007461,0.009726
19696,-6.033388,2.995146,-4.472369,-0.042234,0.015721,0.002398
19711,-5.894525,2.992752,-4.527435,-0.038504,0.008926,0.003464
19726,-5.973533,2.992752,-4.513070,-0.030510,0.017320,-0.000133
19741,-6.054936,3.014300,-4.527435,-0.029577,0.014256,-0.003331
19756,-5.990293,2.966416,-4.484340,-0.026247,0.016654,-0.006662
19771,-5.975927,2.954445,-4.582502,-0.029044,0.017587,0.001732
19786,-5.937620,2.959233,-4.522647,-0.034374,0.007861,0.004663
19801,-6.076484,3.028665,-4.412514,-0.031576,0.012524,0.003464
19816,-6.016629,2.995146,-4.498705,-0.034773,0.015055,0.003997
19831,-5.896919,3.002329,-4.491522,-0.042767,0.010525,0.005995
19846,-6.016629,2.964022,-4.441244,-0.037838,0.014655,0.008660
19861,-6.105214,2.961627,-4.589684,-0.041835,0.011591,0.014522
19876,-5.975927,2.987964,-4.513070,-0.043700,0.012790,0.017853
19891,-5.870583,3.014300,-4.429273,-0.033974,0.018253,0.004530
19906,-5.949591,2.944868,-4.493917,-0.030910,0.007461,0.008127
19921,-6.021417,2.971204,-4.405331,-0.028112,0.016387,-0.002931
19936,-5.990293,2.961627,-4.522647,-0.028911,0.009593,-0.001865
19951,-5.913678,2.932897,-4.601655,-0.032375,0.016787,0.003064
19966,-5.935226,2.887407,-4.513070,-0.033441,0.014389,0.007727
19981,-6.076484,2.999935,-4.472369,-0.031576,0.018786,0.007461
19996,-6.007052,3.076549,-4.450821,-0.031842,0.016387,0.006129
20011,-5.894525,2.973598,-4.486734,-0.025181,0.015588,0.005063
20026,-5.963956,2.952051,-4.486734,-0.025580,0.011191,-0.000666
20041,-6.023811,2.913743,-4.402937,-0.024648,0.017587,-0.004130
20056,-6.047753,2.935291,-4.613626,-0.027446,0.019718,0.001199
20071,-5.978322,3.028665,-4.551377,-0.031842,0.016521,0.010525
20086,-5.995081,3.047819,-4.443638,-0.037038,0.015721,0.009992
20101,-6.088455,2.985569,-4.484340,-0.028911,0.021184,0.002798
20116,-5.985504,2.944868,-4.508282,-0.023449,0.017986,0.000666
20131,-5.954380,2.925714,-4.508282,-0.034907,0.010792,0.002531
20146,-5.975927,2.837129,-4.424485,-0.036372,0.014522,0.006795
20161,-6.102820,2.925714,-4.537012,-0.039170,0.014922,0.014789
20176,-5.954380,3.028665,-4.532224,-0.035573,0.020917,0.008527
20191,-5.911284,3.045424,-4.369418,-0.033708,0.015855,0.005995
20206,-5.949591,2.956839,-4.592079,-0.027579,0.023715,0.001998
20221,-6.110003,2.964022,-4.522647,-0.030110,0.019319,0.003064
20236,-6.004658,2.983175,-4.537012,-0.028378,0.015188,0.000266
20251,-5.937620,2.975993,-4.520253,-0.027046,0.021317,-0.002798
20266,-5.995081,2.896984,-4.606444,-0.040502,0.011858,0.006262
20281,-6.117185,2.885013,-4.472369,-0.046498,0.017453,0.016254
20296,-6.016629,3.023877,-4.426879,-0.047963,0.018919,0.018253
20311,-5.918467,3.105279,-4.381389,-0.041302,0.016787,0.013856
20326,-5.973533,3.009511,-4.508282,-0.034640,0.016121,0.007594
20341,-6.050148,2.923320,-4.426879,-0.031709,0.018652,0.002132
20356,-6.002264,2.928109,-4.489128,-0.032109,0.009459,0.000400
20371,-5.935226,2.995146,-4.496311,-0.030910,0.007994,0.002398
20386,-5.935226,2.865859,-4.541800,-0.039969,0.010392,0.006795
20401,-6.071695,2.880225,-4.498705,-0.048096,0.012257,0.019585
20416,-6.007052,3.098097,-4.489128,-0.048096,0.009593,0.018253
20431,-5.911284,3.105279,-4.501099,-0.049695,0.010658,0.018519
20446,-5.925649,3.088520,-4.534618,-0.025714,0.023449,0.001332
20461,-6.119579,2.906561,-4.544195,-0.025181,0.013590,0.006262
20476,-5.932832,2.961627,-4.393360,-0.019185,0.019052,-0.001332
20491,-5.923255,3.045424,-4.520253,-0.024515,0.008260,0.000266
20506,-5.894525,2.937685,-4.560954,-0.031975,0.008127,-0.001199
20521,-6.110003,2.870648,-4.414908,-0.041568,0.000666,0.007861
20536,-6.042965,2.968810,-4.398149,-0.050495,0.011191,0.008926
20551,-6.019023,3.157952,-4.474763,-0.034773,0.011724,0.005462
20566,-5.983110,2.954445,-4.405331,-0.033441,0.019052,0.003464
20581,-6.016629,2.990358,-4.529830,-0.030377,0.030643,-0.000266
20596,-5.968745,3.038242,-4.560954,-0.027046,0.025047,-0.002132
20611,-5.904101,3.002329,-4.553771,-0.031842,0.019985,0.002798
20626,-5.959168,2.908955,-4.556166,-0.033974,0.015322,0.012923
20641,-6.002264,2.961627,-4.508282,-0.040636,0.011724,0.022250
20656,-5.904101,3.057395,-4.419696,-0.035440,0.012657,0.018652
20671,-5.944803,3.114856,-4.398149,-0.032242,0.012257,0.009992
20686,-5.983110,2.983175,-4.431667,-0.030377,0.008127,0.002398
20701,-6.100426,2.935291,-4.474763,-0.024381,0.016787,0.000266
20716,-6.042965,2.940080,-4.534618,-0.029178,0.012657,-0.001865
20731,-5.901707,2.987964,-4.517859,-0.036505,0.022916,0.003331
20746,-5.923255,3.021482,-4.565742,-0.032642,0.025980,-0.000133
20761,-6.057330,2.968810,-4.637568,-0.033308,0.017187,0.005862
20776,-6.016629,2.973598,-4.448427,-0.035839,0.021184,0.007328
20791,-5.932832,2.975993,-4.484340,-0.037305,0.018919,0.012790
20806,-5.894525,2.992752,-4.472369,-0.033841,0.011858,0.008926
20821,-6.009446,2.937685,-4.498705,-0.038770,0.007727,0.002665
20836,-5.995081,3.019088,-4.520253,-0.037305,0.007194,0.005462
20851,-5.987898,3.076549,-4.522647,-0.032242,0.011458,0.002798
20866,-5.942409,3.019088,-4.429273,-0.031576,0.013723,0.008260
20881,-6.078878,2.954445,-4.484340,-0.035706,0.014789,0.013723
20896,-6.011840,3.031059,-4.599261,-0.041568,0.007861,0.011858
20911,-5.923255,3.078943,-4.412514,-0.037305,0.009060,0.012923
20926,-5.951985,2.956839,-4.474763,-0.038904,0.009459,0.013456
20941,-6.004658,2.992752,-4.508282,-0.037704,0.010792,0.011724
20956,-6.057330,3.035848,-4.446033,-0.033708,0.014123,0.010792
20971,-5.884948,3.055001,-4.486734,-0.024115,0.013856,0.000400
20986,-5.959168,3.028665,-4.462792,-0.020917,0.013723,-0.004663
21001,-6.121974,2.870648,-4.623203,-0.029044,0.011458,0.002132
21016,-6.042965,2.885013,-4.438850,-0.036905,0.005862,0.008793
21031,-5.954380,3.002329,-4.570531,-0.044499,0.012124,0.013989
21046,-5.923255,3.002329,-4.548983,-0.048896,0.009593,0.020917
21061,-6.052542,3.047819,-4.510676,-0.038770,0.020651,0.010392
21076,-6.028600,3.078943,-4.378995,-0.030510,0.014522,0.003730
21091,-5.925649,3.064578,-4.417302,-0.021583,0.019319,-0.007061
21106,-5.911284,2.964022,-4.450821,-0.018919,0.013856,-0.010392
21121,-6.045359,2.882619,-4.469975,-0.026113,0.012923,-0.005729
21136,-6.007052,2.997540,-4.465186,-0.030243,0.010525,0.000533
21151,-5.801151,3.019088,-4.493917,-0.031176,0.020784,-0.003464
21166,-6.066907,2.995146,-4.481946,-0.033441,0.017187,0.000666
21181,-5.995081,3.033453,-4.592079,-0.033175,0.019585,0.004397
21196,-6.035782,3.093308,-4.438850,-0.027179,0.019185,-0.001199
21211,-5.870583,3.028665,-4.496311,-0.030243,0.013057,0.003331
21226,-5.959168,2.892196,-4.546589,-0.027312,0.016254,0.001466
21241,-6.110003,2.923320,-4.537012,-0.037838,0.004130,0.008260
21256,-6.038177,2.975993,-4.400543,-0.039303,0.013190,0.007194
21271,-5.961562,3.043030,-4.513070,-0.039836,0.011058,0.006662
21286,-5.904101,3.074155,-4.532224,-0.035706,0.016920,0.003997
21301,-6.100426,2.971204,-4.546589,-0.028511,0.020917,-0.000266
21316,-6.019023,2.964022,-4.546589,-0.035440,0.014389,0.001466
21331,-5.877765,2.959233,-4.448427,-0.045032,0.009859,0.010525
21346,-5.968745,2.992752,-4.594473,-0.045432,0.012124,0.016254
21361,-6.042965,3.040636,-4.525041,-0.055691,0.017054,0.021450
21376,-5.990293,3.023877,-4.441244,-0.044366,0.018919,0.015188
21391,-5.923255,3.093308,-4.472369,-0.045032,0.020384,0.018119
21406,-5.894525,3.114856,-4.462792,-0.040236,0.014522,0.014922
21421,-6.030994,3.031059,-4.450821,-0.033841,0.015188,0.008394
21436,-6.052542,3.062184,-4.553771,-0.031709,0.016787,0.003198
21451,-5.930438,3.026271,-4.465186,-0.027179,0.015588,0.001066
21466,-5.983110,2.961627,-4.505888,-0.030243,0.011191,0.003597
21481,-6.040571,2.975993,-4.462792,-0.034773,0.010792,0.004130
21496,-6.014235,3.043030,-4.539406,-0.038637,0.011858,0.008527
21511,-5.870583,3.043030,-4.493917,-0.039170,0.007061,0.006795
21526,-6.021417,2.995146,-4.520253,-0.041302,0.014522,0.006395
21541,-6.095637,3.023877,-4.477157,-0.035306,0.009060,0.007194
21556,-6.009446,3.011906,-4.414908,-0.035839,0.012257,0.005729
21571,-5.997475,3.043030,-4.438850,-0.040502,0.012657,0.009326
21586,-5.961562,3.021482,-4.458004,-0.037838,0.013323,0.007061
21601,-6.038177,3.062184,-4.493917,-0.036639,0.014655,0.005196
21616,-6.007052,3.071761,-4.465186,-0.026913,0.017587,0.003331
21631,-5.894525,3.131616,-4.400543,-0.029044,0.011724,0.002665
21646,-5.932832,2.997540,-4.558560,-0.031709,0.020118,0.003997
21661,-5.987898,3.016694,-4.496311,-0.031309,0.008793,0.008527
21676,-6.026206,3.064578,-4.491522,-0.034907,0.010525,0.009193
21691,-5.937620,3.038242,-4.503493,-0.038637,0.010392,0.013856
21706,-5.968745,2.966416,-4.501099,-0.035839,0.008660,0.010126
21721,-6.040571,3.074155,-4.481946,-0.036772,0.012391,0.004930
21736,-6.069301,3.007117,-4.508282,-0.033974,0.012790,0.003730
21751,-5.963956,3.009511,-4.431667,-0.028245,0.019452,0.002531
21766,-6.009446,3.090914,-4.443638,-0.022649,0.017587,-0.003464
21781,-6.009446,3.052607,-4.441244,-0.012524,0.025847,-0.015721
21796,-6.021417,2.964022,-4.400543,-0.009593,0.021983,-0.019851
21811,-5.935226,2.997540,-4.513070,-0.021583,0.016521,-0.011058
21826,-5.916072,2.913743,-4.465186,-0.029044,0.020384,-0.002132
21841,-6.105214,2.873042,-4.467580,-0.041568,0.013989,0.006928
21856,-6.028600,3.076549,-4.477157,-0.043700,0.019985,0.011191
21871,-5.940014,3.119645,-4.551377,-0.045165,-0.006662,0.013057
21886,-5.920861,3.138798,-4.513070,-0.030776,0.027179,0.000933
21901,-6.074090,3.119645,-4.462792,-0.022783,0.013856,0.001466
21916,-5.942409,3.050213,-4.486734,-0.019452,0.018253,-0.006129
21931,-5.942409,3.055001,-4.589684,-0.015055,0.018386,-0.009459
21946,-5.999869,2.916138,-4.498705,-0.025181,0.013723,-0.000799
21961,-6.076484,2.904167,-4.491522,-0.030510,0.018119,-0.002931
21976,-6.054936,3.043030,-4.453215,-0.035972,0.009859,0.008394
21991,-5.841852,3.062184,-4.508282,-0.036905,0.009593,0.005596
22006,-5.954380,3.064578,-4.467580,-0.032242,0.019185,0.008394
22021,-6.105214,3.076549,-4.529830,-0.027579,0.015455,-0.000133
22036,-5.901707,3.112462,-4.400543,-0.015322,0.014123,-0.009992
22051,-6.100426,3.004723,-4.412514,-0.009060,0.025714,-0.015188
22066,-5.978322,2.944868,-4.498705,-0.015055,0.012923,-0.012257
22081,-5.949591,2.983175,-4.513070,-0.019452,0.018119,-0.004397
22096,-5.887342,2.983175,-4.608838,-0.028511,0.013456,0.007727
22111,-5.997475,3.007117,-4.508282,-0.032508,0.008527,0.009060
22126,-6.047753,2.966416,-4.539406,-0.031309,0.007861,0.013590
22141,-6.050148,3.102885,-4.529830,-0.024381,0.016787,0.009459
22156,-5.868188,3.057395,-4.414908,-0.018786,0.007727,0.004796
22171,-6.117185,3.023877,-4.467580,-0.008260,0.022116,-0.005462
22186,-6.016629,2.987964,-4.477157,-0.005063,0.013856,-0.014922
22201,-5.961562,2.942474,-4.558560,-0.006662,0.019452,-0.017453
22216,-5.911284,2.832340,-4.599261,-0.018386,0.019585,-0.009060
22231,-6.083666,2.772485,-4.570531,-0.033441,0.015322,0.000533
22246,-6.009446,2.885013,-4.508282,-0.041035,0.011325,0.008394
22261,-5.918467,3.031059,-4.479551,-0.047164,0.013723,0.016787
22276,-5.975927,3.064578,-4.496311,-0.044899,0.021850,0.016654
22291,-6.057330,3.100491,-4.486734,-0.040369,0.022383,0.008527
22306,-5.961562,3.031059,-4.486734,-0.029977,0.025847,-0.001066
22321,-5.987898,3.059790,-4.510676,-0.024781,0.030643,0.000933
22336,-5.973533,3.069366,-4.517859,-0.026113,0.011991,0.006528
22351,-5.992687,2.975993,-4.525041,-0.018519,0.025181,0.002132
22366,-6.047753,2.911349,-4.534618,-0.024914,0.018253,0.001332
22381,-5.932832,2.992752,-4.467580,-0.032908,0.016654,0.007328
22396,-5.963956,2.975993,-4.508282,-0.036905,0.017720,0.004796
22411,-5.973533,2.987964,-4.491522,-0.033308,0.009326,-0.003997
22426,-6.153098,2.918532,-4.503493,-0.031176,0.024914,-0.005462
22441,-5.894525,2.961627,-4.501099,-0.041701,0.013456,0.002931
22456,-5.930438,3.009511,-4.532224,-0.043700,0.023848,0.008793
22471,-6.030994,3.016694,-4.548983,-0.043034,0.014123,0.007461
22486,-6.045359,3.038242,-4.355053,-0.039303,0.021983,0.003064
22501,-5.944803,2.975993,-4.431667,-0.035306,0.022116,-0.001466
22516,-5.923255,3.035848,-4.560954,-0.026513,0.017986,-0.006795
22531,-6.023811,2.935291,-4.522647,-0.030910,0.015855,-0.005462
22546,-6.042965,2.904167,-4.558560,-0.033308,0.006395,-0.005063
22561,-5.937620,2.908955,-4.489128,-0.037971,0.017054,0.002265
22576,-6.016629,2.932897,-4.529830,-0.046897,0.012124,0.010392
22591,-6.153098,3.107674,-4.388572,-0.047963,0.010126,0.006928
22606,-5.820304,3.078943,-4.448427,-0.027579,0.005729,0.000799
22621,-6.200982,2.964022,-4.572925,-0.035706,0.031443,0.004263
22636,-5.827487,3.023877,-4.472369,-0.039836,0.000666,0.013057
22651,-6.071695,2.904167,-4.553771,-0.037305,0.025714,0.008793
22666,-6.076484,2.940080,-4.544195,-0.041302,0.017587,0.011458
22681,-5.971139,2.973598,-4.525041,-0.045698,0.011991,0.018119
22696,-5.971139,2.978387,-4.453215,-0.046231,0.017587,0.018119
22711,-6.078878,3.138798,-4.513070,-0.034107,0.019585,0.014655
22726,-6.028600,3.126827,-4.424485,-0.024248,0.016654,0.002931
22741,-5.882554,3.052607,-4.505888,-0.013456,0.019585,-0.007861
22756,-5.961562,2.975993,-4.529830,-0.011858,0.019851,-0.012524
22771,-6.033388,2.882619,-4.589684,-0.016521,0.018519,-0.007727
22786,-6.083666,2.861071,-4.613626,-0.026380,0.018919,-0.001732
22801,-5.978322,2.961627,-4.450821,-0.033708,0.019851,-0.000400
22816,-5.851429,2.999935,-4.493917,-0.036372,0.010259,0.004530
22831,-6.090849,2.971204,-4.517859,-0.035440,0.029178,0.006662
22846,-6.038177,3.088520,-4.539406,-0.038504,0.013989,0.006795
22861,-5.968745,3.059790,-4.505888,-0.029711,0.018786,0.005196
22876,-5.944803,3.031059,-4.553771,-0.028911,0.021983,0.006129
22891,-5.978322,2.999935,-4.493917,-0.025714,0.013723,0.002931
22906,-6.069301,2.947262,-4.503493,-0.022383,0.020251,0.000666
22921,-5.904101,2.992752,-4.513070,-0.022783,0.016787,-0.002665
22936,-5.896919,3.019088,-4.520253,-0.020518,0.023582,-0.008793
22951,-6.038177,2.908955,-4.558560,-0.021717,0.023848,-0.004530
22966,-6.076484,2.870648,-4.558560,-0.027979,0.019718,0.001466
22981,-5.925649,3.059790,-4.402937,-0.035972,0.019052,0.011591
22996,-5.932832,3.055001,-4.424485,-0.034374,0.014256,0.014922
23011,-6.042965,2.966416,-4.570531,-0.031709,0.012657,0.007861
23026,-6.023811,2.901772,-4.414908,-0.033175,0.019718,0.007061
23041,-5.942409,2.987964,-4.517859,-0.040636,0.016654,0.011191
23056,-5.949591,3.014300,-4.486734,-0.033841,0.020651,0.010126
23071,-6.057330,3.016694,-4.472369,-0.021051,0.023049,-0.001332
23086,-5.992687,2.990358,-4.417302,-0.017853,0.020384,-0.011458
23101,-5.951985,2.961627,-4.472369,-0.015988,0.019851,-0.007727
23116,-5.916072,2.959233,-4.484340,-0.016387,0.023582,-0.009193
23131,-5.990293,2.964022,-4.541800,-0.022916,0.017853,-0.002931
23146,-6.071695,2.844311,-4.525041,-0.031709,0.007594,0.003464
23161,-5.992687,2.975993,-4.503493,-0.040636,0.020917,0.011724
23176,-5.894525,2.956839,-4.539406,-0.038504,0.016654,0.008793
23191,-5.956774,2.975993,-4.510676,-0.035706,0.019718,0.006129
23206,-6.045359,3.043030,-4.527435,-0.028245,0.018786,-0.003597
23221,-5.880159,3.026271,-4.565742,-0.021717,0.023848,-0.006262
23236,-5.944803,2.975993,-4.539406,-0.025580,0.023982,-0.003997
23251,-5.971139,2.911349,-4.489128,-0.030910,0.014655,0.002665
23266,-6.076484,2.949656,-4.558560,-0.036239,0.006795,0.008660
23281,-5.983110,3.021482,-4.577713,-0.036505,0.015322,0.013190
23296,-5.942409,3.016694,-4.443638,-0.032775,0.015455,0.011858
23311,-5.992687,2.956839,-4.515464,-0.025714,0.016654,0.005196
23326,-6.054936,2.975993,-4.539406,-0.025047,0.017054,0.002265
23341,-5.930438,2.928109,-4.527435,-0.024115,0.020518,0.001732
23356,-5.963956,2.995146,-4.546589,-0.027579,0.011458,0.002132
23371,-5.980716,2.882619,-4.589684,-0.027179,0.011991,-0.000133
23386,-6.033388,2.930503,-4.587290,-0.031309,0.017054,0.001998
23401,-5.980716,2.935291,-4.491522,-0.039570,0.002531,0.009060
23416,-5.884948,2.975993,-4.510676,-0.036639,0.018786,0.011058
23431,-6.088455,2.987964,-4.546589,-0.038104,0.010658,0.012790
23446,-5.983110,2.973598,-4.453215,-0.034374,0.019319,0.007727
23461,-5.944803,2.978387,-4.505888,-0.033175,0.013456,0.003597
23476,-5.935226,2.964022,-4.443638,-0.022116,0.017453,-0.003997
23491,-5.990293,2.980781,-4.486734,-0.030110,0.008260,-0.001332
23506,-6.066907,2.959233,-4.534618,-0.028645,0.023582,0.001199
23521,-5.995081,2.956839,-4.587290,-0.033441,0.016654,0.009859
23536,-5.849035,3.028665,-4.453215,-0.031842,0.020651,0.014123
23551,-5.990293,2.942474,-4.553771,-0.032109,0.019718,0.018786
23566,-6.066907,3.016694,-4.532224,-0.038237,0.017320,0.021051
23581,-5.916072,3.167529,-4.525041,-0.023315,0.019319,0.011724
23596,-5.896919,3.098097,-4.548983,-0.009459,0.012257,-0.006928
23611,-5.942409,2.968810,-4.532224,-0.002398,0.013057,-0.017453
23626,-5.997475,2.794033,-4.594473,-0.011458,0.013856,-0.011991
23641,-6.004658,2.877831,-4.548983,-0.024381,0.014789,0.003064
23656,-5.872977,2.942474,-4.556166,-0.037305,0.010392,0.013057
23671,-6.074090,2.949656,-4.563348,-0.033308,0.015855,0.009193
23686,-6.059724,3.038242,-4.469975,-0.032375,0.012124,0.003864
23701,-5.942409,3.026271,-4.503493,-0.026113,0.015988,0.000799
23716,-5.940014,3.033453,-4.505888,-0.025314,0.012524,0.001599
23731,-5.999869,2.954445,-4.474763,-0.026646,0.014655,-0.001199
23746,-6.069301,2.882619,-4.570531,-0.029577,0.019052,0.001332
23761,-5.892130,2.971204,-4.563348,-0.030510,0.008660,0.008260
23776,-5.908890,2.901772,-4.484340,-0.034107,0.014655,0.010126
23791,-5.997475,2.930503,-4.477157,-0.036505,0.014922,0.010392
23806,-6.033388,2.997540,-4.465186,-0.031975,0.011591,0.006928
23821,-5.925649,2.973598,-4.637568,-0.029844,0.008394,0.001732
23836,-5.913678,2.937685,-4.458004,-0.029178,0.013456,-0.001732
23851,-6.021417,2.911349,-4.513070,-0.028511,0.008260,0.000666
23866,-6.030994,2.918532,-4.534618,-0.026380,0.015455,-0.001066
23881,-5.954380,2.923320,-4.460398,-0.029178,0.021450,0.000133
23896,-5.899313,2.995146,-4.450821,-0.036905,0.018119,0.008260
23911,-5.997475,2.911349,-4.575319,-0.037704,0.018786,0.006928
23926,-6.004658,2.932897,-4.522647,-0.041168,0.011724,0.005596
23941,-5.973533,3.064578,-4.429273,-0.033441,0.010658,0.001332
23956,-5.901707,2.987964,-4.450821,-0.029311,0.010925,-0.006129
23971,-6.004658,2.834735,-4.544195,-0.027446,0.015188,-0.007594
23986,-6.093243,2.925714,-4.572925,-0.035573,0.017453,-0.002798
24001,-5.935226,2.971204,-4.431667,-0.034640,0.020384,-0.005862
24016,-5.892130,2.992752,-4.443638,-0.027446,0.024515,-0.011458
24031,-6.028600,2.863465,-4.515464,-0.030243,0.024115,-0.010525
24046,-6.026206,2.899378,-4.489128,-0.035573,0.018919,-0.006395
24061,-5.947197,3.004723,-4.501099,-0.036772,0.017054,0.000533
24076,-5.947197,3.002329,-4.491522,-0.036372,0.007461,0.007861
24091,-5.995081,2.930503,-4.462792,-0.041835,0.013190,0.010658
24106,-6.042965,3.011906,-4.541800,-0.038237,0.010792,0.013190
24121,-5.942409,3.038242,-4.481946,-0.040236,0.008127,0.010658
24136,-5.913678,3.016694,-4.465186,-0.035706,0.010792,0.013456
24151,-6.038177,2.885013,-4.486734,-0.035173,0.009193,0.012524
24166,-6.121974,2.937685,-4.601655,-0.030910,0.013456,0.006928
24181,-5.940014,3.016694,-4.560954,-0.028511,0.007727,-0.001732
24196,-5.937620,3.011906,-4.517859,-0.023982,0.020651,-0.007061
24211,-5.973533,2.983175,-4.565742,-0.028378,0.002931,-0.004796
24226,-6.042965,2.873042,-4.496311,-0.029178,0.014922,-0.004663
24241,-5.987898,2.997540,-4.498705,-0.032375,0.010792,-0.004930
24256,-5.920861,2.904167,-4.469975,-0.038237,0.011191,0.008527
24271,-6.057330,2.940080,-4.493917,-0.042900,0.018386,0.015721
24286,-6.083666,2.987964,-4.460398,-0.042368,0.011858,0.021717
24301,-5.937620,3.021482,-4.546589,-0.037571,0.021184,0.020384
24316,-5.930438,2.990358,-4.539406,-0.033308,0.021583,0.016254
24331,-6.076484,3.052607,-4.611232,-0.027312,0.016254,0.011591
24346,-6.030994,3.043030,-4.405331,-0.017853,0.021450,-0.001199
24361,-6.007052,2.947262,-4.448427,-0.012790,0.020917,-0.007461
24376,-5.904101,2.875436,-4.661510,-0.021850,0.011591,0.001066
24391,-5.966351,2.849100,-4.541800,-0.035573,0.016787,0.014655
24406,-6.033388,2.944868,-4.462792,-0.042501,0.009193,0.021184
24421,-5.944803,3.043030,-4.544195,-0.041035,0.012923,0.019185
24436,-5.937620,3.040636,-4.481946,-0.038504,0.015721,0.016254
24451,-5.995081,3.011906,-4.570531,-0.032109,0.012257,0.010792
24466,-6.011840,3.004723,-4.546589,-0.022250,0.018119,0.004263
24481,-5.980716,3.069366,-4.489128,-0.015055,0.015721,-0.007994
24496,-5.944803,2.992752,-4.498705,-0.006662,0.021583,-0.013590
24511,-6.033388,2.873042,-4.462792,-0.009326,0.017054,-0.011325
24526,-5.978322,2.806004,-4.529830,-0.021583,0.019052,-0.001865
24541,-6.050148,2.983175,-4.577713,-0.031709,0.021850,0.009459
24556,-5.810728,2.966416,-4.513070,-0.032642,0.008926,0.009593
24571,-5.963956,2.935291,-4.580108,-0.033574,0.020651,0.011458
24586,-6.062119,3.026271,-4.532224,-0.032775,0.013989,0.016121
24601,-5.880159,2.985569,-4.436456,-0.018919,0.011724,0.001332
24616,-5.925649,2.959233,-4.484340,-0.006928,0.021051,-0.015588
24631,-6.038177,2.858677,-4.594473,-0.013190,0.006262,-0.012124
24646,-6.009446,2.813187,-4.630386,-0.023182,0.009459,-0.006395
24661,-5.973533,2.916138,-4.551377,-0.034773,0.011991,0.007194
24676,-5.923255,2.913743,-4.589684,-0.045165,0.011458,0.011991
24691,-6.038177,2.930503,-4.472369,-0.040502,0.015455,0.012391
24706,-6.081272,2.971204,-4.601655,-0.039303,0.020518,0.017587
24721,-5.928043,3.014300,-4.532224,-0.049029,0.025580,0.009459
24736,-5.961562,2.975993,-4.587290,-0.032242,0.038371,0.003597
24751,-6.009446,2.935291,-4.596867,-0.031043,0.008926,0.005729
24766,-6.016629,2.923320,-4.484340,-0.026646,0.019585,-0.005596
24781,-5.990293,2.985569,-4.517859,-0.028245,0.010792,0.003864
24796,-5.880159,2.925714,-4.656722,-0.031709,0.012257,0.005995
24811,-5.997475,2.942474,-4.508282,-0.029178,0.008527,0.003730
24826,-6.059724,2.906561,-4.529830,-0.031975,0.012790,0.002132
24841,-5.963956,2.961627,-4.525041,-0.033974,0.014389,0.001865
24856,-5.980716,3.045424,-4.472369,-0.030776,0.017986,0.003730
24871,-6.011840,3.026271,-4.405331,-0.025980,0.014389,0.004530
24886,-6.078878,2.980781,-4.503493,-0.023848,0.017720,-0.001732
24901,-5.925649,2.983175,-4.503493,-0.018519,0.016920,-0.006928
24916,-5.920861,2.956839,-4.429273,-0.016920,0.015988,-0.013989
24931,-6.021417,2.877831,-4.606444,-0.019052,0.019052,-0.008527
24946,-6.112397,2.870648,-4.517859,-0.026113,0.015188,-0.000933
24961,-5.968745,2.935291,-4.539406,-0.030243,0.018652,0.000533
24976,-5.906496,3.011906,-4.426879,-0.027845,0.013456,0.000666
24991,-6.009446,2.990358,-4.541800,-0.027979,0.012124,-0.001466
25006,-6.069301,2.925714,-4.448427,-0.022783,0.015988,-0.007328
25021,-5.932832,2.956839,-4.534618,-0.025980,0.010126,-0.006928
25036,-5.916072,2.940080,-4.474763,-0.027446,0.014922,-0.004930
25051,-6.019023,2.896984,-4.560954,-0.024914,0.017320,-0.006262
25066,-6.019023,2.861071,-4.671087,-0.024914,0.013323,-0.002665
25081,-5.870583,2.937685,-4.558560,-0.032775,0.010259,-0.003064
25096,-5.932832,2.923320,-4.556166,-0.036239,0.005862,0.006928
25111,-6.038177,2.935291,-4.556166,-0.034240,0.009859,0.007328
25126,-6.033388,2.956839,-4.493917,-0.033974,0.013323,0.000533
25141,-5.940014,2.964022,-4.474763,-0.027179,0.011325,-0.000133
25156,-5.949591,2.959233,-4.604050,-0.027712,0.014123,-0.002265
25171,-6.019023,2.865859,-4.541800,-0.030643,0.015322,-0.002265
25186,-6.066907,2.861071,-4.623203,-0.033041,0.013590,0.008527
25201,-5.918467,2.863465,-4.532224,-0.040769,0.014123,0.013989
25216,-5.899313,2.999935,-4.503493,-0.042900,0.010792,0.013057
25231,-6.011840,2.935291,-4.604050,-0.036639,0.011325,0.008260
25246,-6.083666,2.851494,-4.469975,-0.030510,0.011991,0.000266
25261,-5.935226,2.932897,-4.532224,-0.028645,0.014655,-0.000933
25276,-5.916072,2.954445,-4.541800,-0.030377,0.013989,-0.004130
25291,-6.033388,2.901772,-4.539406,-0.028911,0.021051,-0.002665
25306,-6.114791,2.896984,-4.582502,-0.034107,0.021850,0.000000
25321,-5.928043,2.901772,-4.446033,-0.035573,0.017853,-0.001466
25336,-5.947197,2.983175,-4.606444,-0.035839,0.024914,0.000266
25351,-6.002264,2.896984,-4.508282,-0.038237,0.016654,0.001732
25366,-5.968745,2.930503,-4.539406,-0.041835,0.014922,0.005995
25381,-5.983110,2.956839,-4.529830,-0.038371,0.009593,0.007328
25396,-5.918467,2.995146,-4.484340,-0.036639,0.007328,0.003730
25411,-6.023811,2.964022,-4.522647,-0.035839,0.007994,0.001732
25426,-5.961562,2.899378,-4.498705,-0.034640,0.015721,0.000666
25441,-5.961562,2.935291,-4.498705,-0.036106,0.015455,0.002798
25456,-6.033388,2.935291,-4.546589,-0.037571,0.017054,0.005196
25471,-6.040571,2.995146,-4.477157,-0.034374,0.014522,0.008394
25486,-5.901707,2.973598,-4.469975,-0.035306,0.014922,0.002531
25501,-5.940014,2.985569,-4.525041,-0.034107,0.004796,0.007461
25516,-6.107608,2.944868,-4.462792,-0.032375,0.008793,0.001199
25531,-6.052542,2.961627,-4.513070,-0.031043,0.008394,-0.000533
25546,-5.961562,2.944868,-4.548983,-0.030243,0.011191,0.004930
25561,-5.940014,2.920926,-4.532224,-0.032642,0.011991,0.006928
25576,-5.995081,2.952051,-4.479551,-0.029444,0.013323,0.006262
25591,-6.052542,3.038242,-4.429273,-0.029311,0.016654,0.001998
25606,-5.880159,2.896984,-4.434062,-0.025447,0.019585,-0.001466
25621,-5.973533,2.923320,-4.570531,-0.030643,0.014655,0.003730
25636,-6.088455,2.849100,-4.472369,-0.037172,0.005329,0.010925
25651,-6.045359,2.901772,-4.613626,-0.035306,0.015988,0.007328
25666,-5.882554,3.002329,-4.503493,-0.035173,0.002398,0.002798
25681,-6.023811,2.908955,-4.458004,-0.033708,0.014789,0.002265
25696,-6.121974,2.952051,-4.479551,-0.032908,0.016121,-0.002132
25711,-5.992687,2.980781,-4.534618,-0.034240,0.018253,0.001066
25726,-5.923255,3.014300,-4.525041,-0.035040,0.013856,0.002531
25741,-5.844246,2.865859,-4.508282,-0.037971,0.010126,0.005196
25756,-6.210559,2.930503,-4.481946,-0.042101,0.023182,0.003997
25771,-5.911284,2.971204,-4.460398,-0.046631,-0.002265,0.014655
25786,-5.944803,3.045424,-4.491522,-0.039836,0.016387,0.008660
25801,-5.978322,2.937685,-4.510676,-0.038637,0.006528,0.007727
25816,-6.148310,2.980781,-4.520253,-0.037305,0.023315,0.010259
25831,-5.997475,2.920926,-4.467580,-0.039436,0.012391,0.011724
25846,-5.875371,2.992752,-4.513070,-0.033041,0.020384,0.007061
25861,-5.971139,2.985569,-4.469975,-0.029844,0.014655,0.007727
25876,-6.110003,2.844311,-4.522647,-0.033841,0.015855,0.003997
25891,-5.983110,2.901772,-4.434062,-0.031309,0.011191,0.003331
25906,-5.892130,3.021482,-4.496311,-0.031443,0.008660,0.006262
25921,-5.968745,2.978387,-4.582502,-0.032375,0.014522,0.003331
25936,-6.148310,2.911349,-4.477157,-0.036106,0.010792,0.000133
25951,-6.102820,2.942474,-4.462792,-0.032508,0.015188,0.006528
25966,-6.040571,2.952051,-4.419696,-0.033308,0.010525,0.005462
25981,-5.978322,2.892196,-4.529830,-0.029711,0.020118,0.004663
25996,-6.076484,2.911349,-4.515464,-0.033841,0.009992,0.008260
26011,-6.050148,2.916138,-4.496311,-0.033175,0.018652,0.004663
26026,-5.947197,2.906561,-4.539406,-0.034907,0.010126,0.008660
26041,-5.978322,2.916138,-4.513070,-0.041035,0.011858,0.010658
26056,-6.081272,2.995146,-4.560954,-0.043167,0.011325,0.013190
26071,-5.968745,3.009511,-4.498705,-0.038904,0.005329,0.008793
26086,-5.947197,3.088520,-4.517859,-0.031842,0.013323,0.005329
26101,-5.911284,2.942474,-4.560954,-0.029178,0.010392,0.000133
26116,-6.083666,2.918532,-4.532224,-0.025447,0.013323,0.002531
26131,-5.992687,2.985569,-4.503493,-0.030510,0.011458,0.000799
26146,-5.968745,2.973598,-4.601655,-0.030110,0.015988,0.002531
26161,-5.985504,2.973598,-4.496311,-0.033574,0.015588,0.004663
26176,-6.045359,2.975993,-4.618415,-0.030910,0.018652,0.003331
26191,-6.023811,2.997540,-4.402937,-0.027579,0.009459,0.005063
26206,-5.968745,2.978387,-4.546589,-0.031309,0.015721,-0.000266
26221,-5.923255,2.954445,-4.505888,-0.030776,0.009326,-0.000533
26236,-6.112397,2.885013,-4.513070,-0.030110,0.016121,-0.001199
26251,-5.999869,2.913743,-4.553771,-0.035173,0.009326,0.004530
26266,-5.942409,2.980781,-4.465186,-0.033974,0.017054,0.000400
26281,-5.995081,2.901772,-4.608838,-0.037971,0.013057,0.004663
26296,-6.090849,2.885013,-4.467580,-0.043833,0.015721,0.012923
26311,-6.028600,2.968810,-4.486734,-0.043433,0.017054,0.020917
26326,-5.844246,3.124433,-4.434062,-0.039703,0.007328,0.014922
26341,-5.992687,2.990358,-4.529830,-0.027712,0.010925,0.003464
26356,-6.074090,2.908955,-4.410120,-0.031576,0.013057,0.007194
26371,-6.078878,2.885013,-4.486734,-0.032375,0.010126,0.011991
26386,-5.896919,2.973598,-4.522647,-0.035573,0.011191,0.013723
26401,-5.971139,2.932897,-4.448427,-0.032375,0.013190,0.006129
26416,-6.074090,2.959233,-4.460398,-0.034907,0.018786,0.003730
26431,-6.062119,3.019088,-4.462792,-0.034773,0.008527,0.001199
26446,-5.913678,2.999935,-4.419696,-0.028245,0.016920,-0.003730
26461,-5.973533,2.971204,-4.465186,-0.023315,0.019052,-0.003331
26476,-6.074090,2.908955,-4.498705,-0.029044,0.014655,-0.003997
26491,-6.028600,2.908955,-4.458004,-0.030110,0.015322,0.007594
26506,-5.961562,2.985569,-4.570531,-0.039170,0.012391,0.011058
26521,-5.949591,3.014300,-4.477157,-0.037305,0.014522,0.013590
26536,-6.059724,2.947262,-4.508282,-0.030910,0.014389,0.005729
26551,-6.004658,2.877831,-4.422091,-0.029977,0.013190,0.002665
26566,-5.913678,3.002329,-4.513070,-0.028911,0.016121,0.005462
26581,-6.033388,2.973598,-4.532224,-0.030643,0.017587,0.006262
26596,-6.081272,2.949656,-4.589684,-0.029977,0.019585,0.005329
26611,-6.064513,2.899378,-4.474763,-0.030776,0.017320,0.008793
26626,-5.959168,2.959233,-4.491522,-0.033308,0.016254,0.006928
26641,-6.011840,2.966416,-4.491522,-0.035573,0.011858,0.006262
26656,-6.040571,2.987964,-4.429273,-0.035440,0.014655,0.008260
26671,-6.023811,2.973598,-4.513070,-0.030110,0.011458,0.002398
26686,-5.940014,2.997540,-4.446033,-0.029577,0.017187,0.000933
26701,-5.975927,2.932897,-4.455609,-0.029044,0.011858,0.001599
26716,-6.052542,2.916138,-4.508282,-0.030377,0.015988,0.002665
26731,-6.019023,2.983175,-4.546589,-0.032242,0.017986,0.002265
26746,-5.963956,2.954445,-4.513070,-0.030510,0.015322,0.003198
26761,-5.966351,2.966416,-4.424485,-0.033175,0.014389,0.006795
26776,-6.069301,2.885013,-4.513070,-0.031975,0.013057,0.008127
26791,-6.028600,2.954445,-4.450821,-0.035040,0.012657,0.007994
26806,-5.928043,3.016694,-4.498705,-0.030243,0.010525,0.005329
26821,-5.961562,2.987964,-4.458004,-0.024781,0.016387,0.000933
26836,-6.110003,2.932897,-4.529830,-0.029577,0.010792,0.001466
26851,-6.052542,2.961627,-4.568137,-0.034640,0.013057,0.000933
26866,-5.961562,3.004723,-4.462792,-0.032375,0.015055,-0.000666
26881,-5.975927,2.916138,-4.431667,-0.033041,0.015188,0.000533
26896,-6.143521,2.949656,-4.498705,-0.032242,0.016787,0.001865
26911,-6.033388,2.954445,-4.352659,-0.032642,0.014389,0.004263
26926,-5.901707,2.971204,-4.486734,-0.031443,0.011325,0.006662
26941,-6.004658,2.935291,-4.481946,-0.034507,0.011191,0.013190
26956,-5.999869,3.007117,-4.493917,-0.036106,0.008527,0.013057
26971,-6.040571,2.999935,-4.422091,-0.032908,0.011191,0.012923
26986,-5.968745,2.940080,-4.520253,-0.038237,0.013989,0.013723
27001,-5.997475,2.978387,-4.460398,-0.037571,0.012391,0.011724
27016,-6.054936,2.973598,-4.467580,-0.032242,0.015055,0.008394
27031,-6.045359,2.992752,-4.469975,-0.029044,0.020651,-0.001066
27046,-5.956774,2.987964,-4.565742,-0.025047,0.014522,-0.000666
27061,-5.904101,3.007117,-4.525041,-0.027179,0.015855,-0.004663
27076,-6.131550,2.920926,-4.489128,-0.029444,0.015588,-0.002398
27091,-6.040571,2.952051,-4.477157,-0.027979,0.015188,-0.000533
27106,-5.908890,2.966416,-4.359841,-0.034240,0.013190,0.004263
27121,-6.016629,2.961627,-4.534618,-0.034107,0.015322,0.006662
27136,-6.038177,2.913743,-4.510676,-0.035173,0.017054,0.005596
27151,-6.071695,2.930503,-4.503493,-0.033574,0.019452,0.003464
27166,-5.930438,2.952051,-4.424485,-0.033308,0.013856,0.001865
27181,-5.980716,2.913743,-4.496311,-0.036505,0.012257,0.005462
27196,-6.093243,3.016694,-4.517859,-0.032242,0.012790,0.006528
27211,-6.023811,3.002329,-4.584896,-0.034107,0.012257,0.008660
27226,-5.951985,3.016694,-4.551377,-0.030510,0.016654,0.008527
27241,-5.971139,2.978387,-4.513070,-0.030643,0.019185,0.007461
27256,-6.112397,2.975993,-4.503493,-0.030910,0.014522,0.008527
27271,-5.985504,2.966416,-4.505888,-0.029178,0.016654,0.005196
27286,-5.978322,2.987964,-4.458004,-0.031576,0.014123,0.000933
27301,-5.944803,2.892196,-4.455609,-0.029844,0.016654,0.002665
27316,-6.030994,2.899378,-4.496311,-0.038637,0.013323,0.002132
27331,-5.997475,2.980781,-4.460398,-0.042101,0.010525,0.007328
27346,-5.935226,3.011906,-4.458004,-0.037438,0.015855,0.011991
27361,-5.899313,3.040636,-4.378995,-0.030243,0.012124,0.007861
27376,-6.011840,3.007117,-4.529830,-0.024381,0.018919,0.002398
27391,-6.021417,2.923320,-4.407725,-0.026247,0.017853,0.002665
27406,-5.956774,2.849100,-4.508282,-0.029178,0.020518,0.007461
27421,-6.004658,2.892196,-4.534618,-0.037571,0.009060,0.013456
27436,-6.095637,2.959233,-4.520253,-0.036639,0.013057,0.009193
27451,-6.038177,3.071761,-4.577713,-0.028778,0.010126,-0.000266
27466,-5.966351,3.004723,-4.544195,-0.026913,0.017587,-0.001199
27481,-5.937620,2.944868,-4.460398,-0.029711,0.017853,-0.004263
27496,-6.066907,2.918532,-4.556166,-0.027979,0.021850,-0.000533
27511,-6.062119,2.920926,-4.400543,-0.027979,0.017453,0.003597
27526,-5.887342,2.987964,-4.498705,-0.026513,0.017453,0.000933
27541,-5.992687,2.944868,-4.544195,-0.029444,0.017453,0.002798
27556,-6.090849,2.930503,-4.465186,-0.035440,0.005862,0.004930
27571,-6.090849,2.920926,-4.592079,-0.035972,0.017720,0.007194
27586,-5.865794,2.954445,-4.496311,-0.034907,0.012524,0.013323
27601,-5.992687,3.031059,-4.453215,-0.031709,0.017587,0.009060
27616,-6.062119,2.954445,-4.496311,-0.026779,0.015055,0.004663
27631,-6.023811,2.997540,-4.460398,-0.024248,0.020251,0.004796
27646,-5.918467,2.971204,-4.465186,-0.027179,0.009459,0.005729
27661,-5.975927,2.889802,-4.472369,-0.027046,0.018652,0.001599
27676,-6.117185,2.925714,-4.570531,-0.031043,0.010658,0.004930
27691,-6.052542,2.959233,-4.431667,-0.033841,0.014256,0.006129
27706,-5.951985,2.968810,-4.462792,-0.033041,0.012923,0.005196
27721,-5.975927,3.002329,-4.503493,-0.033175,0.015588,0.007727
27736,-6.074090,2.975993,-4.462792,-0.030776,0.017187,0.004930
27751,-5.987898,2.954445,-4.414908,-0.028911,0.023982,-0.000400
27766,-5.956774,2.980781,-4.503493,-0.029444,0.019851,-0.001199
27781,-5.944803,2.849100,-4.474763,-0.034374,0.015455,0.006528
27796,-6.059724,2.978387,-4.613626,-0.035040,0.017054,0.004663
27811,-6.057330,2.940080,-4.529830,-0.037305,0.011458,0.008527
27826,-5.980716,2.942474,-4.467580,-0.041168,0.012257,0.009326
27841,-5.966351,2.978387,-4.453215,-0.036372,0.014256,0.012257
27856,-6.035782,2.973598,-4.513070,-0.035440,0.016920,0.009859
27871,-6.004658,3.031059,-4.381389,-0.029577,0.013323,0.001466
27886,-5.896919,2.949656,-4.572925,-0.027179,0.017720,0.000666
27901,-6.014235,2.987964,-4.422091,-0.026646,0.013190,0.000266
27916,-6.124368,2.849100,-4.477157,-0.029977,0.016920,0.003464
27931,-6.035782,2.956839,-4.467580,-0.034107,0.010392,0.004796
27946,-5.911284,3.071761,-4.402937,-0.035972,0.015855,0.004397
27961,-5.975927,3.026271,-4.515464,-0.033041,0.019319,0.002531
27976,-6.059724,2.978387,-4.587290,-0.035040,0.017720,0.004530
27991,-6.028600,3.064578,-4.436456,-0.033441,0.016654,0.004397
28006,-5.896919,3.009511,-4.520253,-0.029444,0.011858,0.004397
28021,-5.995081,2.882619,-4.568137,-0.028378,0.015855,0.004796
28036,-6.042965,2.947262,-4.527435,-0.034773,0.013856,0.009459
28051,-6.040571,2.942474,-4.405331,-0.037038,0.014123,0.010126
28066,-5.889736,2.959233,-4.453215,-0.036905,0.010792,0.012257
28081,-5.975927,3.011906,-4.467580,-0.034240,0.023715,0.007328
28096,-6.098032,3.014300,-4.498705,-0.029844,0.019052,0.005995
28111,-6.002264,2.978387,-4.544195,-0.027446,0.021717,0.002265
28126,-5.947197,2.987964,-4.501099,-0.028511,0.021051,0.002665
28141,-5.966351,2.966416,-4.481946,-0.028645,0.014256,-0.001199
28156,-6.083666,2.923320,-4.436456,-0.028112,0.008527,-0.001332
28171,-6.030994,2.923320,-4.541800,-0.029044,0.014389,-0.003597
28186,-5.942409,2.975993,-4.563348,-0.033441,0.011724,0.001865
28201,-5.940014,2.908955,-4.443638,-0.041035,0.011724,0.009060
28216,-6.100426,2.947262,-4.438850,-0.039969,0.017853,0.006662
28231,-6.030994,3.002329,-4.434062,-0.041035,0.013856,0.009593
28246,-5.987898,3.045424,-4.498705,-0.039037,0.015588,0.013190
28261,-5.975927,2.983175,-4.491522,-0.038104,0.011325,0.016787
28276,-6.129156,3.014300,-4.465186,-0.035040,0.022383,0.014789
28291,-5.971139,2.947262,-4.520253,-0.037838,0.007461,0.013190
28306,-5.928043,2.935291,-4.544195,-0.035839,0.013590,0.011191
28321,-5.928043,2.906561,-4.443638,-0.037571,0.008793,0.010392
28336,-6.064513,2.916138,-4.465186,-0.035573,0.015055,0.004130
28351,-6.004658,3.016694,-4.395754,-0.025314,0.016920,-0.006129
28366,-6.011840,3.055001,-4.367024,-0.024781,0.020917,-0.005862
28381,-5.959168,2.973598,-4.474763,-0.027046,0.011058,-0.006795
28396,-6.081272,2.892196,-4.560954,-0.026380,0.024914,-0.002398
28411,-6.021417,2.961627,-4.458004,-0.033841,0.013057,0.003464
28426,-5.908890,2.956839,-4.443638,-0.036639,0.014922,0.008793
28441,-5.973533,2.985569,-4.517859,-0.031842,0.013323,0.003064
28456,-6.112397,2.968810,-4.544195,-0.033974,0.010925,0.009326
28471,-6.021417,2.975993,-4.400543,-0.036505,0.012124,0.013323
28486,-5.980716,3.076549,-4.412514,-0.034240,0.017187,0.008260
28501,-5.968745,3.057395,-4.498705,-0.033574,0.017720,0.008394
28516,-6.019023,2.906561,-4.469975,-0.029711,0.015455,0.006528
28531,-6.014235,2.966416,-4.398149,-0.029044,0.011724,0.005462
28546,-6.002264,3.016694,-4.534618,-0.025181,0.017453,-0.001066
28561,-5.918467,2.935291,-4.460398,-0.021717,0.015455,-0.002398
28576,-6.081272,2.916138,-4.491522,-0.022250,0.017587,-0.003198
28591,-6.011840,2.952051,-4.510676,-0.028645,0.013323,0.001998
28606,-5.916072,2.992752,-4.462792,-0.033041,0.016920,0.001066
28621,-5.925649,2.990358,-4.489128,-0.028911,0.014922,0.002531
28636,-6.074090,2.925714,-4.477157,-0.032908,0.016920,0.003464
28651,-6.021417,2.961627,-4.462792,-0.028778,0.011991,0.003597
28666,-5.963956,2.999935,-4.481946,-0.040636,0.013590,0.011458
