T,AX,AY,AZ,GX,GY,GZ
46,-5.801151,2.451663,-4.807557,-0.037305,0.013989,0.005329
61,-5.975927,2.434903,-4.862624,-0.041835,0.018253,0.003730
76,-5.911284,2.461239,-4.802769,-0.043300,0.011591,0.009326
91,-5.935226,2.638410,-4.675876,-0.044499,0.020651,0.007461
106,-5.779603,2.549825,-4.683058,-0.034240,0.011858,0.004130
121,-5.918467,2.568978,-4.774038,-0.028112,0.014789,0.001865
136,-6.004658,2.451663,-4.766856,-0.035972,0.009859,0.005729
151,-5.863400,2.511518,-4.790798,-0.039570,0.018519,0.011058
166,-5.849035,2.533065,-4.821922,-0.047830,0.010658,0.014655
181,-5.798757,2.557007,-4.836287,-0.041568,0.017320,0.010126
196,-6.011840,2.537854,-4.730942,-0.043034,0.020118,0.008260
211,-5.863400,2.523489,-4.762067,-0.039836,0.017986,0.008793
226,-5.822699,2.518700,-4.812346,-0.037438,0.016121,0.006129
241,-6.045359,2.612074,-4.675876,-0.029844,0.044899,-0.013590
256,-5.865794,2.353500,-4.738125,-0.033441,-0.001066,0.000799
271,-5.978322,2.477999,-4.762067,-0.050495,0.024515,0.011591
286,-5.741296,2.602497,-4.690241,-0.050894,0.012524,0.013590
301,-5.966351,2.609680,-4.750096,-0.054758,0.012657,0.011591
316,-6.030994,2.650381,-4.711789,-0.040636,0.025314,0.002531
331,-5.920861,2.707842,-4.462792,-0.019052,0.014389,-0.004397
346,-5.774815,2.640805,-4.848258,-0.028778,0.018519,0.001865
361,-5.987898,2.513912,-4.750096,-0.026380,0.018253,0.001998
376,-5.877765,2.475605,-4.771644,-0.028645,0.017853,0.002398
391,-5.858612,2.547431,-4.814740,-0.031975,0.019718,-0.002132
406,-5.832275,2.549825,-4.829105,-0.035839,0.008260,0.007328
421,-5.942409,2.647987,-4.783615,-0.026646,0.010925,0.006662
436,-5.940014,2.667141,-4.831499,-0.015721,0.016121,-0.004263
451,-5.932832,2.516306,-4.805163,-0.022383,0.009459,-0.003331
466,-5.808333,2.501941,-4.716577,-0.028378,0.016387,0.003464
481,-5.973533,2.456451,-4.762067,-0.037571,0.013856,0.011325
496,-5.978322,2.497152,-4.807557,-0.036772,0.016787,0.006262
511,-5.887342,2.573767,-4.783615,-0.030510,0.025047,-0.001732
526,-5.858612,2.679112,-4.831499,-0.024914,0.013456,-0.001865
541,-5.872977,2.590526,-4.819528,-0.020651,0.022516,-0.008260
556,-6.011840,2.454057,-4.790798,-0.020251,0.017453,-0.001199
571,-5.894525,2.468422,-4.786009,-0.028112,0.017054,0.008394
586,-5.803545,2.454057,-4.824317,-0.045032,0.018253,0.015988
601,-5.832275,2.533065,-4.723760,-0.046498,0.011191,0.022516
616,-6.019023,2.547431,-4.726154,-0.040236,0.019585,0.016654
631,-5.849035,2.722207,-4.742914,-0.030110,0.012524,0.002665
646,-5.827487,2.583344,-4.740520,-0.026113,0.021717,0.002265
661,-5.951985,2.568978,-4.730942,-0.024515,0.025047,0.002798
676,-5.949591,2.513912,-4.709394,-0.030110,0.021583,0.005196
691,-5.822699,2.516306,-4.747702,-0.024115,0.029444,0.004397
706,-5.796362,2.506729,-4.673481,-0.027179,0.017453,0.002398
721,-5.971139,2.454057,-4.793192,-0.029844,0.019052,0.006262
736,-6.011840,2.485181,-4.766856,-0.034374,0.012257,0.009193
751,-5.884948,2.612074,-4.836287,-0.029577,0.020118,0.003730
766,-5.832275,2.573767,-4.740520,-0.030643,0.016254,0.006395
781,-5.906496,2.475605,-4.819528,-0.031443,0.021051,0.008260
796,-5.892130,2.516306,-4.745308,-0.026380,0.011325,0.004397
811,-5.904101,2.420538,-4.793192,-0.026380,0.009726,0.004130
826,-5.815516,2.422932,-4.814740,-0.036505,0.002398,0.012790
841,-5.963956,2.377442,-4.764462,-0.044899,0.019851,0.026513
856,-6.076484,2.947262,-4.714183,-0.055158,0.038770,0.018253
871,-5.686229,2.743755,-4.718971,-0.035173,-0.004397,0.006795
886,-5.839458,2.578555,-4.814740,-0.027179,0.031975,0.000933
901,-5.959168,2.590526,-4.853047,-0.021184,0.007727,-0.003730
916,-5.894525,2.444480,-4.762067,-0.033841,0.018919,0.005196
931,-5.983110,2.504335,-4.836287,-0.041968,0.019452,0.013057
946,-5.724536,2.671929,-4.673481,-0.039037,0.007328,0.016121
961,-5.920861,2.655170,-4.857835,-0.039037,0.018519,0.011458
976,-5.908890,2.588132,-4.776433,-0.028112,0.017187,-0.000933
991,-5.817910,2.511518,-4.766856,-0.025047,0.016654,-0.004263
1006,-5.798757,2.547431,-4.850653,-0.027712,0.005462,0.002265
1021,-5.793968,2.501941,-4.817134,-0.030110,0.014922,0.001466
1036,-5.971139,2.513912,-4.778827,-0.035706,0.013856,0.000000
1051,-5.820304,2.580949,-4.781221,-0.039303,0.012790,0.007861
1066,-5.892130,2.521094,-4.831499,-0.046897,0.016521,0.022516
1081,-5.870583,2.557007,-4.812346,-0.051960,0.018652,0.025980
1096,-5.815516,2.683900,-4.850653,-0.044100,0.016920,0.013590
1111,-5.724536,2.406173,-4.888960,-0.032109,0.022250,0.006262
1126,-5.861006,2.523489,-4.855441,-0.037704,0.025580,0.006662
1141,-5.827487,2.592920,-4.776433,-0.036505,0.001599,0.003597
1156,-5.959168,2.511518,-4.730942,-0.029977,0.032508,-0.007461
1171,-5.892130,2.442086,-4.771644,-0.039570,0.030377,0.006662
1186,-5.983110,2.626439,-4.896142,-0.040236,-0.004930,0.012124
1201,-5.746084,2.528277,-4.824317,-0.046764,0.014522,0.014256
1216,-5.940014,2.535460,-4.774038,-0.035972,0.013323,0.010392
1231,-5.856217,2.669535,-4.888960,-0.044899,0.014256,0.011458
1246,-5.774815,2.693477,-4.860229,-0.039170,0.006928,0.005862
1261,-5.837064,2.645593,-4.726154,-0.037971,-0.027579,0.002398
1276,-5.820304,2.604891,-4.702212,-0.056890,-0.003198,0.005995
1291,-6.131550,2.700660,-4.680664,-0.000400,0.044899,-0.030243
1306,-5.793968,2.454057,-4.886566,-0.038237,-0.032775,0.023449
1321,-5.841852,2.597709,-4.807557,-0.034640,0.041968,0.010392
1336,-5.999869,2.705448,-4.900931,-0.033974,0.010658,0.005063
1351,-5.803545,2.588132,-4.762067,-0.027579,0.014789,0.005329
1366,-5.849035,2.588132,-4.752491,-0.032775,0.015055,0.008926
1381,-5.877765,2.621651,-4.855441,-0.027179,0.007061,0.007328
1396,-5.966351,2.583344,-4.838682,-0.022516,0.018652,0.000133
1411,-5.901707,2.547431,-4.867412,-0.018519,0.016521,-0.004663
1426,-5.827487,2.580949,-4.769250,-0.035573,0.004663,0.009726
1441,-5.801151,2.576161,-4.754885,-0.032242,0.019585,0.001599
1456,-5.968745,2.585738,-4.728548,-0.022916,0.004530,0.001865
1471,-5.908890,2.511518,-4.769250,-0.034107,0.008793,0.009593
1486,-5.729324,2.657564,-4.771644,-0.036639,0.023049,0.006528
1501,-5.901707,2.590526,-4.747702,-0.017587,0.013856,-0.005196
1516,-5.968745,2.463634,-4.707000,-0.027312,0.012524,0.000799
1531,-5.992687,2.461239,-4.793192,-0.033574,0.024248,0.006395
1546,-5.676652,2.676718,-4.647145,-0.024381,0.025314,-0.008793
1561,-6.083666,2.418144,-4.833893,-0.040369,0.005063,0.010259
1576,-5.815516,2.707842,-4.790798,-0.039969,0.013723,0.011591
1591,-5.820304,2.580949,-4.800375,-0.029044,0.013190,0.004930
1606,-5.803545,2.612074,-4.812346,-0.023049,0.024515,-0.005196
1621,-6.038177,2.406173,-4.786009,-0.027845,0.028645,0.003730
1636,-5.844246,2.607285,-4.778827,-0.034374,0.011058,0.007994
1651,-5.884948,2.535460,-4.853047,-0.030643,0.015721,0.007328
1666,-5.803545,2.616862,-4.728548,-0.027579,0.025980,-0.002265
1681,-5.858612,2.561796,-4.711789,-0.021051,0.017320,-0.007328
1696,-6.040571,2.389413,-4.795586,-0.026380,0.012124,-0.000799
1711,-5.901707,2.499547,-4.845864,-0.036905,0.021717,0.011058
1726,-5.832275,2.621651,-4.721365,-0.036905,0.022383,0.009060
1741,-5.827487,2.633622,-4.781221,-0.028645,0.013856,0.004796
1756,-5.856217,2.585738,-4.759673,-0.027579,0.019585,0.001332
1771,-5.844246,2.545036,-4.771644,-0.025181,0.016787,-0.000799
1786,-5.884948,2.513912,-4.790798,-0.025047,0.014123,-0.003597
1801,-5.908890,2.525883,-4.757279,-0.032375,0.014256,0.000266
1816,-5.990293,2.497152,-4.750096,-0.034374,0.011724,0.000666
1831,-5.868188,2.580949,-4.742914,-0.036772,0.006928,0.008260
1846,-5.779603,2.645593,-4.781221,-0.035706,0.010925,0.007461
1861,-5.834670,2.631228,-4.759673,-0.033574,0.010392,0.004930
1876,-5.875371,2.595315,-4.774038,-0.030243,0.008793,-0.001332
1891,-5.884948,2.501941,-4.690241,-0.026380,0.022116,-0.002398
1906,-5.760449,2.545036,-4.857835,-0.026113,0.015721,-0.005596
1921,-5.956774,2.444480,-4.809951,-0.036106,0.023715,0.000000
1936,-5.913678,2.509123,-4.805163,-0.034640,0.016920,0.002398
1951,-5.894525,2.521094,-4.824317,-0.038504,0.021850,0.010792
1966,-5.781997,2.659958,-4.704606,-0.041035,0.014789,0.013190
1981,-5.853823,2.657564,-4.805163,-0.033175,0.019585,0.006395
1996,-5.968745,2.578555,-4.730942,-0.026113,0.018919,-0.006129
2011,-5.837064,2.595315,-4.762067,-0.024515,0.017986,-0.009326
2026,-5.734113,2.561796,-4.675876,-0.027179,0.014922,-0.009060
2041,-5.899313,2.396596,-4.738125,-0.041435,0.019718,-0.000533
2056,-6.007052,2.363077,-4.843470,-0.053026,0.015188,0.012657
2071,-5.772420,2.391808,-5.027823,-0.101123,0.048096,0.031709
2086,-5.779603,2.731784,-4.987122,-0.067149,0.039170,0.027312
2101,-5.774815,2.762909,-4.738125,-0.048096,0.023449,0.017054
2116,-5.899313,2.691083,-4.675876,-0.029577,0.035573,0.003064
2131,-5.827487,2.683900,-4.697423,-0.021850,0.012524,-0.001599
2146,-5.822699,2.588132,-4.718971,-0.017054,0.016254,-0.007594
2161,-5.959168,2.475605,-4.879383,-0.020518,0.017320,-0.005462
2176,-5.741296,2.489970,-4.774038,-0.029844,0.009060,0.000799
2191,-5.884948,2.506729,-4.790798,-0.036639,0.015588,0.003064
2206,-5.849035,2.564190,-4.814740,-0.037704,0.015855,0.009593
2221,-5.956774,2.679112,-4.876989,-0.034107,0.020384,0.004796
2236,-5.772420,2.604891,-4.707000,-0.038371,0.017986,0.007061
2251,-5.837064,2.545036,-4.797980,-0.036639,0.019052,0.005995
2266,-5.844246,2.549825,-4.747702,-0.039170,0.011858,0.009593
2281,-5.913678,2.549825,-4.728548,-0.033574,0.013723,-0.000666
2296,-5.774815,2.624045,-4.764462,-0.029577,0.017853,-0.001865
2311,-5.940014,2.571373,-4.819528,-0.035573,0.011724,0.001998
2326,-5.901707,2.537854,-4.867412,-0.052093,0.024248,0.004530
2341,-5.832275,2.473210,-5.008670,-0.050361,0.010658,0.001998
2356,-5.707777,2.681506,-4.819528,-0.033574,0.025181,-0.020518
2371,-5.954380,2.523489,-4.836287,-0.039703,0.022116,-0.009859
2386,-5.863400,2.530671,-4.711789,-0.043833,0.005596,0.006528
2401,-5.928043,2.588132,-4.845864,-0.035972,0.029311,0.003464
2416,-5.810728,2.710236,-4.776433,-0.033041,0.000266,0.010392
2431,-5.746084,2.679112,-4.740520,-0.022516,0.031043,0.001599
2446,-5.944803,2.592920,-4.790798,-0.017453,0.014655,-0.001732
2461,-5.865794,2.537854,-4.821922,-0.022649,0.014922,-0.003597
2476,-5.805939,2.497152,-4.867412,-0.029977,0.011724,0.001732
2491,-5.755661,2.466028,-4.762067,-0.035706,0.006662,0.009060
2506,-5.923255,2.530671,-4.788404,-0.044233,0.013190,0.011191
2521,-5.968745,2.626439,-4.790798,-0.039570,0.009992,0.014522
2536,-5.805939,2.705448,-4.740520,-0.040902,0.015988,0.014123
2551,-5.870583,2.647987,-4.759673,-0.027179,0.016654,0.005729
2566,-5.861006,2.602497,-4.812346,-0.023715,0.011191,-0.003997
2581,-5.887342,2.580949,-4.740520,-0.020384,0.011591,-0.003597
2596,-5.846641,2.609680,-4.788404,-0.024515,0.009593,-0.003198
2611,-5.815516,2.580949,-4.723760,-0.026779,0.016121,-0.000400
2626,-5.966351,2.506729,-4.678270,-0.033574,0.015855,0.005729
2641,-5.911284,2.571373,-4.730942,-0.042368,0.015055,0.010925
2656,-5.880159,2.619257,-4.793192,-0.039037,0.017054,0.010658
2671,-5.748478,2.609680,-4.817134,-0.038637,0.011858,0.008793
2686,-5.928043,2.621651,-4.735731,-0.033708,0.013590,0.000666
2701,-5.911284,2.509123,-4.831499,-0.033708,0.006662,0.003331
2716,-5.868188,2.566584,-4.769250,-0.039037,0.015588,0.003997
2731,-5.770026,2.463634,-4.829105,-0.043433,0.014522,0.006395
2746,-5.901707,2.468422,-4.793192,-0.063018,-0.003597,0.026247
2761,-5.992687,2.540248,-4.673481,-0.046631,0.025714,0.008527
2776,-5.779603,2.590526,-4.774038,-0.059421,0.000533,0.021717
2791,-5.817910,2.798822,-4.685452,-0.040103,0.035839,-0.006662
2806,-6.019023,2.583344,-4.738125,-0.025181,0.021051,-0.002132
2821,-5.896919,2.626439,-4.778827,-0.028112,0.010126,0.001199
2836,-5.746084,2.580949,-4.750096,-0.026113,0.026247,-0.004130
2851,-5.868188,2.523489,-4.790798,-0.030377,0.021717,-0.000400
2866,-5.877765,2.540248,-4.747702,-0.031309,0.011591,0.003198
2881,-5.985504,2.595315,-4.845864,-0.036772,0.022783,0.006928
2896,-5.765238,2.681506,-4.790798,-0.032109,0.012657,0.003864
2911,-5.810728,2.621651,-4.716577,-0.030910,0.015188,0.002398
2926,-5.877765,2.571373,-4.790798,-0.030776,0.008260,0.005596
2941,-5.901707,2.583344,-4.774038,-0.025181,0.016121,0.001332
2956,-5.853823,2.691083,-4.745308,-0.019585,0.013590,-0.007194
2971,-5.760449,2.638410,-4.740520,-0.018519,0.011458,-0.007061
2986,-5.997475,2.463634,-4.853047,-0.024515,0.013323,0.004930
3001,-5.872977,2.554613,-4.853047,-0.030643,0.015322,0.011458
3016,-5.868188,2.609680,-4.718971,-0.031576,0.015455,0.004663
3031,-5.777209,2.578555,-4.742914,-0.028778,0.014789,0.005729
3046,-5.889736,2.528277,-4.795586,-0.030243,0.018386,0.003597
3061,-5.916072,2.557007,-4.797980,-0.031709,0.011591,0.003597
3076,-5.798757,2.604891,-4.783615,-0.030377,0.012657,0.003464
3091,-5.798757,2.614468,-4.905719,-0.047430,0.028645,0.001599
3106,-5.995081,2.616862,-4.759673,-0.027979,0.019585,-0.009060
3121,-5.858612,2.554613,-4.819528,-0.039303,-0.005862,0.005995
3136,-5.870583,2.659958,-4.757279,-0.034640,0.044366,-0.002132
3151,-5.791574,2.573767,-4.836287,-0.035173,-0.003331,0.009859
3166,-5.808333,2.645593,-4.821922,-0.028778,0.025447,-0.003064
3181,-6.040571,2.571373,-4.764462,-0.010792,0.046364,-0.012524
3196,-5.932832,2.509123,-4.692635,-0.042501,0.024648,0.008527
3211,-5.758055,2.604891,-4.766856,-0.033308,0.013190,0.009593
3226,-6.002264,2.590526,-4.721365,-0.030110,0.022516,0.002265
3241,-5.959168,2.549825,-4.745308,-0.035306,0.006662,0.007194
3256,-5.691017,2.645593,-4.783615,-0.028778,0.016387,0.001732
3271,-5.894525,2.631228,-4.774038,-0.031975,0.019452,0.000266
3286,-5.844246,2.571373,-4.745308,-0.030377,0.010525,0.006395
3301,-5.937620,2.612074,-4.723760,-0.030377,0.014123,0.009326
3316,-5.846641,2.681506,-4.805163,-0.031043,0.013456,0.011991
3331,-5.753267,2.612074,-4.807557,-0.024381,0.017054,0.004796
3346,-5.875371,2.547431,-4.759673,-0.021583,0.014256,0.001865
3361,-5.894525,2.540248,-4.848258,-0.021983,0.017986,-0.003331
3376,-5.834670,2.619257,-4.778827,-0.024115,0.011591,-0.003331
3391,-5.748478,2.765303,-4.762067,-0.016521,0.000533,-0.014256
3406,-5.925649,2.655170,-4.560954,0.002531,-0.017453,-0.030510
3421,-5.863400,2.487576,-4.855441,-0.034107,0.013323,0.004796
3436,-5.887342,2.576161,-4.795586,-0.031043,0.045165,0.026247
3451,-6.045359,2.626439,-4.788404,-0.029711,0.031576,0.000000
3466,-5.772420,2.636016,-4.742914,-0.030110,-0.004930,0.004263
3481,-6.014235,2.590526,-4.934450,-0.020384,0.019585,-0.010126
3496,-5.856217,2.456451,-4.759673,-0.029178,-0.001998,0.000533
3511,-5.872977,2.461239,-4.831499,-0.035040,0.014789,0.006262
3526,-5.892130,2.513912,-4.740520,-0.034640,0.002132,0.005063
3541,-5.961562,2.681506,-4.769250,-0.032109,0.012524,0.001865
3556,-5.837064,2.631228,-4.821922,-0.029711,0.007461,-0.001599
3571,-5.793968,2.600103,-4.766856,-0.029844,0.023715,-0.004263
3586,-5.932832,2.561796,-4.788404,-0.031709,0.013456,-0.002931
3601,-5.947197,2.525883,-4.788404,-0.035306,0.011724,0.004397
3616,-5.839458,2.559402,-4.800375,-0.039436,0.007061,0.013323
3631,-5.872977,2.638410,-4.807557,-0.040902,0.009060,0.017453
3646,-5.896919,2.583344,-4.831499,-0.038504,0.013723,0.014922
3661,-5.940014,2.691083,-4.819528,-0.035173,0.017587,0.008127
3676,-5.779603,2.631228,-4.769250,-0.032375,0.014389,0.007194
3691,-5.772420,2.633622,-4.745308,-0.028911,0.013057,0.003864
3706,-5.966351,2.511518,-4.735731,-0.033041,0.015055,0.005329
3721,-5.954380,2.509123,-4.790798,-0.031709,0.014256,0.007461
3736,-5.837064,2.561796,-4.908113,-0.039836,0.016787,0.010925
3751,-5.817910,2.616862,-4.742914,-0.041302,0.015988,0.009992
3766,-5.913678,2.578555,-4.819528,-0.040502,0.015855,0.008660
3781,-5.928043,2.578555,-4.754885,-0.034640,0.013190,0.008660
3796,-5.865794,2.530671,-4.788404,-0.040369,0.006262,0.012257
3811,-5.772420,2.583344,-4.747702,-0.036239,0.016121,0.010126
3826,-5.846641,2.549825,-4.774038,-0.036505,0.012257,0.007594
3841,-5.930438,2.597709,-4.733336,-0.033841,0.006662,0.005329
3856,-5.808333,2.626439,-4.821922,-0.028911,0.008394,-0.003064
3871,-5.827487,2.540248,-4.838682,-0.030243,0.011591,0.002665
3886,-5.877765,2.489970,-4.781221,-0.040902,0.003597,0.008394
3901,-5.959168,2.566584,-4.738125,-0.043167,0.018919,0.009593
3916,-5.791574,2.638410,-4.778827,-0.046897,0.009326,0.010925
3931,-5.837064,2.585738,-4.750096,-0.046498,0.006795,0.019185
3946,-5.990293,2.693477,-4.687847,-0.037838,0.026247,0.007727
3961,-5.985504,2.636016,-4.707000,-0.036639,0.011724,0.013723
3976,-5.791574,2.609680,-4.718971,-0.028645,0.024115,-0.000133
3991,-5.865794,2.636016,-4.905719,-0.028245,0.018119,-0.001998
4006,-5.944803,2.398990,-4.809951,-0.039570,0.012257,0.011058
4021,-5.882554,2.497152,-4.716577,-0.043966,0.013323,0.014389
4036,-5.858612,2.628834,-4.757279,-0.047297,0.012257,0.016787
4051,-5.793968,2.612074,-4.800375,-0.049296,0.009726,0.020118
4066,-5.896919,2.573767,-4.848258,-0.045832,0.011191,0.015855
4081,-5.870583,2.688689,-4.757279,-0.035972,0.011591,0.005729
4096,-5.877765,2.683900,-4.786009,-0.032908,0.012257,0.003198
4111,-5.758055,2.645593,-4.764462,-0.031842,0.003997,-0.004263
4126,-5.889736,2.549825,-4.862624,-0.035972,0.007061,0.002798
4141,-5.973533,2.530671,-4.836287,-0.041968,-0.001865,0.006662
4156,-5.846641,2.518700,-4.766856,-0.047963,-0.005063,0.010792
4171,-5.858612,2.456451,-4.869806,-0.072345,-0.004930,0.034907
4186,-5.882554,2.731784,-4.802769,-0.077274,-0.002398,0.039170
4201,-5.781997,2.755726,-4.647145,-0.082470,-0.040769,0.042634
4216,-5.681440,3.021482,-4.572925,-0.032908,-0.060887,-0.006528
4231,-5.772420,2.612074,-4.781221,-0.011858,0.054358,-0.017054
4246,-6.081272,2.578555,-4.747702,-0.028511,-0.001732,-0.003331
4261,-5.820304,2.545036,-4.759673,-0.023049,0.025447,-0.007594
4276,-5.911284,2.568978,-4.874595,-0.028511,0.009060,0.002398
4291,-5.714959,2.650381,-4.692635,-0.041435,-0.004930,0.012524
4306,-5.894525,2.645593,-4.790798,-0.046231,0.007594,0.009459
4321,-5.904101,2.693477,-4.733336,-0.043034,-0.003864,0.010126
4336,-5.841852,2.686294,-4.721365,-0.036372,0.003997,0.009193
4351,-5.841852,2.703054,-4.726154,-0.038637,-0.009726,0.013723
4366,-5.865794,2.616862,-4.718971,-0.035706,-0.002265,0.006528
4381,-6.009446,2.655170,-4.752491,-0.035972,0.008127,0.013456
4396,-5.861006,2.652776,-4.730942,-0.035573,0.002398,0.013323
4411,-5.834670,2.631228,-4.838682,-0.034374,0.012257,0.013856
4426,-5.918467,2.597709,-4.762067,-0.032375,0.008260,0.013590
4441,-6.007052,2.580949,-4.726154,-0.033441,0.015188,0.011724
4456,-5.923255,2.669535,-4.754885,-0.036106,0.018786,0.008127
4471,-5.856217,2.719813,-4.733336,-0.037704,0.015455,0.008127
4486,-5.877765,2.647987,-4.659116,-0.029444,0.014522,0.000266
4501,-5.937620,2.683900,-4.721365,-0.030110,0.014123,0.002132
4516,-5.853823,2.724602,-4.707000,-0.028778,0.010392,0.002132
4531,-5.772420,2.707842,-4.778827,-0.029844,0.016254,0.003464
4546,-5.971139,2.612074,-4.762067,-0.028645,0.012124,0.000933
4561,-5.923255,2.633622,-4.766856,-0.033974,0.016387,0.005995
4576,-5.870583,2.681506,-4.778827,-0.027845,0.013057,0.005596
4591,-5.774815,2.698265,-4.613626,-0.030643,0.012524,0.003331
4606,-5.935226,2.612074,-4.742914,-0.028778,0.018786,0.003997
4621,-5.995081,2.616862,-4.685452,-0.028911,0.005196,0.007461
4636,-5.935226,2.659958,-4.718971,-0.031975,0.015855,0.007461
4651,-5.777209,2.612074,-4.699818,-0.032375,0.011191,0.012923
4666,-5.839458,2.657564,-4.704606,-0.030110,0.013856,0.011058
4681,-5.930438,2.683900,-4.647145,-0.029444,0.016254,0.009193
4696,-5.856217,2.712631,-4.821922,-0.026513,0.011591,0.004663
4711,-5.786786,2.710236,-4.721365,-0.025314,0.015721,0.001332
4726,-5.961562,2.647987,-4.764462,-0.022116,0.006528,-0.001599
4741,-6.009446,2.590526,-4.714183,-0.021717,0.007594,0.000000
4756,-5.908890,2.554613,-4.687847,-0.029311,-0.000933,0.001466
4771,-5.851429,2.609680,-4.601655,-0.035573,0.015721,0.004130
4786,-5.949591,2.681506,-4.714183,-0.033574,0.016920,0.007194
4801,-5.877765,2.647987,-4.771644,-0.031176,0.016387,0.011191
4816,-5.923255,2.631228,-4.663905,-0.034640,0.012657,0.009326
4831,-5.796362,2.671929,-4.697423,-0.027712,0.016387,0.004397
4846,-5.851429,2.643199,-4.716577,-0.021717,0.016254,0.002265
4861,-5.932832,2.590526,-4.695029,-0.025714,0.012923,0.003464
4876,-5.815516,2.597709,-4.783615,-0.023982,0.008394,0.000133
4891,-5.851429,2.614468,-4.695029,-0.029577,0.012923,0.003730
4906,-5.937620,2.568978,-4.714183,-0.033574,0.011458,0.011724
4921,-5.980716,2.626439,-4.754885,-0.036772,0.013456,0.019185
4936,-5.832275,2.750938,-4.594473,-0.034240,0.013723,0.011991
4951,-5.770026,2.712631,-4.666299,-0.023582,0.008260,0.002265
4966,-5.908890,2.614468,-4.685452,-0.024648,0.008127,-0.003198
4981,-5.980716,2.628834,-4.697423,-0.022516,0.005995,-0.002132
4996,-5.894525,2.602497,-4.721365,-0.027579,0.005729,0.002531
5011,-5.865794,2.609680,-4.721365,-0.031176,0.006928,0.006129
5026,-5.844246,2.595315,-4.750096,-0.033574,0.008527,0.015455
5041,-5.951985,2.647987,-4.666299,-0.032375,0.012391,0.011724
5056,-5.798757,2.731784,-4.692635,-0.028112,0.013856,0.004663
5071,-5.837064,2.710236,-4.699818,-0.030243,0.006662,0.007594
5086,-5.913678,2.640805,-4.707000,-0.030110,0.010792,0.006795
5101,-5.995081,2.667141,-4.718971,-0.029311,0.004397,0.010259
5116,-5.916072,2.724602,-4.778827,-0.026913,0.003997,0.009459
5131,-5.803545,2.750938,-4.730942,-0.029044,0.012257,0.006928
5146,-5.861006,2.669535,-4.702212,-0.026913,0.000933,0.005329
5161,-5.758055,2.255338,-4.680664,-0.070879,0.052093,0.064884
5176,-6.311116,2.580949,-4.821922,-0.019585,0.054492,-0.015055
5191,-5.743690,2.638410,-4.738125,-0.032375,-0.015322,0.000266
5206,-6.011840,2.580949,-4.745308,-0.026779,0.035573,-0.010126
5221,-6.007052,2.580949,-4.709394,-0.034640,0.008260,0.000400
5236,-5.846641,2.659958,-4.608838,-0.033175,0.018386,-0.007594
5251,-5.784391,2.652776,-4.745308,-0.030776,0.009593,-0.007061
5266,-5.947197,2.592920,-4.685452,-0.030243,0.008660,-0.009992
5281,-5.899313,2.612074,-4.771644,-0.030643,0.013057,-0.009859
5296,-5.863400,2.602497,-4.833893,-0.034907,0.016121,-0.001732
5311,-5.882554,2.597709,-4.702212,-0.041302,0.020651,0.002265
5326,-5.942409,2.655170,-4.671087,-0.046498,0.029311,0.005995
5341,-6.002264,2.703054,-4.730942,-0.042634,0.027579,0.004663
5356,-5.844246,2.676718,-4.718971,-0.038770,0.025314,0.000266
5371,-5.789180,2.715025,-4.678270,-0.038237,0.018119,0.007194
5386,-5.916072,2.734178,-4.678270,-0.031443,0.012923,0.005995
5401,-5.942409,2.688689,-4.687847,-0.025181,0.012124,0.000799
5416,-5.858612,2.715025,-4.642357,-0.023049,0.009992,-0.003597
5431,-5.872977,2.595315,-4.663905,-0.026913,0.007994,-0.002665
5446,-5.940014,2.518700,-4.809951,-0.029977,0.012391,0.006129
5461,-6.009446,2.592920,-4.769250,-0.037305,0.020917,0.010525
5476,-5.865794,2.655170,-4.738125,-0.046364,0.017587,0.019052
5491,-5.796362,2.712631,-4.661510,-0.051161,0.014389,0.019319
5506,-5.899313,2.681506,-4.702212,-0.040103,0.016387,0.017720
5521,-5.932832,2.717419,-4.711789,-0.031043,0.018652,0.009859
5536,-5.894525,2.659958,-4.721365,-0.028778,0.004796,0.007594
5551,-5.815516,2.614468,-4.762067,-0.021717,0.011858,0.002132
5566,-5.875371,2.621651,-4.754885,-0.018786,0.015188,-0.003997
5581,-6.007052,2.597709,-4.702212,-0.019452,0.019851,-0.011724
5596,-5.884948,2.650381,-4.795586,-0.022250,0.023715,-0.011058
5611,-5.999869,2.583344,-4.709394,-0.029844,0.017986,-0.003464
5626,-5.942409,2.612074,-4.742914,-0.028645,0.023049,-0.002132
5641,-5.872977,2.700660,-4.726154,-0.027845,0.020518,-0.003864
5656,-5.772420,2.619257,-4.687847,-0.027845,0.016920,-0.001998
5671,-5.968745,2.657564,-4.620809,-0.019851,0.023582,-0.009859
5686,-5.892130,2.717419,-4.707000,-0.014389,0.022783,-0.013057
5701,-5.894525,2.628834,-4.762067,-0.016920,0.025181,-0.003597
5716,-5.834670,2.588132,-4.793192,-0.026513,0.013590,0.012790
5731,-5.961562,2.578555,-4.728548,-0.030643,0.026513,0.015322
5746,-5.882554,2.715025,-4.687847,-0.026380,0.013989,0.010925
5761,-5.803545,2.621651,-4.704606,-0.021850,0.020251,0.006795
5776,-5.858612,2.657564,-4.742914,-0.018786,0.020917,-0.000933
5791,-5.896919,2.638410,-4.740520,-0.009992,0.015188,-0.004530
5806,-6.004658,2.683900,-4.721365,-0.007328,0.023982,-0.011591
5821,-5.846641,2.659958,-4.716577,-0.011858,0.021850,-0.009859
5836,-5.846641,2.554613,-4.742914,-0.016121,0.029044,-0.008260
5851,-6.019023,2.561796,-4.821922,-0.030110,0.029444,0.004397
5866,-5.973533,2.624045,-4.848258,-0.031709,0.048629,0.003198
5881,-5.820304,2.729390,-4.680664,-0.029044,0.041968,0.007328
5896,-5.786786,2.650381,-4.668693,-0.027979,0.032508,0.006395
5911,-5.913678,2.600103,-4.728548,-0.025847,0.020651,0.008793
5926,-5.956774,2.588132,-4.678270,-0.026913,0.004663,0.007328
5941,-5.736507,2.631228,-4.831499,-0.020384,0.009593,0.003997
5956,-5.865794,2.626439,-4.797980,-0.017720,0.012391,-0.005196
5971,-5.846641,2.525883,-4.733336,-0.022250,0.009593,0.002931
5986,-5.973533,2.600103,-4.716577,-0.027312,0.013456,0.006795
6001,-5.865794,2.700660,-4.762067,-0.031309,0.015721,0.006395
6016,-5.889736,2.619257,-4.695029,-0.022783,0.020384,0.003064
6031,-5.925649,2.523489,-4.757279,-0.025047,0.017587,0.013190
6046,-5.987898,2.600103,-4.812346,-0.032508,0.027845,0.011858
6061,-5.801151,2.600103,-4.745308,-0.031842,0.027179,0.007994
6076,-5.884948,2.571373,-4.766856,-0.030243,0.021583,0.011058
6091,-5.940014,2.578555,-4.819528,-0.033974,0.015455,0.012124
6106,-5.865794,2.770091,-4.644751,-0.023848,0.016521,-0.002665
6121,-5.805939,2.698265,-4.683058,-0.009060,0.021850,-0.022916
6136,-5.767632,2.652776,-4.738125,-0.009992,0.020651,-0.028245
6151,-5.961562,2.473210,-4.872200,-0.019452,0.019452,-0.022916
6166,-5.942409,2.382231,-4.800375,-0.035173,0.024648,-0.002798
6181,-5.877765,2.636016,-4.759673,-0.050095,0.014123,0.018386
6196,-5.834670,2.669535,-4.716577,-0.040236,0.016387,0.011724
6211,-5.930438,2.839523,-4.644751,-0.022516,0.030110,-0.010126
6226,-5.899313,2.719813,-4.707000,-0.003597,0.025181,-0.026646
6241,-5.820304,2.588132,-4.812346,0.000000,0.033308,-0.034907
6256,-5.793968,2.489970,-4.764462,-0.007594,0.018519,-0.025181
6271,-5.949591,2.463634,-4.821922,-0.020518,0.021317,-0.010658
6286,-5.901707,2.489970,-4.704606,-0.026646,0.018652,-0.002931
6301,-5.815516,2.691083,-4.774038,-0.028911,0.016121,-0.001865
6316,-5.844246,2.566584,-4.783615,-0.023715,0.024381,-0.004663
6331,-5.935226,2.554613,-4.750096,-0.023182,0.019851,-0.009326
6346,-5.944803,2.645593,-4.728548,-0.015988,0.028112,-0.010925
6361,-5.837064,2.566584,-4.786009,-0.020917,0.018919,-0.011191
6376,-5.882554,2.595315,-4.797980,-0.013856,0.016387,-0.012257
6391,-5.930438,2.528277,-4.704606,-0.018519,0.010126,-0.009992
6406,-5.959168,2.549825,-4.754885,-0.015988,0.017720,-0.013057
6421,-5.834670,2.528277,-4.735731,-0.019851,0.005862,-0.000933
6436,-5.839458,2.585738,-4.886566,-0.023182,0.017187,-0.008394
6451,-5.961562,2.499547,-4.738125,-0.025047,0.010925,-0.002398
6466,-5.894525,2.480393,-4.788404,-0.033308,0.015721,0.003331
6481,-5.872977,2.659958,-4.764462,-0.029044,0.007594,0.007061
6496,-5.803545,2.600103,-4.716577,-0.023982,0.015588,-0.005063
6511,-5.968745,2.564190,-4.824317,-0.015588,0.011858,-0.009726
6526,-5.911284,2.557007,-4.776433,-0.015055,0.014123,-0.013989
6541,-5.851429,2.463634,-4.790798,-0.021983,0.017720,-0.008527
6556,-5.839458,2.523489,-4.853047,-0.026113,0.020917,-0.004397
6571,-5.940014,2.525883,-4.800375,-0.028245,0.021850,-0.003730
6586,-5.894525,2.540248,-4.812346,-0.030910,0.016387,-0.003064
6601,-5.808333,2.554613,-4.829105,-0.031043,0.009859,-0.003730
6616,-5.803545,2.516306,-4.726154,-0.025847,0.021983,-0.009593
6631,-5.992687,2.542642,-4.783615,-0.026913,0.014655,-0.009859
6646,-5.954380,2.554613,-4.776433,-0.023315,0.019985,-0.006662
6661,-5.832275,2.492364,-4.821922,-0.031176,0.014389,0.003864
6676,-5.803545,2.528277,-4.762067,-0.037305,0.015055,0.009726
6691,-5.978322,2.525883,-4.786009,-0.041835,0.014522,0.017187
6706,-5.951985,2.521094,-4.728548,-0.040236,0.012524,0.014389
6721,-5.741296,2.585738,-4.711789,-0.036772,0.011058,0.011458
6736,-5.856217,2.576161,-4.750096,-0.028378,0.011724,0.002798
6751,-5.913678,2.614468,-4.829105,-0.024381,0.014922,-0.008394
6766,-5.920861,2.499547,-4.754885,-0.021850,0.008127,-0.010525
6781,-5.875371,2.499547,-4.848258,-0.029577,0.011191,-0.003198
6796,-5.851429,2.564190,-4.821922,-0.033974,0.014789,0.009726
6811,-5.908890,2.470816,-4.788404,-0.041035,0.006129,0.016920
6826,-5.904101,2.547431,-4.814740,-0.034240,0.012524,0.008527
6841,-5.861006,2.624045,-4.659116,-0.032775,0.005729,0.009193
6856,-5.813122,2.497152,-4.774038,-0.032242,0.006395,0.009459
6871,-5.975927,2.537854,-4.774038,-0.032775,0.015455,0.012524
6886,-5.928043,2.607285,-4.805163,-0.029711,0.017453,0.005862
6901,-5.808333,2.533065,-4.730942,-0.029444,0.012657,0.005329
6916,-5.834670,2.528277,-4.778827,-0.027712,0.013190,0.002398
6931,-5.911284,2.545036,-4.812346,-0.027312,0.010392,0.001599
6946,-5.997475,2.480393,-4.757279,-0.028778,0.008793,-0.000799
6961,-5.882554,2.557007,-4.884171,-0.035306,0.009859,0.011458
6976,-5.851429,2.513912,-4.788404,-0.038904,0.009193,0.019185
6991,-5.923255,2.571373,-4.793192,-0.039969,0.011325,0.012790
7006,-5.920861,2.604891,-4.774038,-0.037704,0.015455,0.014922
7021,-5.774815,2.616862,-4.819528,-0.037305,0.013057,0.008127
7036,-5.839458,2.533065,-4.680664,-0.031443,0.008793,0.004263
7051,-5.911284,2.518700,-4.807557,-0.026247,0.009193,-0.003331
7066,-5.918467,2.506729,-4.790798,-0.026380,0.008926,-0.003597
7081,-5.839458,2.595315,-4.687847,-0.027979,0.009459,-0.004130
7096,-5.892130,2.568978,-4.802769,-0.031176,0.010792,0.004530
7111,-5.940014,2.485181,-4.843470,-0.034507,0.002798,0.012257
7126,-6.004658,2.602497,-4.738125,-0.037704,0.015855,0.018919
7141,-5.839458,2.602497,-4.786009,-0.035972,0.009326,0.013723
7156,-5.798757,2.521094,-4.656722,-0.036772,0.011458,0.009992
7171,-5.930438,2.518700,-4.797980,-0.032775,0.010126,0.005862
7186,-5.961562,2.475605,-4.759673,-0.035040,0.012923,0.005196
7201,-5.858612,2.578555,-4.783615,-0.033441,0.007194,0.007727
7216,-5.849035,2.583344,-4.735731,-0.028378,0.013989,0.005729
7231,-5.899313,2.580949,-4.750096,-0.033574,0.014522,0.001199
7246,-5.985504,2.566584,-4.764462,-0.025980,0.017054,0.001199
7261,-5.940014,2.516306,-4.853047,-0.035040,0.009326,0.008527
7276,-5.837064,2.513912,-4.865018,-0.038637,0.012923,0.010925
7291,-5.959168,2.501941,-4.769250,-0.041568,0.005995,0.016920
7306,-5.963956,2.580949,-4.790798,-0.040769,0.005995,0.014789
7321,-5.870583,2.614468,-4.702212,-0.029977,0.011325,0.005596
7336,-5.865794,2.597709,-4.838682,-0.022116,0.013856,-0.001865
7351,-5.916072,2.525883,-4.726154,-0.024914,0.005862,0.001865
7366,-5.930438,2.501941,-4.738125,-0.024381,0.017187,-0.003864
7381,-5.916072,2.592920,-4.781221,-0.031709,0.004130,0.000799
7396,-5.781997,2.542642,-4.697423,-0.033175,0.013190,0.006129
7411,-6.019023,2.525883,-4.651934,-0.036905,0.012524,0.013190
7426,-5.937620,2.588132,-4.685452,-0.040236,0.010525,0.007594
7441,-5.884948,2.640805,-4.797980,-0.035440,0.017453,0.006528
7456,-5.798757,2.509123,-4.695029,-0.035306,0.011724,0.006928
7471,-5.930438,2.516306,-4.805163,-0.033974,0.017453,0.007861
7486,-5.951985,2.468422,-4.733336,-0.040103,0.005196,0.011191
7501,-5.805939,2.631228,-4.707000,-0.034907,0.013190,0.010126
7516,-5.832275,2.664747,-4.759673,-0.031709,0.009726,0.004397
7531,-5.889736,2.549825,-4.805163,-0.032242,0.012657,0.002798
7546,-5.968745,2.494758,-4.726154,-0.033308,0.012657,0.006129
7561,-5.896919,2.633622,-4.771644,-0.033041,0.013856,0.006129
7576,-5.844246,2.568978,-4.850653,-0.032242,0.011591,0.007861
7591,-5.949591,2.446874,-4.678270,-0.034507,0.011991,0.006395
7606,-6.026206,2.535460,-4.800375,-0.036505,0.012524,0.011724
7621,-5.822699,2.592920,-4.690241,-0.033974,0.004530,0.009726
7636,-5.803545,2.609680,-4.644751,-0.031842,0.013856,0.005329
7651,-5.923255,2.518700,-4.752491,-0.027312,0.009992,-0.003331
7666,-5.930438,2.540248,-4.702212,-0.030377,0.009992,-0.000533
7681,-5.944803,2.504335,-4.759673,-0.035839,0.013590,0.007727
7696,-5.815516,2.578555,-4.805163,-0.038770,0.005063,0.011058
7711,-5.904101,2.595315,-4.862624,-0.033041,0.015455,0.008660
7726,-5.961562,2.621651,-4.766856,-0.028378,0.019185,0.005862
7741,-5.882554,2.547431,-4.721365,-0.026247,0.020251,0.006662
7756,-5.801151,2.535460,-4.726154,-0.024648,0.022250,0.002398
7771,-5.861006,2.516306,-4.817134,-0.030776,0.011058,0.000933
7786,-6.014235,2.454057,-4.786009,-0.028245,0.014789,-0.000799
7801,-5.861006,2.535460,-4.668693,-0.032508,0.009326,-0.000666
7816,-5.846641,2.528277,-4.742914,-0.034107,0.013323,0.002931
7831,-5.985504,2.439692,-4.807557,-0.036772,0.018119,0.006262
7846,-5.987898,2.568978,-4.809951,-0.037971,0.011325,0.007461
7861,-5.896919,2.703054,-4.702212,-0.027446,0.013590,0.000533
7876,-5.758055,2.588132,-4.757279,-0.028778,0.010392,0.002132
7891,-5.971139,2.530671,-4.759673,-0.029311,0.016654,0.007994
7906,-6.009446,2.557007,-4.728548,-0.030776,0.011058,0.005729
7921,-5.908890,2.585738,-4.745308,-0.027579,0.017853,0.002531
7936,-5.846641,2.585738,-4.738125,-0.032242,0.014389,0.000533
7951,-5.899313,2.451663,-4.795586,-0.033974,0.020651,-0.001865
7966,-5.997475,2.523489,-4.802769,-0.034107,0.019052,-0.000400
7981,-5.865794,2.566584,-4.680664,-0.030243,0.011191,-0.000133
7996,-5.793968,2.588132,-4.697423,-0.033441,0.008260,0.003064
8011,-5.947197,2.492364,-4.747702,-0.036772,0.012657,0.001599
8026,-6.016629,2.607285,-4.678270,-0.034240,0.015588,0.000799
8041,-5.947197,2.518700,-4.702212,-0.032508,0.012257,0.000799
8056,-5.865794,2.600103,-4.793192,-0.034640,0.012657,0.001998
8071,-5.949591,2.557007,-4.774038,-0.031309,0.016521,-0.001865
8086,-5.904101,2.511518,-4.742914,-0.030643,0.010658,-0.001599
8101,-5.882554,2.528277,-4.793192,-0.037305,0.009459,0.006928
8116,-5.911284,2.669535,-4.711789,-0.041968,0.006928,0.016121
8131,-5.975927,2.619257,-4.795586,-0.033041,0.012524,0.011591
8146,-5.987898,2.597709,-4.764462,-0.029711,0.016254,0.002798
8161,-5.839458,2.530671,-4.821922,-0.030110,0.012391,0.003198
8176,-5.894525,2.576161,-4.836287,-0.036239,0.015055,0.013190
8191,-5.968745,2.561796,-4.762067,-0.041435,0.015455,0.018386
8206,-5.985504,2.566584,-4.774038,-0.041302,0.017453,0.015988
8221,-5.825093,2.621651,-4.764462,-0.035306,0.011458,0.011591
8236,-5.880159,2.652776,-4.718971,-0.029844,0.014655,0.004796
8251,-5.887342,2.537854,-4.709394,-0.032242,0.011058,0.003730
8266,-5.959168,2.559402,-4.714183,-0.031043,0.015855,0.000266
8281,-5.951985,2.633622,-4.738125,-0.035972,0.014522,0.002132
8296,-5.839458,2.612074,-4.745308,-0.034507,0.015455,0.003864
8311,-5.884948,2.554613,-4.747702,-0.034240,0.015721,0.007594
8326,-5.935226,2.597709,-4.680664,-0.039436,0.019985,0.006395
8341,-5.865794,2.542642,-4.723760,-0.034507,0.011724,0.004397
8356,-5.861006,2.545036,-4.687847,-0.034907,0.022383,0.006262
8371,-5.944803,2.602497,-4.752491,-0.040636,0.008394,0.009459
8386,-5.940014,2.580949,-4.757279,-0.040103,0.011191,0.015322
8401,-5.918467,2.669535,-4.678270,-0.036772,0.012391,0.013057
8416,-5.781997,2.667141,-4.728548,-0.025047,0.014123,0.004796
8431,-5.923255,2.616862,-4.704606,-0.017587,0.014389,-0.003997
8446,-5.959168,2.518700,-4.786009,-0.019985,0.020917,-0.001599
8461,-5.908890,2.506729,-4.728548,-0.026913,0.016387,0.004796
8476,-5.853823,2.554613,-4.721365,-0.032775,0.024648,0.005729
8491,-5.904101,2.564190,-4.716577,-0.030776,0.010259,0.006395
8506,-5.963956,2.573767,-4.675876,-0.028778,0.013456,0.000799
8521,-5.904101,2.588132,-4.797980,-0.029444,0.008660,0.003864
8536,-5.863400,2.535460,-4.718971,-0.030377,0.009060,0.006795
8551,-5.904101,2.523489,-4.745308,-0.032642,0.010259,0.005862
8566,-5.973533,2.595315,-4.802769,-0.035173,0.012790,0.007061
8581,-5.884948,2.607285,-4.716577,-0.032508,0.017187,0.002931
8596,-5.894525,2.600103,-4.764462,-0.032642,0.010925,0.004397
8611,-5.899313,2.571373,-4.666299,-0.031443,0.023315,0.002398
8626,-5.963956,2.626439,-4.695029,-0.026913,0.010525,0.002398
8641,-5.839458,2.616862,-4.750096,-0.024115,0.015055,-0.002931
8656,-5.853823,2.583344,-4.764462,-0.026779,0.008394,0.001466
8671,-5.951985,2.552219,-4.738125,-0.035972,0.009326,0.008260
8686,-5.930438,2.501941,-4.668693,-0.040236,0.014256,0.015322
8701,-5.923255,2.597709,-4.716577,-0.039303,0.013590,0.011724
8716,-5.813122,2.609680,-4.692635,-0.035173,0.008926,0.007994
8731,-5.908890,2.712631,-4.726154,-0.028778,0.010259,0.001199
8746,-5.944803,2.638410,-4.754885,-0.017986,0.019585,-0.007727
8761,-5.880159,2.650381,-4.764462,-0.015055,0.014655,-0.010392
8776,-5.875371,2.545036,-4.697423,-0.020118,0.015988,-0.006795
8791,-5.923255,2.509123,-4.735731,-0.030776,0.015721,0.007594
8806,-5.983110,2.533065,-4.826711,-0.038104,0.008527,0.016920
8821,-5.810728,2.578555,-4.735731,-0.042101,0.016254,0.021184
8836,-5.820304,2.616862,-4.616021,-0.035440,0.018652,0.015055
8851,-5.882554,2.650381,-4.685452,-0.032775,0.015988,0.011724
8866,-5.973533,2.588132,-4.740520,-0.028645,0.015322,0.009326
8881,-5.916072,2.619257,-4.625597,-0.027179,0.018519,0.003730
8896,-5.882554,2.571373,-4.745308,-0.023315,0.019185,0.001865
8911,-5.956774,2.509123,-4.709394,-0.028112,0.025447,0.000133
8926,-6.002264,2.552219,-4.671087,-0.032375,0.018786,0.008127
8941,-5.920861,2.597709,-4.762067,-0.037571,0.019718,0.009326
8956,-5.837064,2.616862,-4.805163,-0.036905,0.014922,0.012124
8971,-5.880159,2.578555,-4.726154,-0.030243,0.011991,0.005196
8986,-6.002264,2.540248,-4.733336,-0.030110,0.008527,0.000799
9001,-5.894525,2.578555,-4.752491,-0.029311,0.008793,0.001199
9016,-5.837064,2.506729,-4.757279,-0.035706,0.010792,0.007461
9031,-5.968745,2.561796,-4.817134,-0.037438,0.008660,0.017587
9046,-5.963956,2.561796,-4.678270,-0.034907,0.022783,0.009992
9061,-5.861006,2.612074,-4.711789,-0.029977,0.022250,0.001332
9076,-5.990293,2.542642,-4.771644,-0.026380,0.026646,-0.006395
9091,-5.990293,2.542642,-4.752491,-0.029444,0.021184,-0.001066
9106,-5.858612,2.662352,-4.702212,-0.031842,0.025980,0.000400
9121,-5.861006,2.628834,-4.750096,-0.033175,0.017853,0.005995
9136,-5.995081,2.607285,-4.735731,-0.033441,0.015455,0.011325
9151,-5.837064,2.609680,-4.673481,-0.021583,0.016121,0.006795
9166,-5.899313,2.636016,-4.848258,-0.028645,0.014123,0.009326
9181,-5.791574,2.557007,-4.721365,-0.025847,0.016920,0.005862
9196,-6.052542,2.619257,-4.757279,-0.027312,0.018119,0.007594
9211,-5.870583,2.604891,-4.644751,-0.032242,0.008394,0.016121
9226,-5.870583,2.609680,-4.735731,-0.026380,0.011458,0.011591
9241,-5.875371,2.624045,-4.702212,-0.032642,0.011325,0.010392
9256,-6.011840,2.518700,-4.766856,-0.033574,0.020384,0.009859
9271,-5.980716,2.475605,-4.654328,-0.041835,0.016521,0.013989
9286,-5.839458,2.580949,-4.733336,-0.041701,0.021583,0.011724
9301,-5.827487,2.645593,-4.704606,-0.041435,0.019985,0.013856
9316,-5.884948,2.633622,-4.723760,-0.031576,0.015988,0.005196
9331,-5.925649,2.695871,-4.728548,-0.025580,0.020651,-0.002265
9346,-5.789180,2.688689,-4.752491,-0.021051,0.016121,-0.004397
9361,-5.882554,2.580949,-4.754885,-0.019985,0.024381,-0.005329
9376,-5.999869,2.492364,-4.764462,-0.031576,0.013456,0.009326
9391,-5.992687,2.513912,-4.750096,-0.040636,0.023049,0.014522
9406,-5.911284,2.681506,-4.702212,-0.041835,0.015455,0.019585
9421,-5.767632,2.626439,-4.774038,-0.032642,0.017453,0.008527
9436,-5.944803,2.554613,-4.764462,-0.030510,0.012790,-0.000799
9451,-5.892130,2.600103,-4.754885,-0.028245,0.004263,-0.000799
9466,-5.841852,2.659958,-4.776433,-0.025847,0.008527,-0.002398
9481,-5.813122,2.633622,-4.728548,-0.029577,0.003864,-0.001466
9496,-5.918467,2.535460,-4.795586,-0.030643,0.011058,-0.001466
9511,-5.918467,2.588132,-4.845864,-0.038371,0.009593,0.008260
9526,-5.834670,2.631228,-4.723760,-0.040502,0.011991,0.006528
9541,-5.846641,2.600103,-4.673481,-0.028911,0.021850,-0.001998
9556,-5.973533,2.602497,-4.793192,-0.028645,0.017187,-0.000933
9571,-5.911284,2.568978,-4.726154,-0.035173,0.016920,0.004663
9586,-5.875371,2.662352,-4.807557,-0.038504,0.019851,0.005196
9601,-5.882554,2.600103,-4.723760,-0.030377,0.016654,0.005063
9616,-5.911284,2.619257,-4.776433,-0.031709,0.011458,0.005196
9631,-5.930438,2.566584,-4.711789,-0.031176,0.014789,0.004530
9646,-5.861006,2.583344,-4.671087,-0.029044,0.016121,0.001599
9661,-5.870583,2.564190,-4.747702,-0.035839,0.014789,0.002931
9676,-5.894525,2.525883,-4.735731,-0.036239,0.015055,0.009726
9691,-5.990293,2.583344,-4.805163,-0.036372,0.017453,0.018253
9706,-5.813122,2.659958,-4.733336,-0.040103,0.018919,0.016920
9721,-5.781997,2.600103,-4.742914,-0.033175,0.013323,0.015988
9736,-5.908890,2.573767,-4.714183,-0.030110,0.010525,0.007061
9751,-6.030994,2.595315,-4.738125,-0.023315,0.005596,0.000000
9766,-5.896919,2.573767,-4.795586,-0.020251,0.016654,-0.008127
9781,-5.777209,2.557007,-4.769250,-0.020384,0.024248,-0.013723
9796,-5.997475,2.528277,-4.769250,-0.024648,0.032109,-0.011858
9811,-5.892130,2.485181,-4.821922,-0.035839,0.020651,-0.002665
9826,-5.944803,2.573767,-4.759673,-0.042368,0.029311,0.002798
9841,-5.834670,2.638410,-4.685452,-0.045965,0.011458,0.010792
9856,-5.870583,2.683900,-4.747702,-0.038237,0.024515,0.007461
9871,-5.892130,2.784456,-4.678270,-0.027579,0.009193,0.002398
9886,-5.851429,2.715025,-4.685452,-0.016121,0.014922,-0.008793
9901,-5.868188,2.609680,-4.774038,-0.023049,0.004796,-0.001865
9916,-5.918467,2.485181,-4.814740,-0.026913,0.027579,0.001066
9931,-5.961562,2.590526,-4.699818,-0.028378,0.010259,0.001732
9946,-5.884948,2.602497,-4.776433,-0.030643,0.011991,0.006528
9961,-5.863400,2.691083,-4.704606,-0.029577,0.014389,0.001732
9976,-5.882554,2.511518,-4.797980,-0.027446,0.004796,0.001998
9991,-5.949591,2.631228,-4.881777,-0.026779,0.015588,0.000533
10006,-5.882554,2.595315,-4.764462,-0.029711,0.016920,0.003198
10021,-5.853823,2.578555,-4.709394,-0.027579,0.015721,0.001332
10036,-5.944803,2.559402,-4.671087,-0.026380,0.021450,-0.002398
10051,-5.963956,2.501941,-4.778827,-0.024515,0.015588,-0.004530
10066,-5.892130,2.638410,-4.738125,-0.025047,0.018919,-0.004263
10081,-5.810728,2.631228,-4.774038,-0.027446,0.013856,-0.000133
10096,-5.865794,2.497152,-4.762067,-0.027979,0.019052,-0.002398
10111,-5.932832,2.568978,-4.764462,-0.029844,0.017720,0.004130
10126,-5.870583,2.568978,-4.769250,-0.030643,0.012923,0.004530
10141,-5.822699,2.612074,-4.702212,-0.027979,0.017853,0.003597
10156,-5.908890,2.580949,-4.831499,-0.030910,0.011591,0.005596
10171,-5.995081,2.595315,-4.692635,-0.028778,0.017187,0.005462
10186,-5.889736,2.631228,-4.800375,-0.026779,0.013323,0.005729
10201,-5.827487,2.540248,-4.774038,-0.025314,0.016521,0.004796
10216,-5.892130,2.516306,-4.695029,-0.027446,0.014389,0.005995
10231,-5.940014,2.583344,-4.774038,-0.029444,0.013190,0.006262
10246,-5.932832,2.547431,-4.826711,-0.030910,0.017320,0.003864
10261,-5.846641,2.580949,-4.733336,-0.034107,0.016387,0.000000
10276,-5.901707,2.568978,-4.831499,-0.034107,0.010925,0.006928
10291,-5.973533,2.588132,-4.718971,-0.033041,0.010792,0.005462
10306,-5.911284,2.667141,-4.728548,-0.032242,0.016387,0.005462
10321,-5.801151,2.583344,-4.673481,-0.029044,0.009859,0.007328
10336,-5.978322,2.566584,-4.730942,-0.028645,0.026247,0.003597
10351,-5.961562,2.595315,-4.728548,-0.029977,0.003464,0.011058
10366,-5.791574,2.659958,-4.802769,-0.023715,0.024515,-0.002265
10381,-5.841852,2.609680,-4.802769,-0.026646,0.005995,0.003198
10396,-5.882554,2.497152,-4.774038,-0.028378,0.014655,0.001466
10411,-5.995081,2.511518,-4.790798,-0.031709,0.012124,0.008260
10426,-5.841852,2.580949,-4.757279,-0.038237,0.007461,0.015721
10441,-5.817910,2.707842,-4.721365,-0.030776,0.012257,0.011058
10456,-5.935226,2.609680,-4.795586,-0.027979,0.008793,0.007461
10471,-6.014235,2.564190,-4.881777,-0.028645,0.014389,0.007328
10486,-5.911284,2.533065,-4.735731,-0.033574,0.013456,0.011724
10501,-5.827487,2.616862,-4.692635,-0.035839,0.007328,0.010925
10516,-5.889736,2.566584,-4.781221,-0.034773,0.012391,0.003997
10531,-6.030994,2.542642,-4.821922,-0.028112,0.014256,-0.001998
10546,-5.834670,2.674323,-4.747702,-0.029577,0.015588,-0.001199
10561,-5.882554,2.636016,-4.687847,-0.024648,0.019585,-0.001865
10576,-5.875371,2.566584,-4.738125,-0.025447,0.013456,-0.001865
10591,-5.978322,2.636016,-4.707000,-0.027046,0.012657,0.001732
10606,-5.875371,2.597709,-4.692635,-0.031309,0.016654,0.001066
10621,-5.803545,2.638410,-4.680664,-0.025714,0.019851,0.003464
10636,-5.877765,2.513912,-4.800375,-0.025714,0.016787,-0.000533
10651,-5.968745,2.504335,-4.695029,-0.028378,0.015055,0.003997
10666,-5.844246,2.523489,-4.738125,-0.030510,0.011325,0.004263
10681,-5.789180,2.600103,-4.747702,-0.036772,0.015322,0.004530
10696,-5.896919,2.590526,-4.829105,-0.035173,0.007061,0.005596
10711,-6.007052,2.561796,-4.812346,-0.037571,0.008527,0.005862
10726,-5.851429,2.628834,-4.788404,-0.036505,0.011858,0.009326
10741,-5.825093,2.564190,-4.738125,-0.031176,0.009859,0.004263
10756,-5.908890,2.576161,-4.613626,-0.025580,0.015322,-0.005995
10771,-6.002264,2.595315,-4.678270,-0.025314,0.016920,-0.011591
10786,-5.865794,2.535460,-4.745308,-0.026646,0.013057,-0.008793
10801,-5.872977,2.528277,-4.661510,-0.025580,0.017853,-0.001865
10816,-5.928043,2.537854,-4.759673,-0.036772,0.009992,0.005862
10831,-5.940014,2.597709,-4.707000,-0.032642,0.015855,0.008527
10846,-5.846641,2.717419,-4.788404,-0.027845,0.010259,0.002132
10861,-5.793968,2.588132,-4.774038,-0.026380,0.014789,0.000133
10876,-5.884948,2.506729,-4.776433,-0.028112,0.010658,0.003331
10891,-6.007052,2.525883,-4.721365,-0.033974,0.013856,0.004397
10906,-5.925649,2.588132,-4.735731,-0.036106,0.012790,0.006662
10921,-5.829881,2.573767,-4.687847,-0.037438,0.019718,0.007328
10936,-5.911284,2.616862,-4.769250,-0.030776,0.013856,-0.000666
10951,-5.966351,2.576161,-4.718971,-0.030110,0.017054,0.002931
10966,-5.940014,2.549825,-4.802769,-0.035173,0.015721,0.007194
10981,-5.791574,2.695871,-4.718971,-0.031975,0.016787,-0.000666
10996,-5.894525,2.528277,-4.774038,-0.031043,0.021717,-0.002665
11011,-5.949591,2.523489,-4.766856,-0.031043,0.011458,0.001199
11026,-5.884948,2.612074,-4.786009,-0.034907,0.006662,0.005729
11041,-5.839458,2.636016,-4.769250,-0.041302,0.014123,0.008793
11056,-5.817910,2.655170,-4.654328,-0.033574,0.015322,0.000799
11071,-5.942409,2.607285,-4.714183,-0.025580,0.011724,0.000933
11086,-5.935226,2.616862,-4.695029,-0.027046,0.015721,-0.001732
11101,-5.817910,2.485181,-4.752491,-0.028778,0.015988,0.001199
11116,-5.997475,2.458845,-4.848258,-0.036505,0.010658,0.009060
11131,-5.963956,2.542642,-4.807557,-0.037305,0.013989,0.013989
11146,-5.894525,2.585738,-4.853047,-0.039170,0.009193,0.014922
11161,-5.882554,2.724602,-4.666299,-0.030910,0.007328,0.011724
11176,-5.892130,2.674323,-4.594473,-0.023982,0.015855,0.000400
11191,-5.980716,2.595315,-4.740520,-0.024248,0.021184,-0.003864
11206,-6.002264,2.461239,-4.752491,-0.031043,0.018786,0.005196
11221,-5.770026,2.564190,-4.764462,-0.031176,0.028245,0.007727
11236,-5.916072,2.571373,-4.762067,-0.036905,0.024914,0.004530
11251,-5.944803,2.504335,-4.812346,-0.042234,0.021317,0.011325
11266,-5.904101,2.621651,-4.747702,-0.038371,0.020518,0.009060
11281,-5.820304,2.631228,-4.752491,-0.039303,0.013190,0.006662
11296,-5.856217,2.612074,-4.766856,-0.035972,0.009193,0.003997
11311,-6.050148,2.576161,-4.771644,-0.031443,0.011591,0.004930
11326,-5.954380,2.664747,-4.738125,-0.029044,0.008260,0.007594
11341,-5.817910,2.592920,-4.683058,-0.026247,0.013456,0.000000
11356,-5.966351,2.542642,-4.769250,-0.029711,0.010392,-0.000666
11371,-5.990293,2.501941,-4.795586,-0.035173,0.012923,0.004530
11386,-5.928043,2.592920,-4.814740,-0.034374,0.010658,0.008127
11401,-5.798757,2.671929,-4.824317,-0.029577,0.011591,0.004930
11416,-5.858612,2.667141,-4.793192,-0.028378,0.006795,0.003730
11431,-5.954380,2.590526,-4.728548,-0.029444,0.014123,0.006129
11446,-5.954380,2.590526,-4.740520,-0.031043,0.013323,0.001732
11461,-5.789180,2.583344,-4.704606,-0.030776,0.015855,0.004930
11476,-5.901707,2.525883,-4.778827,-0.035706,0.020518,0.003864
11491,-5.963956,2.489970,-4.742914,-0.038504,0.021983,0.005596
11506,-5.949591,2.561796,-4.730942,-0.040103,0.020251,0.006928
11521,-5.791574,2.659958,-4.764462,-0.039969,0.016254,0.004530
11536,-5.882554,2.588132,-4.707000,-0.039969,0.007994,0.008394
11551,-5.990293,2.631228,-4.759673,-0.034907,0.013723,0.006928
11566,-5.863400,2.626439,-4.750096,-0.031443,0.010126,0.003864
11581,-5.863400,2.628834,-4.762067,-0.027979,0.013989,0.002531
11596,-5.920861,2.537854,-4.726154,-0.034107,0.013190,0.007861
11611,-5.971139,2.504335,-4.687847,-0.035573,0.015721,0.008926
11626,-5.987898,2.576161,-4.707000,-0.033441,0.005063,0.012124
11641,-5.820304,2.671929,-4.704606,-0.034907,0.014789,0.008793
11656,-5.935226,2.640805,-4.786009,-0.025580,0.013057,0.001066
11671,-5.884948,2.597709,-4.762067,-0.025447,0.008793,-0.002398
11686,-6.066907,2.597709,-4.699818,-0.026913,0.024248,-0.005329
11701,-5.844246,2.540248,-4.716577,-0.026247,0.024781,0.003597
11716,-5.956774,2.540248,-4.812346,-0.035306,0.017587,0.004663
11731,-5.978322,2.509123,-4.872200,-0.035706,0.013856,0.008527
11746,-5.932832,2.612074,-4.742914,-0.035040,0.011591,0.006262
11761,-5.803545,2.726996,-4.661510,-0.033974,0.007861,0.002931
11776,-5.872977,2.691083,-4.774038,-0.027712,0.009859,-0.000133
11791,-6.042965,2.604891,-4.771644,-0.026247,0.014123,0.002265
11806,-5.937620,2.542642,-4.716577,-0.027046,0.011591,0.003730
11821,-5.853823,2.523489,-4.707000,-0.030643,0.022250,0.003864
11836,-5.892130,2.475605,-4.833893,-0.030377,0.012124,0.011325
11851,-6.033388,2.557007,-4.795586,-0.035440,0.015721,0.005462
11866,-5.870583,2.585738,-4.707000,-0.037305,0.010126,0.009859
11881,-5.820304,2.636016,-4.730942,-0.039703,0.012124,0.009326
11896,-5.892130,2.647987,-4.824317,-0.032242,0.005329,0.007461
11911,-6.050148,2.655170,-4.735731,-0.032242,0.011591,0.004530
11926,-5.959168,2.592920,-4.750096,-0.026247,0.011058,0.001599
11941,-5.851429,2.616862,-4.735731,-0.024648,0.015988,0.000266
11956,-5.923255,2.554613,-4.776433,-0.032908,0.011058,0.001599
11971,-5.963956,2.533065,-4.769250,-0.035040,0.011724,0.004263
11986,-5.923255,2.621651,-4.769250,-0.035706,0.013856,0.007328
12001,-5.844246,2.576161,-4.675876,-0.037838,0.009593,0.007594
12016,-5.901707,2.643199,-4.709394,-0.031176,0.014922,0.004930
12031,-5.966351,2.592920,-4.795586,-0.029178,0.011058,0.003730
12046,-5.930438,2.602497,-4.903325,-0.027845,0.009992,0.003331
12061,-5.872977,2.571373,-4.711789,-0.031176,0.011858,0.006395
12076,-5.949591,2.576161,-4.742914,-0.028645,0.018386,-0.002265
12091,-5.997475,2.530671,-4.649539,-0.027046,0.013456,0.002931
12106,-5.947197,2.537854,-4.697423,-0.031709,0.012657,0.005329
12121,-5.899313,2.669535,-4.709394,-0.035173,0.014789,0.006528
12136,-5.868188,2.566584,-4.721365,-0.033041,0.010259,0.004796
12151,-5.973533,2.600103,-4.683058,-0.027046,0.015988,-0.001066
12166,-5.920861,2.554613,-4.807557,-0.027979,0.015322,-0.000933
12181,-5.798757,2.559402,-4.726154,-0.028511,0.011858,-0.001332
12196,-5.856217,2.568978,-4.735731,-0.033441,0.011325,0.001599
12211,-6.011840,2.571373,-4.680664,-0.032242,0.019185,0.001865
12226,-5.913678,2.506729,-4.671087,-0.036372,0.018519,0.008394
12241,-5.791574,2.619257,-4.754885,-0.033175,0.017720,0.004663
12256,-5.861006,2.578555,-4.707000,-0.036239,0.011724,0.008793
12271,-5.956774,2.540248,-4.757279,-0.034507,0.016787,0.004397
12286,-5.966351,2.576161,-4.805163,-0.028911,0.013323,0.006129
12301,-5.815516,2.580949,-4.668693,-0.032775,0.011191,0.005995
12316,-5.940014,2.621651,-4.778827,-0.027446,0.014522,0.003864
12331,-6.011840,2.542642,-4.762067,-0.031176,0.012923,0.004530
12346,-5.947197,2.583344,-4.675876,-0.027845,0.013856,0.004796
12361,-5.825093,2.607285,-4.709394,-0.029977,0.015455,0.001998
12376,-5.829881,2.487576,-4.795586,-0.033175,0.012923,0.002798
12391,-5.971139,2.559402,-4.678270,-0.033574,0.022516,0.007861
12406,-5.949591,2.597709,-4.630386,-0.031709,0.015055,0.001865
12421,-5.805939,2.640805,-4.733336,-0.029577,0.019585,0.004263
12436,-5.892130,2.659958,-4.709394,-0.033175,0.012124,0.008660
12451,-5.956774,2.511518,-4.699818,-0.029311,0.008926,0.004130
12466,-5.971139,2.578555,-4.805163,-0.030377,0.016521,0.005995
12481,-5.825093,2.597709,-4.711789,-0.030243,0.012657,0.001199
12496,-5.829881,2.585738,-4.797980,-0.027712,0.005196,-0.000933
12511,-5.995081,2.499547,-4.862624,-0.031576,0.015055,0.006528
12526,-5.839458,2.659958,-4.783615,-0.034107,0.003864,0.010126
12541,-5.882554,2.619257,-4.718971,-0.035306,0.014922,0.008127
12556,-5.973533,2.580949,-4.663905,-0.027845,0.017187,0.004663
12571,-5.872977,2.549825,-4.800375,-0.026779,0.006395,0.003331
12586,-5.834670,2.535460,-4.733336,-0.027712,0.010126,0.000799
12601,-5.956774,2.499547,-4.747702,-0.031176,0.009593,0.002798
12616,-6.057330,2.557007,-4.673481,-0.034907,0.008926,0.005596
12631,-5.880159,2.655170,-4.697423,-0.034773,0.009060,0.007727
12646,-5.837064,2.638410,-4.805163,-0.031309,0.011724,0.007328
12661,-5.918467,2.609680,-4.730942,-0.028645,0.011058,0.003331
12676,-6.028600,2.552219,-4.790798,-0.031709,0.018253,0.003198
12691,-5.880159,2.643199,-4.702212,-0.035040,0.009859,0.006795
12706,-5.801151,2.659958,-4.829105,-0.031576,0.012657,0.006662
12721,-5.973533,2.664747,-4.716577,-0.028245,0.016787,0.004663
12736,-6.023811,2.614468,-4.663905,-0.029444,0.014655,0.003064
12751,-5.904101,2.621651,-4.654328,-0.025181,0.021983,0.001066
12766,-5.813122,2.578555,-4.821922,-0.026513,0.012923,0.000799
12781,-5.892130,2.559402,-4.678270,-0.025847,0.016254,0.003730
12796,-5.975927,2.542642,-4.802769,-0.029444,0.006928,0.006528
12811,-5.882554,2.557007,-4.711789,-0.033841,0.012524,0.010392
12826,-5.789180,2.616862,-4.644751,-0.039303,0.009992,0.009459
12841,-5.937620,2.655170,-4.757279,-0.031443,0.008926,0.009459
12856,-5.983110,2.540248,-4.649539,-0.029311,0.011991,0.008260
12871,-5.892130,2.573767,-4.723760,-0.027446,0.008926,-0.000266
12886,-5.808333,2.592920,-4.678270,-0.026779,0.011724,-0.001466
12901,-5.930438,2.547431,-4.769250,-0.030377,0.010259,0.003198
12916,-5.956774,2.545036,-4.752491,-0.030510,0.011325,0.001199
12931,-5.899313,2.597709,-4.747702,-0.034640,0.006928,0.007461
12946,-5.834670,2.621651,-4.671087,-0.035972,0.015455,0.004263
12961,-5.995081,2.631228,-4.730942,-0.032109,0.017720,0.006262
12976,-5.973533,2.631228,-4.709394,-0.026779,0.014123,0.005995
12991,-5.940014,2.647987,-4.738125,-0.025980,0.011191,0.003597
13006,-5.841852,2.612074,-4.690241,-0.026779,0.009726,0.002931
13021,-5.949591,2.470816,-4.759673,-0.029844,0.007727,0.006928
13036,-6.016629,2.545036,-4.800375,-0.033974,0.010126,0.007461
13051,-5.877765,2.609680,-4.714183,-0.035972,0.004930,0.012124
13066,-5.920861,2.693477,-4.790798,-0.034773,0.013323,0.007861
13081,-5.894525,2.578555,-4.695029,-0.031309,0.015588,0.006129
13096,-5.973533,2.571373,-4.699818,-0.029577,0.013456,0.003331
13111,-5.820304,2.568978,-4.766856,-0.024115,0.014922,-0.001466
13126,-5.882554,2.585738,-4.735731,-0.025447,0.017054,-0.006262
13141,-5.928043,2.487576,-4.654328,-0.029577,0.009859,0.002531
13156,-5.980716,2.518700,-4.687847,-0.037305,0.013456,0.001466
13171,-5.901707,2.580949,-4.711789,-0.035839,0.009459,0.003997
13186,-5.880159,2.585738,-4.587290,-0.037971,0.010392,0.006528
13201,-5.942409,2.597709,-4.723760,-0.031709,0.009726,0.008394
13216,-5.968745,2.667141,-4.673481,-0.031443,0.015721,0.007194
13231,-5.951985,2.604891,-4.616021,-0.029577,0.016387,0.000933
13246,-5.822699,2.597709,-4.697423,-0.025580,0.009060,-0.001865
13261,-5.892130,2.547431,-4.788404,-0.032375,0.010392,0.003597
13276,-6.057330,2.521094,-4.740520,-0.034507,0.008527,0.009060
13291,-5.930438,2.588132,-4.608838,-0.038904,0.010259,0.010126
13306,-5.872977,2.676718,-4.618415,-0.029711,0.018519,0.006262
13321,-5.932832,2.571373,-4.711789,-0.028778,0.016254,-0.001332
13336,-6.030994,2.559402,-4.668693,-0.025181,0.019585,0.001199
13351,-5.877765,2.585738,-4.800375,-0.030776,0.013590,0.004263
13366,-5.925649,2.636016,-4.733336,-0.034374,0.016787,0.002531
13381,-5.825093,2.549825,-4.778827,-0.038904,0.013856,0.011191
13396,-5.968745,2.592920,-4.733336,-0.034907,0.016920,0.009060
13411,-6.028600,2.636016,-4.802769,-0.033841,0.014789,0.011058
13426,-5.817910,2.633622,-4.740520,-0.033574,0.018253,0.006262
13441,-5.997475,2.588132,-4.699818,-0.031043,0.018652,0.005329
13456,-6.023811,2.557007,-4.790798,-0.034107,0.011191,0.006395
13471,-5.865794,2.568978,-4.738125,-0.033175,0.015855,0.011325
13486,-5.868188,2.671929,-4.623203,-0.031176,0.009593,0.011858
13501,-5.861006,2.686294,-4.647145,-0.032508,0.008394,0.004397
13516,-6.030994,2.564190,-4.718971,-0.029311,0.021184,0.004530
13531,-5.973533,2.568978,-4.790798,-0.027179,0.013856,0.005729
13546,-5.829881,2.554613,-4.613626,-0.033308,0.012524,0.005596
13561,-5.947197,2.566584,-4.750096,-0.034374,0.013856,0.005862
13576,-5.959168,2.662352,-4.733336,-0.031576,0.012257,0.003997
13591,-5.940014,2.631228,-4.695029,-0.029178,0.012391,0.000799
13606,-5.861006,2.619257,-4.702212,-0.027712,0.016787,-0.003064
13621,-5.980716,2.554613,-4.730942,-0.030243,0.013456,0.001732
13636,-5.971139,2.485181,-4.797980,-0.031443,0.012391,0.002931
13651,-5.983110,2.578555,-4.733336,-0.034640,0.011458,0.009459
13666,-5.889736,2.597709,-4.716577,-0.033441,0.015455,0.005063
13681,-5.904101,2.566584,-4.687847,-0.035306,0.017986,0.005995
13696,-5.978322,2.564190,-4.683058,-0.032375,0.018652,0.003997
13711,-5.875371,2.636016,-4.733336,-0.031443,0.012391,0.002132
13726,-5.882554,2.616862,-4.692635,-0.029444,0.011591,0.004663
13741,-5.901707,2.652776,-4.793192,-0.033308,0.012524,0.008926
13756,-6.035782,2.626439,-4.769250,-0.030377,0.015855,0.004397
13771,-5.940014,2.497152,-4.685452,-0.029044,0.015988,0.007461
13786,-5.870583,2.561796,-4.735731,-0.034240,0.012657,0.006795
13801,-5.918467,2.614468,-4.647145,-0.036106,0.011325,0.010925
13816,-6.040571,2.655170,-4.762067,-0.032642,0.012524,0.006262
13831,-5.959168,2.636016,-4.711789,-0.029977,0.014123,0.000266
13846,-5.877765,2.619257,-4.757279,-0.027446,0.013723,-0.003730
13861,-5.925649,2.506729,-4.704606,-0.029711,0.014522,0.002931
13876,-5.971139,2.557007,-4.790798,-0.031443,0.014123,0.001865
13891,-5.942409,2.600103,-4.699818,-0.033041,0.016787,0.003864
13906,-5.853823,2.636016,-4.675876,-0.031975,0.015055,0.001332
13921,-5.892130,2.588132,-4.730942,-0.030243,0.017587,-0.001599
13936,-5.997475,2.561796,-4.771644,-0.030910,0.015188,0.001998
13951,-5.916072,2.616862,-4.742914,-0.035706,0.010792,0.005862
13966,-5.841852,2.621651,-4.632780,-0.039170,0.015855,0.007861
13981,-5.875371,2.667141,-4.692635,-0.033974,0.014789,0.010259
13996,-5.963956,2.557007,-4.752491,-0.030510,0.017054,0.005063
14011,-5.913678,2.597709,-4.649539,-0.025447,0.009593,0.002398
14026,-5.863400,2.616862,-4.702212,-0.029178,0.009726,0.002531
14041,-5.930438,2.564190,-4.812346,-0.033308,0.009060,0.009859
14056,-5.999869,2.568978,-4.699818,-0.038637,0.009992,0.018652
14071,-5.997475,2.619257,-4.702212,-0.032242,0.016787,0.014522
14086,-5.882554,2.647987,-4.745308,-0.032508,0.012657,0.009859
14101,-5.880159,2.542642,-4.692635,-0.033841,0.018253,0.010126
14116,-5.956774,2.537854,-4.709394,-0.035972,0.010259,0.008127
14131,-5.990293,2.540248,-4.752491,-0.034374,0.011858,0.009326
14146,-5.872977,2.616862,-4.745308,-0.036106,0.007861,0.006395
14161,-5.901707,2.609680,-4.802769,-0.037438,0.010792,0.007061
14176,-6.014235,2.578555,-4.699818,-0.033308,0.015055,0.003331
14191,-5.923255,2.652776,-4.695029,-0.033841,0.011991,0.004930
14206,-5.861006,2.628834,-4.666299,-0.034773,0.019585,0.004397
14221,-5.887342,2.516306,-4.728548,-0.030643,0.009992,0.005729
14236,-6.009446,2.571373,-4.707000,-0.033708,0.015188,0.015055
14251,-5.971139,2.554613,-4.716577,-0.033841,0.010392,0.011191
14266,-5.856217,2.686294,-4.702212,-0.029711,0.013989,-0.000266
14281,-5.856217,2.583344,-4.795586,-0.025847,0.013057,0.000400
14296,-6.011840,2.489970,-4.716577,-0.033441,0.015322,0.004796
14311,-5.975927,2.580949,-4.718971,-0.035706,0.011458,0.008260
14326,-5.875371,2.715025,-4.735731,-0.039570,0.012923,0.011325
14341,-5.913678,2.597709,-4.723760,-0.033308,0.011858,0.010259
14356,-5.956774,2.659958,-4.735731,-0.030110,0.013856,0.003198
14371,-5.978322,2.619257,-4.728548,-0.031842,0.014389,0.002398
14386,-5.837064,2.597709,-4.683058,-0.033974,0.008926,0.010126
14401,-5.870583,2.588132,-4.826711,-0.036772,0.007194,0.011325
14416,-6.078878,2.640805,-4.764462,-0.037704,0.019985,0.010792
14431,-5.872977,2.619257,-4.575319,-0.041701,0.009992,0.012257
14446,-5.966351,2.628834,-4.733336,-0.041035,0.015188,0.017453
14461,-5.841852,2.650381,-4.685452,-0.034773,0.008660,0.014256
14476,-5.985504,2.647987,-4.663905,-0.032242,0.017453,0.005596
14491,-5.992687,2.628834,-4.716577,-0.029044,0.007727,0.003997
14506,-5.851429,2.669535,-4.687847,-0.025447,0.014922,-0.003464
14521,-5.894525,2.554613,-4.635174,-0.022516,0.010259,-0.000133
14536,-6.033388,2.537854,-4.805163,-0.029711,0.013590,0.004796
14551,-5.985504,2.614468,-4.838682,-0.033041,0.018519,0.003464
14566,-5.880159,2.636016,-4.745308,-0.031709,0.021583,0.002265
14581,-5.932832,2.626439,-4.675876,-0.029977,0.015721,-0.000133
14596,-5.995081,2.607285,-4.707000,-0.032908,0.018119,0.003064
14611,-5.971139,2.597709,-4.735731,-0.030910,0.014389,0.000799
14626,-5.899313,2.626439,-4.695029,-0.030643,0.015855,0.002798
14641,-5.877765,2.636016,-4.766856,-0.029711,0.012923,0.006129
14656,-6.004658,2.655170,-4.745308,-0.031176,0.017187,0.007061
14671,-6.016629,2.628834,-4.673481,-0.029711,0.018386,0.006528
14686,-5.832275,2.643199,-4.695029,-0.033574,0.018253,0.005462
14701,-5.954380,2.588132,-4.797980,-0.026247,0.012257,0.004263
14716,-6.016629,2.535460,-4.778827,-0.033441,0.015455,0.005196
14731,-6.040571,2.609680,-4.728548,-0.030110,0.019452,-0.000133
14746,-5.896919,2.643199,-4.639963,-0.034240,0.011191,0.002265
14761,-5.916072,2.573767,-4.635174,-0.034107,0.013057,0.005596
14776,-6.004658,2.602497,-4.738125,-0.030910,0.010126,0.011325
14791,-5.971139,2.640805,-4.654328,-0.031043,0.009459,0.005462
14806,-5.884948,2.664747,-4.707000,-0.033041,0.011325,0.009193
14821,-5.868188,2.612074,-4.618415,-0.035440,0.013456,0.008127
14836,-5.947197,2.561796,-4.764462,-0.031709,0.015988,0.007461
14851,-5.961562,2.592920,-4.671087,-0.034773,0.018519,0.005862
14866,-5.892130,2.607285,-4.723760,-0.038104,0.016387,0.011458
14881,-5.844246,2.638410,-4.663905,-0.037038,0.011058,0.010126
14896,-5.949591,2.604891,-4.608838,-0.035573,0.015455,0.008394
14911,-6.023811,2.681506,-4.601655,-0.031709,0.013856,0.001998
14926,-5.884948,2.640805,-4.709394,-0.028911,0.013989,0.004263
14941,-5.913678,2.564190,-4.747702,-0.031975,0.015055,0.001732
14956,-5.990293,2.564190,-4.714183,-0.032375,0.018786,-0.000133
14971,-6.050148,2.578555,-4.661510,-0.034640,0.009992,0.006262
14986,-5.911284,2.652776,-4.747702,-0.039703,0.023982,0.009992
15001,-5.839458,2.626439,-4.632780,-0.035173,0.013723,0.007461
15016,-5.975927,2.659958,-4.707000,-0.030643,0.021317,0.002398
15031,-5.968745,2.671929,-4.733336,-0.023715,0.014655,-0.001732
15046,-5.872977,2.595315,-4.786009,-0.023182,0.012657,0.000400
15061,-5.868188,2.530671,-4.623203,-0.034507,0.010525,0.010792
15076,-5.963956,2.549825,-4.697423,-0.040636,0.013190,0.015455
15091,-6.081272,2.698265,-4.718971,-0.039836,0.014522,0.013723
15106,-5.913678,2.770091,-4.618415,-0.029444,0.012790,0.008127
15121,-5.865794,2.719813,-4.690241,-0.026646,0.023049,0.001466
15136,-6.045359,2.585738,-4.695029,-0.023315,0.019452,0.001998
15151,-5.947197,2.576161,-4.742914,-0.027446,0.021450,-0.000533
15166,-5.923255,2.607285,-4.685452,-0.032508,0.015988,0.000133
15181,-5.861006,2.592920,-4.611232,-0.032375,0.011591,-0.000799
15196,-5.923255,2.559402,-4.735731,-0.037704,0.011991,0.002132
15211,-5.995081,2.607285,-4.716577,-0.038371,0.007328,0.007328
15226,-5.896919,2.729390,-4.611232,-0.037438,0.012657,0.011858
15241,-5.880159,2.726996,-4.762067,-0.028112,0.018386,0.003864
15256,-5.925649,2.686294,-4.702212,-0.020917,0.016521,0.001466
15271,-5.961562,2.616862,-4.702212,-0.020784,0.017986,0.000533
15286,-5.954380,2.518700,-4.714183,-0.022516,0.009326,-0.001998
15301,-5.882554,2.530671,-4.786009,-0.025314,0.014922,-0.001998
15316,-6.009446,2.509123,-4.764462,-0.032775,0.011458,0.007194
15331,-5.992687,2.571373,-4.695029,-0.041568,0.008793,0.009859
15346,-5.901707,2.647987,-4.704606,-0.038904,0.013456,0.007594
15361,-5.858612,2.717419,-4.630386,-0.031975,0.016654,0.003997
15376,-5.985504,2.621651,-4.666299,-0.028245,0.019585,-0.000133
15391,-5.935226,2.643199,-4.757279,-0.021717,0.018253,-0.002398
15406,-5.872977,2.683900,-4.788404,-0.026513,0.021583,-0.003864
15421,-5.863400,2.602497,-4.718971,-0.025847,0.019052,-0.002665
15436,-5.971139,2.470816,-4.716577,-0.028645,0.020384,0.000133
15451,-6.078878,2.640805,-4.675876,-0.034240,0.017853,0.001998
15466,-5.894525,2.643199,-4.690241,-0.036639,0.019452,0.006928
15481,-5.870583,2.736573,-4.766856,-0.033441,0.013190,0.006395
15496,-5.935226,2.631228,-4.630386,-0.030643,0.017054,0.002265
15511,-5.987898,2.609680,-4.649539,-0.030776,0.015188,0.001466
15526,-5.894525,2.552219,-4.695029,-0.033441,0.014522,0.004796
15541,-5.894525,2.676718,-4.716577,-0.035839,0.008260,0.008260
15556,-5.963956,2.600103,-4.632780,-0.034640,0.012524,0.006662
15571,-5.961562,2.626439,-4.613626,-0.031975,0.020384,0.000000
15586,-5.839458,2.612074,-4.632780,-0.032242,0.011458,0.003864
15601,-5.880159,2.664747,-4.644751,-0.036239,0.022649,0.009859
15616,-6.030994,2.628834,-4.668693,-0.030776,0.015721,0.006395
15631,-5.975927,2.612074,-4.654328,-0.027312,0.017853,-0.001199
15646,-5.925649,2.624045,-4.695029,-0.030110,0.015055,0.002265
15661,-5.832275,2.628834,-4.716577,-0.028112,0.006795,0.005596
15676,-6.040571,2.566584,-4.699818,-0.029311,0.009992,0.010792
15691,-5.956774,2.583344,-4.668693,-0.032242,0.009459,0.008260
15706,-5.983110,2.612074,-4.692635,-0.029844,0.019052,0.003730
15721,-5.896919,2.592920,-4.757279,-0.030510,0.019319,0.004796
15736,-5.971139,2.571373,-4.771644,-0.034374,0.016654,0.004397
15751,-6.047753,2.597709,-4.642357,-0.033974,0.014522,0.004130
15766,-5.863400,2.619257,-4.690241,-0.033041,0.016920,-0.000533
15781,-5.791574,2.573767,-4.723760,-0.030910,0.009859,0.001066
15796,-5.956774,2.600103,-4.774038,-0.034640,0.012391,0.006795
15811,-6.011840,2.647987,-4.690241,-0.036639,0.007061,0.003198
15826,-5.882554,2.674323,-4.656722,-0.030643,0.019452,0.005596
15841,-5.925649,2.655170,-4.687847,-0.030377,0.015721,0.005596
15856,-5.968745,2.607285,-4.728548,-0.030243,0.016654,0.006528
15871,-6.026206,2.597709,-4.663905,-0.031443,0.008527,0.007328
15886,-5.971139,2.564190,-4.747702,-0.033574,0.007328,0.006129
15901,-5.856217,2.703054,-4.671087,-0.035972,0.015055,0.007594
15916,-5.901707,2.612074,-4.680664,-0.032508,0.007061,0.003997
15931,-6.038177,2.683900,-4.695029,-0.029844,0.012524,-0.004130
15946,-5.853823,2.712631,-4.697423,-0.022649,0.010658,-0.004130
15961,-5.870583,2.662352,-4.790798,-0.023182,0.023449,-0.002265
15976,-5.987898,2.626439,-4.776433,-0.027712,0.015188,0.004263
15991,-5.817910,2.571373,-4.661510,-0.030377,0.018919,0.003597
16006,-5.923255,2.559402,-4.659116,-0.034107,0.022250,0.008394
16021,-6.009446,2.597709,-4.702212,-0.037438,0.009593,0.008527
16036,-5.949591,2.667141,-4.709394,-0.028911,0.018253,0.002798
16051,-5.805939,2.710236,-4.651934,-0.029977,0.012790,-0.000933
16066,-5.947197,2.600103,-4.671087,-0.029178,0.012124,0.005329
16081,-5.963956,2.585738,-4.659116,-0.026113,0.016254,0.008127
16096,-5.987898,2.640805,-4.683058,-0.023449,0.018652,-0.001599
16111,-5.827487,2.659958,-4.726154,-0.022916,0.017853,-0.002265
16126,-5.911284,2.580949,-4.642357,-0.024781,0.014389,-0.002265
16141,-5.956774,2.547431,-4.695029,-0.031443,0.005995,0.002265
16156,-6.004658,2.537854,-4.718971,-0.036106,0.016254,0.006928
16171,-5.853823,2.628834,-4.690241,-0.034507,0.012124,0.007594
16186,-5.894525,2.607285,-4.762067,-0.035040,0.009326,0.003464
16201,-6.050148,2.662352,-4.733336,-0.034773,0.017587,0.002931
16216,-5.942409,2.695871,-4.675876,-0.027979,0.014123,0.002132
16231,-5.834670,2.703054,-4.728548,-0.030510,0.013057,-0.000266
16246,-5.925649,2.585738,-4.733336,-0.028911,0.010925,0.002132
16261,-5.951985,2.559402,-4.675876,-0.029444,0.014256,0.003730
16276,-5.985504,2.597709,-4.668693,-0.035706,0.008394,0.007594
16291,-5.810728,2.640805,-4.678270,-0.036905,0.014389,0.013057
16306,-5.940014,2.729390,-4.630386,-0.037305,0.016521,0.010792
16321,-6.023811,2.633622,-4.742914,-0.031043,0.017986,0.010925
16336,-5.951985,2.712631,-4.738125,-0.024381,0.017320,0.002798
16351,-5.856217,2.676718,-4.695029,-0.022250,0.008793,0.000133
16366,-5.975927,2.549825,-4.747702,-0.022916,0.015855,-0.004130
16381,-5.971139,2.559402,-4.671087,-0.025714,0.010658,0.001332
16396,-5.992687,2.614468,-4.781221,-0.029044,0.015322,0.002665
16411,-5.858612,2.640805,-4.702212,-0.032242,0.011058,0.011058
16426,-5.861006,2.645593,-4.702212,-0.031043,0.024115,0.006528
16441,-6.033388,2.621651,-4.616021,-0.031975,0.014522,0.007861
16456,-6.019023,2.679112,-4.680664,-0.027446,0.020917,0.004130
16471,-5.815516,2.683900,-4.695029,-0.025047,0.014522,0.001732
16486,-5.920861,2.545036,-4.644751,-0.029977,0.011191,0.004530
16501,-5.978322,2.489970,-4.675876,-0.031576,0.012124,0.004796
16516,-6.009446,2.597709,-4.745308,-0.036772,0.018386,0.007727
16531,-5.930438,2.645593,-4.699818,-0.033308,0.009326,0.005063
16546,-5.887342,2.650381,-4.680664,-0.034773,0.017453,0.004397
16561,-6.112397,2.647987,-4.809951,-0.025847,0.017587,0.002798
16576,-5.944803,2.650381,-4.728548,-0.028778,0.009060,0.003864
16591,-5.892130,2.726996,-4.716577,-0.026113,0.016121,0.000533
16606,-5.951985,2.561796,-4.635174,-0.023982,0.015455,-0.003198
16621,-6.030994,2.513912,-4.718971,-0.030110,0.011058,0.001199
16636,-5.978322,2.525883,-4.690241,-0.036239,0.013323,0.011724
16651,-5.932832,2.607285,-4.642357,-0.041168,0.013856,0.015455
16666,-5.880159,2.691083,-4.625597,-0.039436,0.014522,0.014256
16681,-5.961562,2.676718,-4.671087,-0.028378,0.015055,0.004796
16696,-5.968745,2.686294,-4.618415,-0.023982,0.012391,0.001732
16711,-5.853823,2.619257,-4.726154,-0.021317,0.011058,-0.000266
16726,-5.872977,2.554613,-4.728548,-0.024515,0.015455,-0.002398
16741,-6.014235,2.537854,-4.853047,-0.031842,0.017587,0.002265
16756,-6.026206,2.559402,-4.776433,-0.034374,0.015455,0.002265
16771,-5.884948,2.645593,-4.728548,-0.034507,0.018919,0.003198
16786,-5.880159,2.607285,-4.687847,-0.037971,0.017320,0.005462
16801,-5.992687,2.655170,-4.723760,-0.037305,0.011591,0.007727
16816,-6.042965,2.679112,-4.730942,-0.033974,0.016254,0.005063
16831,-5.858612,2.695871,-4.654328,-0.029178,0.012790,0.000799
16846,-5.901707,2.595315,-4.766856,-0.030377,0.015588,0.001332
16861,-5.975927,2.590526,-4.666299,-0.028245,0.014389,-0.001732
16876,-5.968745,2.549825,-4.728548,-0.036239,0.006795,0.010525
16891,-5.940014,2.710236,-4.778827,-0.034107,0.024648,0.008660
16906,-5.882554,2.715025,-4.678270,-0.032375,0.013989,0.009326
16921,-6.019023,2.647987,-4.704606,-0.026113,0.021317,0.000266
16936,-5.992687,2.597709,-4.675876,-0.022116,0.013590,0.000799
16951,-5.877765,2.638410,-4.685452,-0.022916,0.019319,-0.002132
16966,-5.880159,2.580949,-4.671087,-0.028378,0.011058,-0.001199
16981,-5.975927,2.475605,-4.716577,-0.034507,0.011325,0.004130
16996,-6.076484,2.542642,-4.718971,-0.040236,0.015455,0.003464
17011,-5.858612,2.650381,-4.711789,-0.038770,0.011591,0.009593
17026,-5.884948,2.633622,-4.742914,-0.037971,0.019052,0.007061
17041,-5.963956,2.585738,-4.709394,-0.038104,0.006528,0.007328
17056,-6.026206,2.609680,-4.673481,-0.030776,0.018652,0.005995
17071,-5.928043,2.638410,-4.625597,-0.029178,0.014789,0.010392
17086,-5.796362,2.676718,-4.721365,-0.028112,0.017320,0.003597
17101,-5.987898,2.626439,-4.683058,-0.029178,0.015588,0.003464
17116,-5.937620,2.602497,-4.757279,-0.034907,0.017453,0.005196
17131,-5.882554,2.559402,-4.778827,-0.033841,0.011858,0.009193
17146,-5.884948,2.628834,-4.747702,-0.037438,0.011058,0.013989
17161,-5.995081,2.691083,-4.656722,-0.034374,0.017054,0.008260
17176,-6.007052,2.645593,-4.707000,-0.028645,0.015322,0.005329
17191,-5.887342,2.624045,-4.726154,-0.025181,0.014655,-0.001066
17206,-5.913678,2.573767,-4.733336,-0.027312,0.016254,0.000933
17221,-6.038177,2.564190,-4.716577,-0.031975,0.015055,0.002132
17236,-6.019023,2.568978,-4.735731,-0.033841,0.009593,0.006528
17251,-5.916072,2.669535,-4.661510,-0.034507,0.016387,0.006395
17266,-5.901707,2.676718,-4.695029,-0.031443,0.017853,-0.000266
17281,-5.937620,2.652776,-4.726154,-0.026646,0.013323,-0.003730
17296,-6.009446,2.580949,-4.726154,-0.025314,0.013456,-0.001199
17311,-5.930438,2.619257,-4.728548,-0.036772,0.008926,0.007727
17326,-5.947197,2.679112,-4.716577,-0.037704,0.013590,0.008660
17341,-5.956774,2.657564,-4.699818,-0.035440,0.011591,0.010925
17356,-6.009446,2.631228,-4.750096,-0.028645,0.013989,0.006262
17371,-5.928043,2.614468,-4.738125,-0.029977,0.010126,0.001998
17386,-5.825093,2.573767,-4.714183,-0.028778,0.018119,0.004930
17401,-6.023811,2.619257,-4.649539,-0.029844,0.011058,0.002531
17416,-5.990293,2.616862,-4.707000,-0.032508,0.009326,0.005862
17431,-5.870583,2.640805,-4.697423,-0.034240,0.011058,0.000933
17446,-5.913678,2.655170,-4.632780,-0.034374,0.018386,0.003064
17461,-6.021417,2.633622,-4.666299,-0.030377,0.013190,0.001865
17476,-5.901707,2.650381,-4.644751,-0.028511,0.017453,0.001199
17491,-5.918467,2.638410,-4.742914,-0.027979,0.012524,0.002531
17506,-5.820304,2.602497,-4.627992,-0.027712,0.014256,0.003597
17521,-5.995081,2.509123,-4.762067,-0.032109,0.015055,0.004130
17536,-5.978322,2.636016,-4.745308,-0.035306,0.014256,0.009060
17551,-5.913678,2.657564,-4.826711,-0.038504,0.012657,0.008926
17566,-5.851429,2.695871,-4.627992,-0.029444,0.013590,0.010259
17581,-6.007052,2.636016,-4.680664,-0.031176,0.015188,0.009459
17596,-6.007052,2.640805,-4.702212,-0.025847,0.015188,0.000799
17611,-5.935226,2.614468,-4.790798,-0.026513,0.016920,-0.001865
17626,-5.923255,2.557007,-4.728548,-0.024781,0.017853,0.002798
17641,-5.973533,2.542642,-4.666299,-0.028778,0.016121,0.002265
17656,-5.980716,2.557007,-4.678270,-0.029844,0.014522,0.000666
17671,-5.913678,2.652776,-4.716577,-0.034507,0.015055,0.000266
17686,-5.884948,2.576161,-4.639963,-0.028778,0.016521,0.004263
17701,-5.940014,2.619257,-4.766856,-0.029311,0.014789,0.002398
17716,-6.038177,2.600103,-4.783615,-0.028245,0.017187,-0.000400
17731,-5.861006,2.676718,-4.742914,-0.030643,0.015188,0.003331
17746,-5.865794,2.597709,-4.673481,-0.030510,0.017853,-0.000666
17761,-5.978322,2.604891,-4.781221,-0.031043,0.013723,0.000000
17776,-5.942409,2.497152,-4.690241,-0.031576,0.013323,0.003198
17791,-5.892130,2.650381,-4.747702,-0.036639,0.015055,0.007194
17806,-5.882554,2.583344,-4.690241,-0.037038,0.012524,0.011191
17821,-6.016629,2.588132,-4.742914,-0.037438,0.008660,0.011191
17836,-5.980716,2.671929,-4.702212,-0.030377,0.014123,0.009859
17851,-5.944803,2.633622,-4.675876,-0.033041,0.015055,0.003198
17866,-5.820304,2.624045,-4.745308,-0.029311,0.015455,0.003464
17881,-6.028600,2.631228,-4.649539,-0.031176,0.017720,0.003730
17896,-6.028600,2.667141,-4.668693,-0.033974,0.016387,0.006262
17911,-5.908890,2.674323,-4.637568,-0.026513,0.021583,0.005329
17926,-5.870583,2.688689,-4.613626,-0.025580,0.009992,0.002132
17941,-5.947197,2.624045,-4.759673,-0.026380,0.016121,0.003331
17956,-5.990293,2.525883,-4.790798,-0.023715,0.012923,0.003864
17971,-5.904101,2.619257,-4.704606,-0.029311,0.014789,0.005462
17986,-5.908890,2.628834,-4.726154,-0.029444,0.014655,0.006528
18001,-6.007052,2.578555,-4.738125,-0.035040,0.014123,0.005729
18016,-6.016629,2.530671,-4.630386,-0.032775,0.016920,0.005862
18031,-5.892130,2.650381,-4.711789,-0.030510,0.020251,0.001865
18046,-5.906496,2.624045,-4.776433,-0.032642,0.006795,0.005329
18061,-5.978322,2.576161,-4.742914,-0.037305,0.013590,0.004796
18076,-6.052542,2.573767,-4.690241,-0.033041,0.014389,0.005596
18091,-5.880159,2.671929,-4.728548,-0.029178,0.013723,0.006395
18106,-5.839458,2.664747,-4.707000,-0.029444,0.016254,0.008394
18121,-5.983110,2.626439,-4.745308,-0.030510,0.015721,0.003464
18136,-5.963956,2.580949,-4.666299,-0.035173,0.009326,0.008793
18151,-5.894525,2.592920,-4.690241,-0.030243,0.018652,0.006662
18166,-5.896919,2.595315,-4.687847,-0.030910,0.013323,0.004663
18181,-5.954380,2.628834,-4.742914,-0.031709,0.012524,0.005196
18196,-6.023811,2.557007,-4.819528,-0.033974,0.008394,0.004397
18211,-5.882554,2.659958,-4.627992,-0.032242,0.019851,0.001599
18226,-5.858612,2.698265,-4.654328,-0.027579,0.013057,0.000933
18241,-5.983110,2.557007,-4.728548,-0.028378,0.019585,0.003464
18256,-5.985504,2.516306,-4.754885,-0.029044,0.015455,0.001998
18271,-5.896919,2.580949,-4.714183,-0.031709,0.013989,0.003997
18286,-5.889736,2.530671,-4.659116,-0.029711,0.019185,0.003730
18301,-5.937620,2.523489,-4.687847,-0.037038,0.014256,0.006262
18316,-5.999869,2.657564,-4.692635,-0.034107,0.018119,0.005995
18331,-5.928043,2.657564,-4.714183,-0.030776,0.017853,0.002132
18346,-5.916072,2.631228,-4.707000,-0.031309,0.015988,0.003864
18361,-5.947197,2.612074,-4.699818,-0.032642,0.018786,0.004263
18376,-6.019023,2.557007,-4.623203,-0.029844,0.021983,0.004130
18391,-5.877765,2.561796,-4.630386,-0.034374,0.013590,0.000400
18406,-5.853823,2.626439,-4.668693,-0.035440,0.018386,0.005462
18421,-5.949591,2.621651,-4.671087,-0.031309,0.015588,0.005729
18436,-5.992687,2.624045,-4.747702,-0.033441,0.016521,0.003464
18451,-5.920861,2.626439,-4.678270,-0.031043,0.013856,0.000266
18466,-5.861006,2.624045,-4.632780,-0.029178,0.021184,-0.002665
18481,-5.971139,2.619257,-4.793192,-0.030377,0.014922,0.002398
18496,-6.069301,2.621651,-4.721365,-0.028911,0.022250,0.002665
18511,-5.896919,2.650381,-4.639963,-0.027179,0.013590,0.008260
18526,-5.846641,2.626439,-4.735731,-0.029577,0.013989,0.005063
18541,-5.918467,2.588132,-4.747702,-0.035306,0.013057,0.007461
18556,-6.019023,2.568978,-4.769250,-0.034107,0.013057,0.010259
18571,-5.925649,2.609680,-4.671087,-0.035839,0.016387,0.008926
18586,-5.889736,2.712631,-4.742914,-0.031443,0.013057,0.007727
18601,-5.913678,2.674323,-4.750096,-0.027179,0.017320,0.005729
18616,-6.011840,2.631228,-4.661510,-0.027845,0.015322,0.005462
18631,-5.820304,2.597709,-4.663905,-0.032109,0.016254,0.004530
18646,-5.889736,2.576161,-4.714183,-0.034507,0.014389,0.006528
18661,-5.913678,2.571373,-4.740520,-0.030776,0.012657,0.003464
18676,-6.014235,2.607285,-4.745308,-0.032109,0.016654,0.003597
18691,-5.868188,2.600103,-4.738125,-0.032642,0.011858,0.001732
18706,-5.820304,2.602497,-4.697423,-0.035972,0.018119,0.002931
18721,-5.942409,2.600103,-4.738125,-0.032642,0.011991,0.003464
18736,-6.004658,2.645593,-4.730942,-0.026913,0.018253,-0.000533
18751,-5.889736,2.676718,-4.759673,-0.033308,0.014123,0.000533
18766,-5.880159,2.679112,-4.649539,-0.030643,0.016787,0.001332
18781,-5.961562,2.600103,-4.718971,-0.029178,0.012657,0.000000
18796,-6.009446,2.604891,-4.790798,-0.029977,0.013590,0.003464
18811,-5.904101,2.540248,-4.659116,-0.034507,0.014389,0.007994
18826,-5.865794,2.609680,-4.747702,-0.037704,0.014256,0.005995
18841,-5.942409,2.657564,-4.728548,-0.033308,0.018786,0.005596
18856,-6.059724,2.659958,-4.671087,-0.026380,0.010126,-0.002665
18871,-5.884948,2.602497,-4.704606,-0.023315,0.017453,-0.005196
18886,-5.875371,2.576161,-4.721365,-0.026380,0.010925,-0.002132
18901,-5.904101,2.540248,-4.697423,-0.036639,0.012391,0.005995
18916,-6.033388,2.638410,-4.738125,-0.037971,0.018786,0.009459
18931,-5.904101,2.707842,-4.656722,-0.036239,0.017320,0.008793
18946,-5.829881,2.674323,-4.568137,-0.026247,0.015588,0.001199
18961,-5.990293,2.588132,-4.709394,-0.024781,0.012790,-0.001732
18976,-6.083666,2.614468,-4.721365,-0.026513,0.013723,0.000933
18991,-5.918467,2.655170,-4.726154,-0.025580,0.014789,0.001199
19006,-5.839458,2.585738,-4.752491,-0.027845,0.016654,0.009593
19021,-5.990293,2.521094,-4.764462,-0.033708,0.012790,0.009060
19036,-6.016629,2.614468,-4.783615,-0.033708,0.015988,0.010925
19051,-5.846641,2.655170,-4.695029,-0.031842,0.011858,0.005995
19066,-5.872977,2.638410,-4.716577,-0.030110,0.013323,0.007061
19081,-5.983110,2.647987,-4.728548,-0.030110,0.010126,0.008527
19096,-6.023811,2.588132,-4.740520,-0.033441,0.012790,0.010259
19111,-5.956774,2.602497,-4.716577,-0.033974,0.022250,0.005862
19126,-5.899313,2.662352,-4.680664,-0.027712,0.023982,0.004130
19141,-5.920861,2.703054,-4.699818,-0.026913,0.014389,0.002931
19156,-6.033388,2.561796,-4.592079,-0.021850,0.015455,-0.005462
19171,-5.963956,2.592920,-4.776433,-0.026113,0.021850,-0.004130
19186,-5.882554,2.650381,-4.714183,-0.024781,0.016787,0.003997
19201,-5.896919,2.619257,-4.656722,-0.029311,0.016121,0.002665
19216,-6.021417,2.600103,-4.659116,-0.027579,0.022783,-0.001332
19231,-5.932832,2.624045,-4.644751,-0.029577,0.014389,0.001865
19246,-5.808333,2.652776,-4.793192,-0.029577,0.012257,0.004130
19261,-5.913678,2.590526,-4.649539,-0.032242,0.012524,0.007727
19276,-6.026206,2.568978,-4.795586,-0.031443,0.005862,0.005729
19291,-5.925649,2.597709,-4.690241,-0.034907,0.004530,0.007594
19306,-5.841852,2.662352,-4.697423,-0.034640,0.016254,0.009193
19321,-5.913678,2.633622,-4.714183,-0.033574,0.008527,0.006795
19336,-6.045359,2.616862,-4.656722,-0.027579,0.021983,0.001865
19351,-5.894525,2.590526,-4.716577,-0.027845,0.014789,0.002798
19366,-5.837064,2.616862,-4.788404,-0.031975,0.011191,0.004263
19381,-5.932832,2.557007,-4.774038,-0.033441,0.011058,0.002398
19396,-6.042965,2.566584,-4.750096,-0.037838,0.015588,0.005862
19411,-5.944803,2.602497,-4.680664,-0.038770,0.013323,0.005729
19426,-5.887342,2.710236,-4.618415,-0.037838,0.012790,0.008127
19441,-5.980716,2.619257,-4.711789,-0.033175,0.015721,0.004930
19456,-5.861006,2.671929,-4.704606,-0.029977,0.013856,0.000666
19471,-5.877765,2.552219,-4.795586,-0.028778,0.009726,0.005995
19486,-5.968745,2.523489,-4.625597,-0.035573,0.010658,0.006262
19501,-5.961562,2.616862,-4.759673,-0.037971,0.014522,0.011325
19516,-5.880159,2.664747,-4.707000,-0.035040,0.014789,0.010658
19531,-5.896919,2.676718,-4.678270,-0.034107,0.013323,0.007727
19546,-6.023811,2.602497,-4.738125,-0.035040,0.015055,0.007461
19561,-5.971139,2.602497,-4.678270,-0.035440,0.015455,0.004530
19576,-5.901707,2.633622,-4.781221,-0.034507,0.014789,0.006395
19591,-5.796362,2.669535,-4.683058,-0.031176,0.012391,0.007061
19606,-5.992687,2.650381,-4.711789,-0.029044,0.014522,0.002398
19621,-6.035782,2.537854,-4.649539,-0.028245,0.010259,0.002798
19636,-5.868188,2.640805,-4.726154,-0.031709,0.014789,0.005995
19651,-5.877765,2.583344,-4.685452,-0.031443,0.016787,0.001466
19666,-5.997475,2.545036,-4.771644,-0.028378,0.015721,0.005063
19681,-5.947197,2.655170,-4.673481,-0.035040,0.017853,0.007328
19696,-5.870583,2.628834,-4.659116,-0.040502,0.009326,0.013323
19711,-5.865794,2.609680,-4.687847,-0.036106,0.008394,0.012257
19726,-6.019023,2.636016,-4.651934,-0.034507,0.016387,0.005995
19741,-6.014235,2.636016,-4.608838,-0.026779,0.012391,0.003198
19756,-5.877765,2.667141,-4.718971,-0.025181,0.017986,-0.002132
19771,-5.863400,2.640805,-4.790798,-0.029844,0.013590,0.005995
19786,-6.007052,2.525883,-4.608838,-0.031842,0.015322,0.006129
19801,-5.987898,2.573767,-4.587290,-0.034773,0.009593,0.005462
19816,-5.872977,2.621651,-4.675876,-0.029977,0.014522,0.006795
19831,-5.872977,2.612074,-4.680664,-0.031975,0.017187,0.002398
19846,-5.940014,2.573767,-4.709394,-0.033974,0.012391,0.006528
19861,-5.956774,2.607285,-4.666299,-0.032508,0.013323,0.007594
19876,-5.975927,2.722207,-4.766856,-0.031576,0.013057,0.003864
19891,-5.837064,2.595315,-4.742914,-0.032642,0.016787,0.006129
19906,-5.975927,2.554613,-4.738125,-0.034507,0.015455,0.002132
19921,-5.990293,2.573767,-4.762067,-0.029844,0.015188,0.002132
19936,-5.942409,2.645593,-4.671087,-0.031043,0.015588,0.001998
19951,-5.887342,2.590526,-4.668693,-0.029178,0.016121,-0.002531
19966,-5.913678,2.530671,-4.766856,-0.028911,0.010525,0.000400
19981,-5.999869,2.477999,-4.608838,-0.039037,0.010525,0.007328
19996,-5.942409,2.652776,-4.714183,-0.037305,0.020917,0.007994
20011,-5.861006,2.671929,-4.565742,-0.032375,0.009593,0.006928
20026,-5.966351,2.621651,-4.716577,-0.030510,0.018386,0.005729
20041,-6.076484,2.566584,-4.805163,-0.036505,0.005862,0.006528
20056,-5.901707,2.667141,-4.678270,-0.036639,0.013989,0.007328
20071,-5.959168,2.640805,-4.659116,-0.034640,0.019319,0.008127
20086,-5.992687,2.638410,-4.699818,-0.029711,0.020251,0.000533
20101,-5.940014,2.604891,-4.738125,-0.027446,0.009326,0.001732
20116,-5.930438,2.628834,-4.711789,-0.032775,0.016920,0.003730
20131,-5.872977,2.645593,-4.723760,-0.032375,0.009726,0.006129
20146,-5.949591,2.566584,-4.651934,-0.034640,0.012790,0.008127
20161,-6.035782,2.664747,-4.647145,-0.034240,0.008926,0.003597
20176,-5.880159,2.628834,-4.671087,-0.028778,0.014655,0.002398
20191,-5.959168,2.636016,-4.695029,-0.032375,0.016920,0.005329
20206,-5.997475,2.585738,-4.721365,-0.029977,0.016387,0.002398
20221,-5.954380,2.643199,-4.707000,-0.031842,0.015188,0.007328
20236,-5.714959,2.334347,-4.714183,-0.094461,0.017320,0.076075
20251,-6.265626,2.571373,-4.742914,-0.028511,0.061020,0.004796
20266,-5.801151,2.715025,-4.647145,-0.036505,-0.004130,0.009193
20281,-5.997475,2.616862,-4.632780,-0.026113,0.025847,-0.004263
20296,-5.918467,2.662352,-4.750096,-0.030243,0.011724,0.004930
20311,-5.779603,2.595315,-4.683058,-0.029178,0.008926,0.001732
20326,-6.038177,2.604891,-4.685452,-0.029178,0.015455,0.003198
20341,-6.002264,2.657564,-4.630386,-0.036772,0.006528,0.001865
20356,-5.932832,2.626439,-4.750096,-0.030243,0.013057,0.000133
20371,-5.918467,2.626439,-4.747702,-0.028645,0.017720,-0.001466
20386,-5.966351,2.619257,-4.663905,-0.031043,0.014922,0.001466
20401,-6.064513,2.674323,-4.675876,-0.029311,0.019052,0.005596
20416,-5.949591,2.614468,-4.659116,-0.031176,0.014922,0.005596
20431,-5.849035,2.626439,-4.675876,-0.029044,0.019319,0.000000
20446,-5.975927,2.554613,-4.730942,-0.030243,0.012257,0.001732
20461,-6.074090,2.612074,-4.637568,-0.027979,0.013456,0.001199
20476,-5.880159,2.686294,-4.627992,-0.031309,0.007861,0.004397
20491,-5.901707,2.626439,-4.738125,-0.030510,0.015188,0.007194
20506,-5.968745,2.616862,-4.685452,-0.030243,0.019718,0.008394
20521,-5.940014,2.571373,-4.659116,-0.028645,0.020651,0.009060
20536,-5.944803,2.588132,-4.764462,-0.033708,0.018386,0.005729
20551,-5.858612,2.650381,-4.644751,-0.033841,0.018919,0.004397
20566,-5.968745,2.559402,-4.709394,-0.032775,0.013456,0.006129
20581,-6.038177,2.612074,-4.702212,-0.032642,0.020784,0.003198
20596,-5.920861,2.645593,-4.714183,-0.033308,0.011991,-0.000133
20611,-5.875371,2.638410,-4.671087,-0.026646,0.019452,-0.002398
20626,-5.966351,2.571373,-4.774038,-0.032242,0.015188,0.003064
20641,-6.004658,2.535460,-4.663905,-0.037038,0.015988,0.007994
20656,-5.940014,2.657564,-4.659116,-0.033574,0.018519,0.003464
20671,-5.858612,2.671929,-4.714183,-0.032375,0.007594,0.004530
20686,-5.951985,2.580949,-4.692635,-0.026646,0.017720,0.001732
20701,-6.014235,2.604891,-4.759673,-0.026513,0.014256,-0.000400
20716,-5.942409,2.650381,-4.692635,-0.029977,0.015721,0.000799
20731,-5.920861,2.616862,-4.702212,-0.030377,0.018253,0.005995
20746,-5.944803,2.638410,-4.666299,-0.032508,0.016920,0.004530
20761,-6.021417,2.624045,-4.757279,-0.030377,0.011591,0.000000
20776,-5.932832,2.667141,-4.707000,-0.030243,0.016787,0.002798
20791,-5.832275,2.638410,-4.659116,-0.033708,0.013057,0.008793
20806,-5.961562,2.602497,-4.637568,-0.035440,0.019585,0.005596
20821,-6.102820,2.667141,-4.666299,-0.032642,0.020251,0.006795
20836,-5.817910,2.671929,-4.604050,-0.032508,0.020917,0.004796
20851,-5.884948,2.659958,-4.795586,-0.032775,0.018386,0.003864
20866,-5.983110,2.604891,-4.726154,-0.031443,0.011191,0.006662
20881,-5.963956,2.578555,-4.752491,-0.032508,0.011724,0.006528
20896,-5.913678,2.650381,-4.774038,-0.036372,0.016121,0.005729
20911,-5.861006,2.667141,-4.752491,-0.035573,0.009859,0.008660
20926,-6.004658,2.652776,-4.678270,-0.031709,0.018652,0.003997
20941,-5.995081,2.652776,-4.723760,-0.029178,0.012790,-0.000133
20956,-5.896919,2.645593,-4.750096,-0.026913,0.024648,-0.002132
20971,-5.884948,2.588132,-4.759673,-0.032375,0.013057,0.002531
20986,-5.913678,2.554613,-4.592079,-0.034773,0.014522,0.006395
21001,-5.999869,2.726996,-4.649539,-0.033841,0.006795,0.004663
21016,-5.844246,2.688689,-4.563348,-0.027845,0.015188,0.000666
21031,-5.937620,2.638410,-4.695029,-0.026247,0.013057,-0.001199
21046,-5.896919,2.564190,-4.704606,-0.029577,0.012124,0.001066
21061,-6.040571,2.640805,-4.754885,-0.032908,0.013323,0.006928
21076,-5.887342,2.628834,-4.728548,-0.036372,0.018386,0.007194
21091,-5.923255,2.657564,-4.752491,-0.033441,0.014789,0.004130
21106,-5.911284,2.595315,-4.639963,-0.027179,0.013989,-0.002398
21121,-5.980716,2.597709,-4.735731,-0.028245,0.018119,-0.003064
21136,-5.884948,2.638410,-4.759673,-0.032508,0.008926,0.001466
21151,-5.877765,2.537854,-4.704606,-0.036239,0.016920,0.007861
21166,-5.978322,2.628834,-4.663905,-0.033974,0.018786,0.006528
21181,-5.971139,2.645593,-4.649539,-0.030243,0.008926,0.004263
21196,-5.920861,2.636016,-4.608838,-0.030243,0.014123,0.005462
21211,-5.861006,2.590526,-4.663905,-0.028245,0.011724,0.003864
21226,-5.985504,2.595315,-4.592079,-0.027046,0.014522,-0.001865
21241,-5.975927,2.578555,-4.807557,-0.028511,0.010925,0.004397
21256,-5.956774,2.722207,-4.759673,-0.031443,0.020384,0.000000
21271,-5.872977,2.657564,-4.671087,-0.030510,0.015721,0.002398
21286,-5.935226,2.590526,-4.695029,-0.030910,0.015322,0.007061
21301,-5.990293,2.612074,-4.675876,-0.027312,0.019718,0.003730
21316,-5.930438,2.674323,-4.695029,-0.030910,0.017320,-0.001199
21331,-5.865794,2.657564,-4.769250,-0.027579,0.014389,-0.001332
21346,-6.009446,2.540248,-4.618415,-0.033175,0.016521,0.001599
21361,-6.042965,2.619257,-4.740520,-0.035573,0.021184,0.001998
21376,-5.920861,2.638410,-4.678270,-0.034507,0.019851,0.001066
21391,-5.908890,2.679112,-4.656722,-0.031709,0.020917,0.002265
21406,-5.978322,2.631228,-4.702212,-0.031975,0.018519,0.001998
21421,-6.009446,2.573767,-4.742914,-0.033041,0.012790,0.001066
21436,-5.856217,2.583344,-4.750096,-0.031443,0.010925,-0.002132
21451,-5.813122,2.633622,-4.663905,-0.030110,0.008394,0.001332
21466,-5.961562,2.602497,-4.738125,-0.031842,0.010126,-0.000666
21481,-5.973533,2.588132,-4.671087,-0.028645,0.018786,-0.000666
21496,-5.923255,2.650381,-4.795586,-0.031176,0.011325,0.000799
21511,-5.894525,2.585738,-4.786009,-0.031709,0.015855,0.003730
21526,-5.987898,2.571373,-4.738125,-0.033441,0.011591,0.007328
21541,-6.028600,2.528277,-4.680664,-0.033308,0.015455,0.008660
21556,-5.916072,2.645593,-4.671087,-0.033708,0.015988,0.009326
21571,-5.849035,2.640805,-4.659116,-0.029844,0.008394,0.004930
21586,-5.923255,2.647987,-4.740520,-0.025580,0.018253,0.000533
21601,-6.038177,2.511518,-4.726154,-0.033708,0.013590,0.003997
21616,-5.904101,2.595315,-4.771644,-0.030910,0.019319,0.005729
21631,-5.880159,2.647987,-4.762067,-0.036772,0.012790,0.008660
21646,-5.990293,2.631228,-4.611232,-0.035839,0.012391,0.004263
21661,-6.028600,2.607285,-4.654328,-0.031176,0.015855,0.007328
21676,-5.947197,2.631228,-4.692635,-0.032642,0.018119,0.002665
21691,-5.865794,2.616862,-4.623203,-0.029977,0.012790,0.005729
21706,-5.954380,2.597709,-4.687847,-0.030243,0.017320,-0.000266
21721,-6.016629,2.640805,-4.718971,-0.027579,0.017986,-0.001066
21736,-5.899313,2.636016,-4.620809,-0.031975,0.012790,0.002265
21751,-5.856217,2.645593,-4.716577,-0.031176,0.017054,0.000133
21766,-6.004658,2.528277,-4.740520,-0.031176,0.009726,0.003331
21781,-5.980716,2.602497,-4.733336,-0.031709,0.013723,0.006528
21796,-5.889736,2.607285,-4.735731,-0.032508,0.015988,0.000266
21811,-5.930438,2.710236,-4.714183,-0.030110,0.012524,0.004663
21826,-5.975927,2.607285,-4.766856,-0.029711,0.012391,0.006262
21841,-6.021417,2.652776,-4.678270,-0.025847,0.017054,0.004397
21856,-5.918467,2.592920,-4.680664,-0.027046,0.010925,0.007194
21871,-5.851429,2.614468,-4.738125,-0.026380,0.016254,0.004530
21886,-6.004658,2.559402,-4.685452,-0.030377,0.015188,0.003730
21901,-5.995081,2.595315,-4.685452,-0.027312,0.016521,0.002132
21916,-5.992687,2.636016,-4.745308,-0.034374,0.012124,0.009726
21931,-5.872977,2.612074,-4.730942,-0.034773,0.017453,0.004796
21946,-6.028600,2.616862,-4.695029,-0.031975,0.023049,0.005329
21961,-6.026206,2.609680,-4.642357,-0.032109,0.014789,0.001998
21976,-5.930438,2.686294,-4.692635,-0.027579,0.017720,0.000799
21991,-5.832275,2.667141,-4.601655,-0.027046,0.014522,-0.005329
22006,-5.942409,2.588132,-4.632780,-0.027179,0.011724,0.000000
22021,-6.062119,2.638410,-4.678270,-0.028778,0.010792,-0.001865
22036,-5.918467,2.626439,-4.697423,-0.029577,0.014655,0.000400
22051,-5.856217,2.612074,-4.671087,-0.030110,0.017986,0.004397
22066,-5.928043,2.609680,-4.771644,-0.033441,0.011591,0.003464
22081,-6.047753,2.636016,-4.759673,-0.032109,0.021717,0.005596
22096,-5.918467,2.698265,-4.735731,-0.031176,0.010925,0.010925
22111,-5.882554,2.679112,-4.745308,-0.030910,0.019052,0.005462
22126,-5.940014,2.595315,-4.776433,-0.029977,0.016920,0.005196
22141,-6.014235,2.580949,-4.575319,-0.028112,0.014789,0.002132
22156,-5.944803,2.537854,-4.740520,-0.030377,0.016920,-0.000799
22171,-5.822699,2.614468,-4.630386,-0.035972,0.017054,0.006395
22186,-5.954380,2.626439,-4.747702,-0.031576,0.017720,0.003864
22201,-5.968745,2.552219,-4.690241,-0.032908,0.015322,-0.000799
22216,-5.944803,2.681506,-4.709394,-0.033574,0.016521,0.002265
22231,-5.870583,2.585738,-4.687847,-0.032375,0.015055,0.003064
22246,-6.011840,2.604891,-4.661510,-0.038237,0.016387,0.008394
22261,-6.059724,2.590526,-4.702212,-0.035972,0.016787,0.005729
22276,-5.983110,2.686294,-4.623203,-0.029178,0.021850,0.004663
22291,-5.849035,2.681506,-4.692635,-0.027979,0.017453,0.004263
22306,-5.911284,2.564190,-4.709394,-0.024648,0.016121,0.001599
22321,-5.925649,2.557007,-4.704606,-0.027712,0.012790,0.000133
22336,-5.954380,2.616862,-4.663905,-0.027046,0.017986,0.001998
22351,-5.827487,2.609680,-4.709394,-0.031975,0.013590,0.005063
22366,-5.961562,2.619257,-4.656722,-0.034240,0.015055,0.002398
22381,-6.002264,2.585738,-4.685452,-0.031576,0.019052,0.003464
22396,-5.904101,2.626439,-4.716577,-0.033708,0.012657,0.008394
22411,-5.899313,2.585738,-4.690241,-0.036106,0.012657,0.005729
22426,-5.925649,2.583344,-4.730942,-0.033841,0.015721,0.005462
22441,-5.951985,2.621651,-4.663905,-0.031443,0.010126,0.005995
22456,-5.906496,2.590526,-4.716577,-0.033841,0.015721,0.005063
22471,-5.861006,2.686294,-4.735731,-0.032375,0.014123,0.003198
22486,-5.959168,2.576161,-4.721365,-0.024648,0.020784,-0.002665
22501,-5.997475,2.597709,-4.685452,-0.025447,0.017986,-0.002398
22516,-5.882554,2.573767,-4.673481,-0.030377,0.017320,0.001332
22531,-5.892130,2.626439,-4.750096,-0.035173,0.017453,0.002265
22546,-6.011840,2.662352,-4.742914,-0.031842,0.016121,0.003997
22561,-6.028600,2.600103,-4.656722,-0.029444,0.013057,0.003064
22576,-5.908890,2.609680,-4.596867,-0.029844,0.013989,0.002931
22591,-5.896919,2.631228,-4.683058,-0.031975,0.013190,0.001332
22606,-5.951985,2.604891,-4.723760,-0.034240,0.016387,0.004263
22621,-6.042965,2.535460,-4.649539,-0.032375,0.013057,0.002798
22636,-5.911284,2.602497,-4.656722,-0.029711,0.014389,0.005063
22651,-5.837064,2.710236,-4.764462,-0.030243,0.014123,0.004663
22666,-5.961562,2.588132,-4.620809,-0.030910,0.011325,0.004263
22681,-6.028600,2.607285,-4.735731,-0.033041,0.009992,0.005196
22696,-5.937620,2.659958,-4.714183,-0.027845,0.013590,0.003198
22711,-5.889736,2.669535,-4.769250,-0.029044,0.012524,0.001599
22726,-5.947197,2.583344,-4.632780,-0.030510,0.017320,0.001865
22741,-5.966351,2.650381,-4.740520,-0.029977,0.012923,0.002798
22756,-5.971139,2.624045,-4.702212,-0.031975,0.015188,0.003064
22771,-5.858612,2.585738,-4.668693,-0.030110,0.020118,0.000400
22786,-5.944803,2.561796,-4.704606,-0.031176,0.018253,0.005196
22801,-6.009446,2.612074,-4.695029,-0.029444,0.017986,0.007194
22816,-5.923255,2.652776,-4.711789,-0.027979,0.013590,0.001732
22831,-5.841852,2.614468,-4.752491,-0.031842,0.018919,0.003064
22846,-5.932832,2.600103,-4.752491,-0.031709,0.014123,0.006528
22861,-6.021417,2.592920,-4.618415,-0.033974,0.016654,0.006795
22876,-5.975927,2.657564,-4.644751,-0.031975,0.015455,0.009992
22891,-5.861006,2.602497,-4.728548,-0.027046,0.016521,0.001332
22906,-5.990293,2.604891,-4.644751,-0.031576,0.015588,-0.000666
22921,-5.894525,2.585738,-4.649539,-0.034240,0.016387,0.001199
22936,-5.944803,2.645593,-4.613626,-0.035706,0.015588,0.007328
22951,-6.021417,2.571373,-4.673481,-0.034507,0.020118,0.003730
22966,-5.968745,2.746149,-4.651934,-0.025447,0.021583,0.002798
22981,-5.827487,2.686294,-4.721365,-0.017587,0.017187,-0.003464
22996,-5.875371,2.542642,-4.692635,-0.016654,0.021450,-0.004130
23011,-6.052542,2.451663,-4.740520,-0.022516,0.014522,0.002132
23026,-5.928043,2.530671,-4.752491,-0.029844,0.014789,0.005462
23041,-5.858612,2.588132,-4.735731,-0.032508,0.009992,0.005596
23056,-5.846641,2.576161,-4.659116,-0.033175,0.011591,0.009326
23071,-6.019023,2.614468,-4.707000,-0.038770,0.016254,0.009593
23086,-6.014235,2.659958,-4.649539,-0.035839,0.014522,0.007861
23101,-5.923255,2.633622,-4.656722,-0.031043,0.013989,0.003997
23116,-5.882554,2.571373,-4.668693,-0.027046,0.020251,0.000799
23131,-6.011840,2.537854,-4.589684,-0.029044,0.020518,0.005596
23146,-5.995081,2.499547,-4.656722,-0.035306,0.018119,0.004663
23161,-5.810728,2.626439,-4.726154,-0.034107,0.019319,0.006528
23176,-5.880159,2.643199,-4.654328,-0.031975,0.014522,0.004930
23191,-5.937620,2.657564,-4.666299,-0.033441,0.017720,0.007194
23206,-6.030994,2.616862,-4.584896,-0.030643,0.016121,0.001998
23221,-5.863400,2.585738,-4.685452,-0.027979,0.013323,0.000933
23236,-5.904101,2.547431,-4.769250,-0.032242,0.009060,0.006262
23251,-6.007052,2.547431,-4.747702,-0.032908,0.011858,0.010658
23266,-6.004658,2.602497,-4.740520,-0.031709,0.016387,0.003597
23281,-5.901707,2.657564,-4.711789,-0.030243,0.018253,0.001466
23296,-5.913678,2.636016,-4.793192,-0.026113,0.018519,-0.000799
23311,-5.995081,2.600103,-4.745308,-0.027312,0.017320,-0.001599
23326,-6.002264,2.588132,-4.699818,-0.029044,0.015055,0.003997
23341,-5.944803,2.600103,-4.695029,-0.034240,0.013057,0.005862
23356,-5.861006,2.671929,-4.721365,-0.031975,0.014922,0.005329
23371,-5.968745,2.602497,-4.742914,-0.025047,0.017320,0.001732
23386,-6.016629,2.571373,-4.659116,-0.031709,0.009992,0.002132
23401,-5.937620,2.669535,-4.711789,-0.034507,0.014655,0.008260
23416,-5.901707,2.607285,-4.752491,-0.034907,0.015322,0.009726
23431,-6.038177,2.616862,-4.690241,-0.035040,0.017720,0.007461
23446,-5.940014,2.554613,-4.671087,-0.033574,0.014256,0.007061
23461,-5.884948,2.652776,-4.723760,-0.028112,0.019052,0.001466
23476,-5.875371,2.640805,-4.699818,-0.030510,0.012124,0.002398
23491,-6.038177,2.566584,-4.695029,-0.029178,0.018652,0.001332
23506,-6.002264,2.590526,-4.695029,-0.033441,0.015988,0.005596
23521,-5.906496,2.626439,-4.678270,-0.034773,0.014655,0.008260
23536,-5.861006,2.681506,-4.723760,-0.029711,0.018253,0.005329
23551,-6.019023,2.647987,-4.783615,-0.030910,0.015055,0.001332
23566,-5.949591,2.566584,-4.752491,-0.026247,0.017187,-0.002132
23581,-5.954380,2.633622,-4.642357,-0.030510,0.020118,0.004663
23596,-5.896919,2.633622,-4.707000,-0.034107,0.018786,0.006262
23611,-5.951985,2.518700,-4.809951,-0.037704,0.015055,0.014123
23626,-5.995081,2.588132,-4.707000,-0.039303,0.019185,0.005462
23641,-5.913678,2.624045,-4.616021,-0.038371,0.016521,0.005462
23656,-5.827487,2.602497,-4.685452,-0.035706,0.011591,0.006395
23671,-5.980716,2.580949,-4.692635,-0.032908,0.015455,0.002798
23686,-5.983110,2.576161,-4.639963,-0.029311,0.008260,0.004397
23701,-5.872977,2.621651,-4.752491,-0.028645,0.009992,-0.000266
23716,-5.882554,2.612074,-4.750096,-0.033441,0.011858,0.001199
23731,-6.033388,2.592920,-4.683058,-0.031576,0.015721,0.004930
23746,-5.971139,2.633622,-4.659116,-0.030243,0.017587,0.004263
23761,-5.882554,2.659958,-4.728548,-0.028645,0.020784,0.000000
23776,-5.817910,2.636016,-4.656722,-0.029044,0.012124,0.001332
23791,-5.925649,2.537854,-4.702212,-0.031443,0.014655,0.002132
23806,-6.086061,2.568978,-4.707000,-0.031176,0.015055,0.004130
23821,-5.942409,2.578555,-4.718971,-0.035573,0.012923,0.008260
23836,-5.832275,2.659958,-4.666299,-0.035839,0.016521,0.012391
23851,-5.961562,2.554613,-4.635174,-0.037971,0.012391,0.010792
23866,-6.009446,2.583344,-4.707000,-0.033041,0.017320,0.009193
23881,-5.899313,2.640805,-4.680664,-0.036772,0.014522,0.010658
23896,-5.947197,2.652776,-4.726154,-0.035706,0.017853,0.009593
23911,-5.959168,2.626439,-4.752491,-0.034640,0.015055,0.008394
23926,-5.992687,2.621651,-4.709394,-0.030643,0.021983,0.003997
23941,-5.906496,2.633622,-4.678270,-0.032375,0.016787,0.003997
23956,-5.875371,2.664747,-4.627992,-0.025314,0.017986,-0.006129
23971,-5.916072,2.583344,-4.771644,-0.027446,0.015588,-0.001332
23986,-6.016629,2.482787,-4.659116,-0.030510,0.016787,0.005596
24001,-5.911284,2.628834,-4.642357,-0.032375,0.013323,0.007727
24016,-5.872977,2.710236,-4.795586,-0.029178,0.016254,0.006795
24031,-5.999869,2.602497,-4.553771,-0.028378,0.013190,0.000400
24046,-5.987898,2.638410,-4.707000,-0.024914,0.018119,-0.002665
24061,-5.880159,2.590526,-4.776433,-0.031309,0.020384,0.002665
24076,-5.870583,2.607285,-4.663905,-0.031842,0.013856,0.005729
24091,-5.975927,2.592920,-4.623203,-0.032508,0.017187,0.006528
24106,-6.019023,2.626439,-4.654328,-0.029444,0.015322,0.005862
24121,-5.882554,2.681506,-4.726154,-0.024781,0.015988,0.000666
24136,-5.882554,2.621651,-4.745308,-0.021450,0.015055,-0.003331
24151,-5.985504,2.568978,-4.716577,-0.031309,0.011858,0.001599
24166,-5.966351,2.588132,-4.726154,-0.035839,0.009593,0.007994
24181,-5.935226,2.631228,-4.695029,-0.030377,0.012391,0.005462
24196,-5.870583,2.671929,-4.690241,-0.027979,0.011724,0.002665
24211,-5.944803,2.530671,-4.685452,-0.026646,0.020251,0.004663
24226,-6.004658,2.583344,-4.742914,-0.034773,0.014655,0.003730
24241,-5.923255,2.571373,-4.709394,-0.031443,0.018652,-0.000666
24256,-5.853823,2.628834,-4.764462,-0.028511,0.021051,-0.000933
24271,-5.973533,2.607285,-4.740520,-0.026913,0.016787,0.000933
24286,-5.949591,2.561796,-4.714183,-0.029844,0.017453,0.005196
24301,-5.925649,2.624045,-4.656722,-0.030243,0.014389,0.003064
24316,-5.877765,2.681506,-4.709394,-0.034107,0.020384,0.004530
24331,-5.944803,2.643199,-4.709394,-0.030377,0.016121,0.001066
24346,-5.997475,2.580949,-4.675876,-0.030243,0.010925,0.004796
24361,-5.911284,2.580949,-4.663905,-0.033574,0.017853,0.006395
24376,-5.882554,2.633622,-4.644751,-0.030643,0.012391,0.007194
24391,-5.985504,2.609680,-4.711789,-0.029844,0.017320,0.002931
24406,-6.021417,2.602497,-4.711789,-0.029577,0.015055,0.002265
24421,-5.937620,2.624045,-4.742914,-0.028112,0.014389,-0.000133
24436,-5.851429,2.633622,-4.671087,-0.030377,0.020384,-0.001599
24451,-5.954380,2.549825,-4.639963,-0.032242,0.014389,0.005462
24466,-6.016629,2.595315,-4.788404,-0.032109,0.011991,0.004930
24481,-5.918467,2.662352,-4.692635,-0.033308,0.011858,0.006662
24496,-5.865794,2.535460,-4.709394,-0.033708,0.007994,0.003997
24511,-5.947197,2.592920,-4.718971,-0.034507,0.011858,0.005862
24526,-5.987898,2.628834,-4.738125,-0.028511,0.013456,0.004663
24541,-5.911284,2.624045,-4.649539,-0.030510,0.012524,0.003730
24556,-5.861006,2.614468,-4.762067,-0.029711,0.017054,0.005462
24571,-5.987898,2.619257,-4.666299,-0.029178,0.013590,0.005462
24586,-6.062119,2.540248,-4.728548,-0.027712,0.020518,0.009326
24601,-5.944803,2.631228,-4.716577,-0.027579,0.017720,0.001466
24616,-5.880159,2.547431,-4.678270,-0.030243,0.014123,0.001732
24631,-5.930438,2.583344,-4.740520,-0.032508,0.016654,0.007194
24646,-5.956774,2.602497,-4.668693,-0.032508,0.011458,0.007994
24661,-5.887342,2.705448,-4.738125,-0.030510,0.013456,0.001732
24676,-5.779603,2.638410,-4.697423,-0.029444,0.016121,-0.002132
24691,-5.884948,2.568978,-4.769250,-0.029844,0.013723,-0.000933
24706,-6.047753,2.547431,-4.702212,-0.034773,0.011991,0.003730
24721,-6.002264,2.628834,-4.596867,-0.034240,0.016787,0.005729
24736,-5.882554,2.647987,-4.659116,-0.031709,0.017054,0.005063
24751,-5.940014,2.638410,-4.695029,-0.033708,0.014256,0.001466
24766,-6.033388,2.554613,-4.587290,-0.026913,0.016121,0.001066
24781,-5.892130,2.619257,-4.774038,-0.028911,0.013323,0.003597
24796,-5.865794,2.645593,-4.745308,-0.029178,0.013057,0.001199
24811,-5.951985,2.576161,-4.730942,-0.035306,0.011458,0.005596
24826,-5.971139,2.600103,-4.678270,-0.032242,0.010658,-0.000400
24841,-5.937620,2.597709,-4.762067,-0.029711,0.005462,0.001332
24856,-5.846641,2.614468,-4.683058,-0.029311,0.013723,0.002665
24871,-6.009446,2.545036,-4.671087,-0.030243,0.014789,0.003331
24886,-5.942409,2.559402,-4.783615,-0.031309,0.011991,0.003331
24901,-5.901707,2.602497,-4.685452,-0.029044,0.012657,0.007061
24916,-5.911284,2.659958,-4.735731,-0.031842,0.012657,0.009060
24931,-5.923255,2.616862,-4.771644,-0.030910,0.012923,0.006528
24946,-6.069301,2.597709,-4.750096,-0.028911,0.013856,0.005196
24961,-5.932832,2.628834,-4.680664,-0.030110,0.014389,0.005329
24976,-5.858612,2.616862,-4.707000,-0.026913,0.021717,-0.001466
24991,-5.896919,2.559402,-4.774038,-0.026913,0.009326,-0.001865
25006,-6.026206,2.530671,-4.704606,-0.032242,0.017986,-0.002798
25021,-5.901707,2.636016,-4.721365,-0.030510,0.007861,0.002132
25036,-5.951985,2.559402,-4.800375,-0.038904,0.017320,0.007994
25051,-5.954380,2.633622,-4.793192,-0.039969,0.000400,0.013456
25066,-5.995081,2.638410,-4.695029,-0.027712,0.020518,0.004130
25081,-5.971139,2.650381,-4.757279,-0.027446,0.014389,0.002398
25096,-5.899313,2.595315,-4.721365,-0.024115,0.015988,-0.005862
25111,-5.985504,2.554613,-4.735731,-0.029844,0.009859,0.001332
25126,-6.028600,2.588132,-4.623203,-0.035040,0.008127,0.006928
25141,-5.920861,2.669535,-4.656722,-0.033441,0.014522,0.003864
25156,-5.858612,2.671929,-4.759673,-0.029977,0.011724,0.002665
25171,-5.899313,2.588132,-4.692635,-0.034907,0.006528,0.004796
25186,-6.100426,2.547431,-4.663905,-0.032508,0.021450,0.006928
25201,-5.884948,2.652776,-4.671087,-0.034640,0.010525,0.006262
25216,-5.901707,2.621651,-4.680664,-0.027312,0.017587,0.001599
25231,-5.966351,2.580949,-4.716577,-0.029844,0.010658,0.001998
25246,-5.997475,2.497152,-4.740520,-0.032642,0.015721,0.004397
25261,-5.987898,2.612074,-4.718971,-0.031443,0.013856,0.008394
25276,-5.858612,2.626439,-4.762067,-0.034374,0.019319,0.008127
25291,-5.923255,2.643199,-4.740520,-0.029844,0.012923,0.004663
25306,-5.944803,2.633622,-4.692635,-0.031043,0.008127,0.004397
25321,-5.959168,2.650381,-4.687847,-0.031309,0.017054,0.002931
25336,-5.815516,2.650381,-4.630386,-0.031975,0.008926,0.003064
25351,-5.975927,2.585738,-4.747702,-0.029444,0.013989,0.003730
25366,-6.035782,2.633622,-4.675876,-0.027312,0.014389,0.005596
25381,-5.870583,2.609680,-4.776433,-0.035040,0.005462,0.007061
25396,-5.928043,2.638410,-4.654328,-0.027979,0.020384,0.000133
25411,-5.901707,2.595315,-4.730942,-0.034907,0.008793,0.005596
25426,-5.973533,2.609680,-4.692635,-0.030910,0.013323,-0.004130
25441,-6.009446,2.597709,-4.680664,-0.035972,0.010126,0.003464
25456,-5.880159,2.619257,-4.726154,-0.037571,0.009593,0.011325
25471,-5.901707,2.624045,-4.649539,-0.035040,0.011991,0.009992
25486,-6.045359,2.679112,-4.589684,-0.026513,0.018386,0.001732
25501,-5.920861,2.590526,-4.721365,-0.024248,0.009859,-0.001199
25516,-5.894525,2.621651,-4.714183,-0.027979,0.014789,0.000266
25531,-5.949591,2.583344,-4.639963,-0.032109,0.015055,0.000000
25546,-6.047753,2.614468,-4.678270,-0.034374,0.018919,-0.001599
25561,-5.889736,2.628834,-4.752491,-0.031842,0.010126,-0.000400
25576,-5.846641,2.624045,-4.671087,-0.034240,0.013456,0.001332
25591,-5.990293,2.571373,-4.707000,-0.035040,0.007861,0.005729
25606,-5.997475,2.573767,-4.711789,-0.029577,0.015322,-0.002132
25621,-6.038177,2.597709,-4.639963,-0.026913,0.015322,-0.002531
25636,-5.820304,2.600103,-4.714183,-0.029311,0.017720,-0.002665
25651,-5.923255,2.542642,-4.695029,-0.032642,0.011858,-0.001332
25666,-6.038177,2.554613,-4.690241,-0.029977,0.012257,-0.000533
25681,-6.011840,2.590526,-4.654328,-0.033574,0.014789,0.004663
25696,-5.884948,2.707842,-4.695029,-0.036106,0.012124,0.009060
25711,-5.928043,2.624045,-4.642357,-0.033841,0.015855,0.010259
25726,-6.016629,2.626439,-4.699818,-0.027579,0.011591,0.003464
25741,-5.894525,2.588132,-4.642357,-0.028378,0.016787,0.000933
25756,-5.872977,2.607285,-4.711789,-0.028245,0.017720,0.000666
25771,-5.949591,2.535460,-4.711789,-0.034507,0.012657,0.004397
25786,-6.023811,2.557007,-4.723760,-0.033441,0.013989,0.006928
25801,-5.906496,2.604891,-4.718971,-0.031443,0.010126,0.006928
25816,-5.808333,2.674323,-4.711789,-0.029311,0.016521,0.001332
25831,-5.918467,2.616862,-4.740520,-0.028112,0.016254,-0.003198
25846,-6.004658,2.530671,-4.678270,-0.026646,0.017054,-0.000533
25861,-6.002264,2.554613,-4.618415,-0.025714,0.015455,-0.000133
25876,-5.892130,2.609680,-4.699818,-0.029977,0.009326,0.001998
25891,-5.911284,2.576161,-4.742914,-0.033708,0.014123,0.000533
25906,-6.057330,2.535460,-4.668693,-0.032109,0.013723,0.001732
25921,-6.035782,2.600103,-4.680664,-0.033308,0.014522,0.007194
25936,-5.877765,2.674323,-4.730942,-0.036772,0.017587,0.008660
25951,-5.908890,2.566584,-4.702212,-0.033041,0.016654,0.007594
25966,-6.038177,2.614468,-4.625597,-0.030377,0.014922,0.007994
25981,-5.961562,2.616862,-4.745308,-0.032642,0.016920,0.005196
25996,-5.899313,2.657564,-4.675876,-0.030110,0.013057,0.006795
26011,-5.920861,2.533065,-4.809951,-0.033441,0.015322,0.006928
26026,-5.959168,2.590526,-4.668693,-0.032375,0.011058,0.004663
26041,-5.937620,2.614468,-4.754885,-0.040902,0.017054,0.005862
26056,-5.918467,2.628834,-4.692635,-0.034240,0.013456,0.005862
26071,-5.978322,2.600103,-4.771644,-0.035706,0.011591,0.006528
26086,-5.992687,2.583344,-4.692635,-0.032508,0.018119,0.001466
26101,-5.987898,2.571373,-4.656722,-0.029311,0.020518,0.000266
26116,-5.825093,2.554613,-4.651934,-0.030510,0.015455,0.002132
26131,-5.916072,2.607285,-4.800375,-0.033574,0.010792,0.004530
26146,-5.999869,2.609680,-4.778827,-0.034107,0.016121,0.004663
26161,-5.899313,2.633622,-4.680664,-0.031576,0.009593,0.003730
26176,-5.911284,2.559402,-4.747702,-0.033708,0.015721,0.002398
26191,-5.913678,2.636016,-4.771644,-0.031709,0.012124,0.005596
26206,-6.054936,2.554613,-4.735731,-0.034773,0.020251,0.009459
26221,-5.978322,2.674323,-4.675876,-0.033308,0.019585,0.007194
26236,-5.829881,2.686294,-4.651934,-0.033574,0.017720,0.002398
26251,-5.947197,2.614468,-4.699818,-0.033175,0.017986,0.002265
26266,-6.038177,2.525883,-4.824317,-0.035839,0.007994,0.007727
26281,-5.980716,2.607285,-4.635174,-0.034240,0.017853,0.009326
26296,-5.865794,2.691083,-4.639963,-0.031576,0.013190,0.002265
26311,-5.937620,2.621651,-4.707000,-0.027446,0.016254,0.001466
26326,-6.002264,2.547431,-4.627992,-0.028378,0.017187,-0.001865
26341,-5.995081,2.583344,-4.757279,-0.027712,0.013590,0.001199
26356,-5.901707,2.602497,-4.692635,-0.033308,0.017587,0.003864
26371,-6.030994,2.525883,-4.654328,-0.035440,0.016654,0.005729
26386,-5.829881,2.700660,-4.654328,-0.034507,0.011458,0.002531
26401,-5.846641,2.619257,-4.671087,-0.033841,0.012391,0.006795
26416,-5.983110,2.636016,-4.642357,-0.029178,0.014789,0.007061
26431,-6.033388,2.523489,-4.685452,-0.030110,0.014655,0.004397
26446,-5.954380,2.576161,-4.728548,-0.033308,0.016387,0.005196
26461,-5.889736,2.552219,-4.687847,-0.032109,0.012524,0.004530
26476,-5.985504,2.523489,-4.757279,-0.030910,0.016654,0.003331
26491,-6.016629,2.645593,-4.745308,-0.036239,0.008660,0.008926
26506,-5.882554,2.614468,-4.742914,-0.036239,0.011191,0.007994
26521,-5.896919,2.647987,-4.769250,-0.031443,0.011591,0.007727
26536,-5.963956,2.597709,-4.644751,-0.035972,0.017853,0.007328
26551,-5.997475,2.657564,-4.723760,-0.033441,0.016654,0.007994
26566,-5.875371,2.607285,-4.726154,-0.029444,0.012257,0.007861
26581,-5.920861,2.595315,-4.762067,-0.028112,0.018919,0.003597
26596,-5.937620,2.583344,-4.656722,-0.029977,0.013590,0.003864
26611,-5.930438,2.578555,-4.788404,-0.035040,0.009726,0.004663
26626,-6.033388,2.650381,-4.642357,-0.034507,0.021051,0.005329
26641,-5.741296,2.657564,-4.738125,-0.035040,0.006262,0.007461
26656,-6.033388,2.609680,-4.707000,-0.033974,0.012790,0.006395
26671,-5.961562,2.633622,-4.800375,-0.035440,0.009459,0.011591
26686,-5.956774,2.667141,-4.692635,-0.033308,0.016787,0.011191
26701,-5.865794,2.619257,-4.668693,-0.030377,0.015721,0.012657
26716,-5.956774,2.662352,-4.644751,-0.030643,0.014922,0.009060
26731,-5.978322,2.585738,-4.709394,-0.028911,0.011991,0.006129
26746,-5.916072,2.607285,-4.754885,-0.026247,0.011991,0.000533
26761,-5.825093,2.588132,-4.711789,-0.031309,0.012257,0.007461
26776,-5.968745,2.528277,-4.623203,-0.035972,0.018386,0.006662
26791,-6.030994,2.612074,-4.663905,-0.038504,0.013723,0.009326
26806,-5.861006,2.645593,-4.654328,-0.033974,0.020251,0.009992
26821,-5.863400,2.669535,-4.695029,-0.030377,0.013323,0.002665
26836,-5.911284,2.583344,-4.762067,-0.032375,0.017986,0.002665
26851,-6.064513,2.576161,-4.673481,-0.028645,0.019718,-0.001998
26866,-5.911284,2.604891,-4.697423,-0.029977,0.009193,-0.000799
26881,-5.923255,2.640805,-4.632780,-0.030910,0.012790,0.002531
26896,-5.942409,2.659958,-4.613626,-0.029444,0.010925,0.004796
26911,-6.054936,2.612074,-4.637568,-0.028911,0.022916,0.002132
26926,-5.920861,2.616862,-4.690241,-0.031043,0.007994,0.006662
26941,-5.901707,2.624045,-4.728548,-0.022116,0.021717,-0.003864
26956,-5.959168,2.580949,-4.747702,-0.026247,0.009060,0.002665
26971,-5.985504,2.590526,-4.606444,-0.029044,0.020784,0.000133
26986,-5.947197,2.631228,-4.702212,-0.030910,0.010925,0.005596
27001,-5.844246,2.607285,-4.747702,-0.032775,0.015721,0.003864
27016,-6.009446,2.612074,-4.707000,-0.033175,0.016920,0.003331
27031,-5.992687,2.573767,-4.750096,-0.032242,0.013856,0.006129
27046,-5.954380,2.657564,-4.702212,-0.028511,0.017453,0.000799
27061,-5.781997,2.667141,-4.649539,-0.031043,0.013057,0.005862
27076,-5.961562,2.540248,-4.742914,-0.029844,0.016920,0.002798
27091,-6.054936,2.504335,-4.683058,-0.030243,0.009859,0.000933
27106,-5.916072,2.638410,-4.769250,-0.032908,0.015588,0.005995
27121,-5.949591,2.600103,-4.654328,-0.036239,0.011058,0.010126
27136,-5.935226,2.650381,-4.752491,-0.035440,0.018386,0.008260
27151,-6.064513,2.636016,-4.699818,-0.025314,0.018652,0.000266
27166,-5.901707,2.662352,-4.704606,-0.031842,0.006928,0.004397
27181,-5.846641,2.580949,-4.666299,-0.028378,0.019851,0.003331
27196,-5.930438,2.494758,-4.786009,-0.034507,0.012124,0.006262
27211,-5.990293,2.516306,-4.699818,-0.038904,0.014922,0.008394
27226,-5.949591,2.645593,-4.721365,-0.035306,0.013057,0.005995
27241,-5.834670,2.619257,-4.649539,-0.032109,0.010792,0.005862
27256,-5.959168,2.631228,-4.618415,-0.038637,0.015455,0.009326
27271,-6.052542,2.659958,-4.747702,-0.037971,0.019319,0.006928
27286,-5.880159,2.743755,-4.639963,-0.029577,0.013989,0.001732
27301,-5.884948,2.652776,-4.671087,-0.026913,0.015988,-0.003597
27316,-5.949591,2.559402,-4.704606,-0.025580,0.013856,0.000533
27331,-6.002264,2.499547,-4.651934,-0.031309,0.014655,0.004796
27346,-5.971139,2.571373,-4.745308,-0.037305,0.015855,0.006928
27361,-5.877765,2.626439,-4.623203,-0.035040,0.011724,0.009859
27376,-5.937620,2.600103,-4.702212,-0.037704,0.015855,0.009326
27391,-6.035782,2.590526,-4.735731,-0.028245,0.011325,0.003064
27406,-5.961562,2.643199,-4.733336,-0.026113,0.015855,0.000933
27421,-5.822699,2.609680,-4.714183,-0.025980,0.012923,-0.002265
27436,-6.009446,2.568978,-4.728548,-0.032375,0.011458,0.005596
27451,-6.023811,2.612074,-4.709394,-0.032775,0.019452,0.006662
27466,-5.858612,2.645593,-4.699818,-0.034907,0.015988,0.008394
27481,-5.870583,2.583344,-4.709394,-0.029711,0.016121,0.002132
27496,-5.947197,2.583344,-4.702212,-0.028645,0.012391,0.005063
27511,-5.978322,2.568978,-4.570531,-0.031709,0.014789,0.004530
27526,-5.935226,2.688689,-4.723760,-0.034640,0.011991,0.003997
27541,-5.851429,2.652776,-4.711789,-0.032642,0.014123,0.005462
27556,-5.899313,2.578555,-4.644751,-0.030776,0.015855,0.003198
27571,-6.076484,2.633622,-4.711789,-0.033308,0.017986,0.003331
27586,-5.961562,2.645593,-4.668693,-0.028778,0.022649,0.005063
27601,-5.832275,2.671929,-4.630386,-0.030643,0.021051,0.002265
27616,-5.973533,2.595315,-4.690241,-0.029044,0.018119,0.007061
27631,-5.987898,2.545036,-4.716577,-0.030243,0.012524,0.008394
27646,-5.954380,2.592920,-4.685452,-0.032375,0.014389,0.008527
27661,-5.837064,2.604891,-4.697423,-0.035573,0.012524,0.007061
27676,-5.935226,2.600103,-4.809951,-0.030910,0.015322,0.003864
27691,-6.045359,2.549825,-4.738125,-0.033974,0.016121,0.001332
27706,-5.930438,2.542642,-4.659116,-0.036905,0.014522,0.008394
27721,-5.851429,2.657564,-4.644751,-0.035306,0.013323,0.010658
27736,-5.916072,2.595315,-4.644751,-0.031709,0.012124,0.004263
27751,-5.997475,2.631228,-4.639963,-0.028245,0.013323,0.002798
27766,-5.908890,2.566584,-4.654328,-0.028645,0.017453,0.000400
27781,-5.868188,2.667141,-4.747702,-0.028778,0.015721,0.001732
27796,-5.992687,2.530671,-4.695029,-0.033974,0.011458,0.007461
27811,-5.995081,2.561796,-4.675876,-0.029844,0.015988,0.003864
27826,-5.892130,2.557007,-4.632780,-0.033708,0.010392,0.004930
27841,-5.870583,2.659958,-4.608838,-0.031709,0.011991,0.002798
27856,-5.930438,2.592920,-4.699818,-0.031709,0.009060,0.005729
27871,-6.057330,2.588132,-4.659116,-0.035706,0.017187,0.005462
27886,-5.959168,2.597709,-4.695029,-0.032508,0.013190,0.003064
27901,-5.801151,2.659958,-4.771644,-0.029577,0.017587,0.002265
27916,-5.985504,2.559402,-4.673481,-0.034507,0.015588,0.006129
27931,-5.990293,2.600103,-4.742914,-0.035306,0.013323,0.005862
27946,-5.930438,2.595315,-4.639963,-0.032109,0.016920,0.004263
27961,-5.880159,2.621651,-4.695029,-0.028112,0.016521,0.002398
27976,-5.995081,2.590526,-4.678270,-0.032642,0.018253,0.001865
27991,-6.009446,2.504335,-4.718971,-0.033841,0.018386,0.005995
28006,-5.990293,2.650381,-4.630386,-0.033574,0.017453,0.009992
28021,-5.846641,2.628834,-4.599261,-0.035972,0.011058,0.012257
28036,-5.966351,2.597709,-4.793192,-0.033441,0.015455,0.006662
28051,-6.040571,2.530671,-4.673481,-0.025314,0.012391,0.002398
28066,-5.880159,2.545036,-4.671087,-0.028378,0.015322,0.004130
28081,-5.880159,2.624045,-4.776433,-0.031576,0.009726,0.007194
28096,-5.940014,2.607285,-4.675876,-0.034107,0.014789,0.008926
28111,-6.023811,2.578555,-4.721365,-0.031176,0.019052,0.003064
28126,-5.916072,2.679112,-4.649539,-0.030243,0.016654,0.003064
28141,-5.861006,2.597709,-4.754885,-0.026913,0.016387,0.001332
28156,-5.951985,2.566584,-4.685452,-0.029044,0.013456,-0.002132
28171,-6.057330,2.525883,-4.723760,-0.030377,0.016254,0.002665
28186,-5.877765,2.607285,-4.692635,-0.031176,0.011591,0.006662
28201,-5.935226,2.645593,-4.659116,-0.035573,0.014655,0.005729
28216,-5.956774,2.588132,-4.673481,-0.032908,0.010792,0.008926
28231,-6.066907,2.583344,-4.668693,-0.030643,0.018386,0.005063
28246,-5.944803,2.645593,-4.721365,-0.028911,0.015588,0.001332
28261,-5.872977,2.619257,-4.759673,-0.031043,0.015988,0.007328
28276,-5.901707,2.525883,-4.680664,-0.034640,0.010525,0.003331
28291,-6.054936,2.552219,-4.671087,-0.035440,0.008394,0.007328
28306,-5.973533,2.657564,-4.644751,-0.033574,0.009060,0.003997
28321,-5.870583,2.664747,-4.635174,-0.033041,0.016521,0.004263
28336,-5.928043,2.607285,-4.702212,-0.029711,0.011591,0.004397
28351,-6.002264,2.549825,-4.754885,-0.029178,0.014123,0.003730
28366,-5.942409,2.624045,-4.651934,-0.029577,0.016787,0.002132
28381,-5.863400,2.631228,-4.630386,-0.031043,0.014389,0.001599
28396,-5.932832,2.537854,-4.707000,-0.031443,0.015988,0.002398
28411,-6.052542,2.578555,-4.647145,-0.031043,0.010525,0.002798
28426,-5.940014,2.609680,-4.764462,-0.031975,0.016654,0.002931
28441,-5.899313,2.686294,-4.695029,-0.033308,0.012790,0.005329
28456,-5.892130,2.578555,-4.728548,-0.033041,0.012657,0.007461
28471,-6.071695,2.640805,-4.695029,-0.028378,0.016387,0.002132
28486,-5.894525,2.607285,-4.697423,-0.027312,0.013323,-0.001199
28501,-5.916072,2.600103,-4.750096,-0.028911,0.012790,0.001332
28516,-5.980716,2.511518,-4.776433,-0.031842,0.015455,0.000533
28531,-6.035782,2.588132,-4.711789,-0.034374,0.014256,0.007328
28546,-5.999869,2.628834,-4.668693,-0.032908,0.014922,0.005196
28561,-5.846641,2.659958,-4.644751,-0.031975,0.016920,0.002931
28576,-5.928043,2.640805,-4.680664,-0.030110,0.017320,-0.003064
28591,-6.009446,2.576161,-4.728548,-0.030510,0.016787,-0.000799
28606,-6.019023,2.628834,-4.637568,-0.031176,0.012790,0.001998
28621,-5.904101,2.643199,-4.637568,-0.033574,0.012257,0.008527
28636,-5.954380,2.628834,-4.632780,-0.032775,0.011458,0.009726
28651,-5.973533,2.576161,-4.695029,-0.030110,0.009859,0.007994
28666,-5.935226,2.679112,-4.606444,-0.026646,0.017720,0.002931
28681,-5.928043,2.604891,-4.716577,-0.025181,0.016521,-0.001066
