Timestamp,aX,aY,aZ,gX,gY,gZ
15:38:03.310,0.143700004,0.237499997,9.741399765,-0.286799997,1.242200017,-0.098300003
15:38:03.339,0.117899999,0.150700003,9.955699921,-1.210500002,-1.06309998,0.375
15:38:03.442,0.133499995,-0.0049,9.7354002,1.575799942,-3.238699913,0.756699979
15:38:03.496,0.186800003,0.108199999,9.709699631,-1.164700031,-0.101300001,-0.0449
15:38:03.514,0.193299994,0.132799998,9.786899567,-0.401300013,-1.162400007,-0.831099987
15:38:03.530,0.185000002,0.286599994,9.640199661,-0.760100007,-1.101300001,-0.647899985
15:38:03.545,0.2095,0.217800006,9.675499916,-3.134200096,-0.200499997,0.466600001
15:38:03.598,0.203500003,0.125,9.766500473,-3.515799999,0.471199989,1.100200057
15:38:03.614,0.160999998,0.062799998,9.802399635,2.59100008,-0.406699985,0.0009
15:38:03.629,0.156800002,0.255499989,9.776100159,2.35439992,-2.170000076,0.390300006
15:38:03.654,0.210700005,0.314099997,9.660599709,1.606299996,-2.666199923,0.89410001
15:38:03.704,0.354400009,0.228,9.653400421,-0.790600002,-2.398999929,2.168900013
15:38:03.721,0.107199997,0.112400003,10.07839966,-0.309700012,-3.887599945,4.779600143
15:38:03.737,0.192699999,0.243499994,10.10289955,-1.309700012,-5.353199959,4.817699909
15:38:03.829,0.110699996,0.45539999,10.1257,-2.256299973,-6.566999912,5.588699818
15:38:03.844,0.055100001,0.385399997,9.58880043,-24.30970001,-2.589900017,14.97799969
15:38:03.858,0.009,0.166899994,9.923299789,-14.96619987,-1.91050005,16.42079926
15:38:03.905,-0.067599997,0.413500011,10.03289986,-7.714300156,-3.414299965,17.17650032
15:38:03.921,-0.058600001,0.867799997,11.08030033,17.21699905,-0.215800002,16.49710083
15:38:03.938,0.094599999,1.019199967,11.31200027,14.85820007,-4.322700024,16.72610092
15:38:03.957,0.265199989,1.017400026,11.46280003,5.636799812,-18.23870087,21.93989944
15:38:04.007,0.164000005,0.717599988,11.11629963,-7.164700031,-39.54410172,28.49710083
15:38:04.024,0.828400016,0.530799985,10.79539967,-11.59980011,-52.39899826,31.39030075
15:38:04.054,-1.634600043,-0.983500004,-0.137700006,-2.1723001,-6.315100193,-0.357800007
15:38:04.109,1.793300033,-0.574100018,9.041700363,2.713200092,-37.54410172,28.19179916
15:38:04.131,1.368299961,-0.620800018,7.93200016,44.27809906,-7.231100082,29.64220047
15:38:04.158,1.6329,-1.935799956,7.57460022,96.42310333,37.13529968,-2.701299906
15:38:04.212,1.299499989,-0.388599992,7.438199997,155.5910034,55.54750061,-17.27389908
15:38:04.229,0.860700011,3.072900057,8.856100082,64.88880157,54.01319885,3.863500118
15:38:04.253,0.488400012,2.966300011,9.050100327,-46.50059891,53.32619858,9.138400078
15:38:04.318,-0.28670001,-0.498699993,8.683699608,-197.4013062,11.31849957,13.3902998
15:38:04.340,0.948099971,-4.045700073,8.947699547,-171.4700012,-27.31509972,-10.61740017
15:38:04.357,1.064800024,-5.108099937,9.484600067,-93.12650299,-1.01730001,-30.73950005
15:38:04.420,0.478899986,-4.063700199,9.566599846,149.9651031,42.73080063,-71.23570251
15:38:04.440,-0.072400004,2.978300095,10.24120045,97.39260101,4.60860014,-74.35019684
15:38:04.459,0.243599996,1.194599986,10.51710033,11.13300037,-2.246400118,-76.25099945
15:38:04.519,-1.257500052,-0.029999999,9.845499992,62.8506012,26.76889992,-91.70140076
15:38:04.536,-0.0515,7.202300072,10.07240009,30.6215992,-91.04789734,-34.77000046
15:38:04.550,1.21389997,7.292600155,10.32919979,-153.3096924,-53.15480042,-9.922699928
15:38:04.625,1.253999949,-1.61500001,9.464300156,-252.3096924,6.349100113,-14.72420025
15:38:04.644,-0.305200011,1.59679997,9.961600304,172.2017059,-20.4829998,-36.03720093
15:38:04.659,1.094799995,5.147399902,10.85289955,110.7972031,-34.68909836,-24.99139977
15:38:04.728,0.669200003,4.690700054,10.43330002,-47.75249863,-18.23110008,-13.43420029
15:38:04.745,0.858900011,-4.152800083,8.151599884,110.8124008,25.3871994,-27.29680061
15:38:04.760,0.180800006,0.977299988,8.49339962,234.5529022,-12.07839966,1.756700039
15:38:04.782,0.542900026,5.339000225,9.182299614,197.5451965,-17.52120018,20.4741993
15:38:04.844,0.410600007,-0.795599997,8.503000259,-61.36320114,36.53229904,1.832999945
15:38:04.858,-0.257999986,-0.686600029,7.908599854,75.29329681,47.14300156,-2.082999945
15:38:04.883,-0.397399992,3.588799953,8.412599564,144.6598053,-8.58220005,34.09249878
15:38:04.927,0.623700023,8.018699646,10.31299973,-30.75250053,6.188799858,37.48189926
15:38:04.949,0.700299978,-2.074100018,9.888600349,-220.1952057,20.34140015,18.68799973
15:38:04.981,0.536300004,-4.924399853,9.098500252,-13.40130043,98.02850342,-13.52579975
15:38:05.033,-1.116299987,0.064000003,8.416199684,120.5451965,8.402500153,28.0848999
15:38:05.050,0.461499989,2.584399939,10.82299995,-23.50060081,-25.71199989,20.42079926
15:38:05.078,-0.128700003,-0.769200027,9.62349987,-27.50060081,32.21170044,-5.28910017
15:38:05.131,-0.809199989,0.974300027,7.883500099,125.2093964,37.11240005,-6.174600124
15:38:05.147,0.216700003,5.840000153,9.986800194,42.58340073,-34.9333992,28.40550041
15:38:05.182,0.1479,0.822300017,10.38300037,-141.3860931,19.01320076,12.6498003
15:38:05.242,-0.488999993,-3.165199995,9.983200073,-55.11130142,57.45589828,-11.19750023
15:38:05.257,-1.112699986,4.457900047,9.841300011,95.88110352,-54.92570114,18.90169907
15:38:05.275,-0.054499999,7.303999901,11.15460014,-42.47769928,-75.19290161,36.375
15:38:05.340,0.0096,1.004899979,10.21000004,-236.0807037,-6.933400154,18.32920074
15:38:05.361,-0.882799983,-2.267999887,7.395699978,114.4993973,13.54749966,-11.41889954
15:38:05.375,-0.087399997,1.29460001,8.216899872,185.491806,-65.00209808,16.2147007
15:38:05.439,0.792500019,4.235300064,10.86429977,36.99560165,-35.25400162,37.64220047
15:38:05.458,0.265199989,-1.265400052,10.0472002,-59.49290085,48.61619949,-16.03720093
15:38:05.477,-1.118100047,-0.915300012,8.386899948,97.5605011,61.20399857,-28.21279907
15:38:05.546,-0.5273,4.691299915,8.967499733,107.9346008,-50.2234993,16.52770042
15:38:05.563,-0.0197,0.041200001,10.3441,-173.1876068,11.82999992,1.748999953
15:38:05.575,-0.248400003,-2.457099915,10.69130039,-80.62270355,47.34140015,-25.71660042
15:38:05.645,-1.468799949,-1.091799974,8.7166996,145.7819061,27.57040024,-14.15939999
15:38:05.675,1.284500003,6.537899971,10.69909954,-87.7677002,-74.42189789,40.19940186
15:38:05.696,1.212700009,0.896499991,9.463100433,-183.2792053,-12.55169964,27.59639931
15:38:05.748,1.283300042,-3.247200012,9.217100143,-111.1800003,26.98270035,-2.05250001
15:38:05.762,-0.763700008,0.753499985,7.268199921,201.8963928,12.43299961,-1.602100015
15:38:05.775,-0.037700001,4.936200142,8.88010025,131.9497986,-47.94100189,25.51239967
15:38:05.807,0.804499984,4.213699818,10.15680027,-124.1800003,-10.4218998,5.581099987
15:38:05.866,0.1096,-2.621700048,8.98900032,45.05670166,110.891098,-54.98379898
15:38:05.893,-1.688500047,2.010400057,7.46269989,150.789505,55.88339996,-16.09070015
15:38:05.909,-0.252600014,7.040699959,9.950300217,80.49939728,-67.16239929,17.14599991
15:38:05.971,0.1479,-0.35620001,9.402000427,-212.6455994,27.24220085,-1.228099942
15:38:05.986,-0.446500003,-3.740400076,8.996800423,16.84289932,57.98270035,-30.09070015
15:38:06.002,-0.959500015,-2.001600027,8.206100464,94.38490295,43.50939941,-23.05249977
15:38:06.058,-0.1646,6.022500038,9.504400253,116.5833969,-62.67380142,24.8253994
15:38:06.073,0.564999998,4.85710001,10.01729965,-155.7525024,-13.86470032,25.68029976
15:38:06.102,-0.187299997,-2.883899927,9.432499886,-160.1417999,54.46360016,-13.26620007
15:38:06.162,-0.888199985,-2.030999899,9.782699585,143.5758057,25.62389946,-31.83880043
15:38:06.183,-0.141200006,5.753200054,10.53689957,57.69029999,-58.2234993,20.51239967
15:38:06.205,0.217899993,4.465099812,10.46560001,-102.0044022,-22.74250031,25.00860023
15:38:06.263,-0.360900015,-1.577900052,9.638999939,-93.56159973,47.46360016,-11.74709988
15:38:06.279,-1.989599943,2.385699987,7.004199982,247.9575043,-6.460100174,-3.647900105
15:38:06.299,-0.61589998,7.314799786,8.110899925,206.3773041,-112.9028015,23.64220047
15:38:06.363,0.648199975,8.026499748,10.15499973,-134.6226959,-81.84940338,35.90169907
15:38:06.380,-0.0066,-2.430799961,8.701700211,-49.42419815,70.95210266,-26.05249977
15:38:06.399,-0.599099994,-0.290399998,7.715899944,109.8964005,76.85289764,-30.22039986
15:38:06.465,-1.248600006,6.323599815,8.144499779,111.4917984,-36.05550003,11.19180012
15:38:06.483,1.133700013,1.110800028,9.766500473,-206.0883942,-8.017299652,27.76429939
15:38:06.498,0.527899981,-3.140100002,9.497799873,-105.2105026,51.00559998,1.871199965
15:38:06.568,0.090999998,-2.455899954,8.213899612,155.1636047,74.83760071,-23.31200027
15:38:06.588,-0.586600006,7.159800053,10.09689999,14.4460001,-31.23110008,21.8253994
15:38:06.608,-0.037700001,4.589000225,10.37409973,-177.9891052,-19.04019928,15.83300018
15:38:06.671,-0.103500001,-2.543900013,9.633600235,-141.3173981,42.71549988,-16.64789963
15:38:06.692,-1.995599985,5.310200214,8.097800255,197.1407013,-49.0021019,11.53530025
15:38:06.706,-0.407000005,8.227000237,9.416399956,61.86589813,-109.231102,29.70319939
15:38:06.772,0.726700008,6.614500046,9.847299576,-137.2563019,-73.0632019,32.41320038
15:38:06.788,-0.1149,-2.98210001,8.152199745,95.90399933,86.57810211,-33.68610001
15:38:06.805,-0.83920002,-0.805100024,7.692500114,167.6215973,72.12010193,-27.76239967
15:38:06.830,-0.99000001,6.093800068,8.805800438,163.3544006,-49.46770096,3.573499918
15:38:06.893,0.421999991,0.730700016,9.275699615,-209.248703,13.31849957,-0.686100006
15:38:06.922,-0.741599977,-2.756999969,9.020700455,-37.29449844,76.72309875,-32.28150177
15:38:06.974,-1.295799971,0.310600013,8.59869957,185.5910034,37.59329987,-38.9151001
15:38:06.994,-0.276499987,7.677499771,10.16930008,-97.34790039,-50.39139938,10.12310028
15:38:07.010,-0.412400007,2.761600018,9.610300064,-223.8516998,-12.34560013,0.94749999
15:38:07.024,-0.841499984,-2.224900007,9.668399811,-176.6685028,33.24219894,-27.22039986
15:38:07.081,-1.654399991,-2.921000004,8.949500084,80.99559784,40.10480118,-57.5257988
15:38:07.099,-2.157799959,6.586999893,9.695899963,156.4842072,-84.73490143,-20.30439949
15:38:07.127,-0.032299999,6.011199951,9.983200073,-104.5922012,-61.82649994,-3.441800117
15:38:07.182,-0.284299999,-1.041000009,9.570199966,-158.1188965,7.02850008,-33.76240158
15:38:07.204,-1.796800017,-0.907500029,8.553899765,85.30860138,7.280399799,-55.74710083
15:38:07.224,-1.883599997,2.892100096,9.418199539,125.3468018,-42.23870087,-46.625
15:38:07.288,-0.739799976,4.592000008,10.54100037,-135.4624023,-50.70439911,-37.99140167
15:38:07.306,-1.262899995,-3.431600094,10.6541996,-147.7982941,10.89869976,-87.08300018
15:38:07.321,-2.497699976,-2.963500023,10.09329987,13.46889973,14.89869976,-96.99140167
15:38:07.389,-2.039200068,4.235300064,10.63739967,108.8506012,-87.11660004,-82.1364975
15:38:07.405,-0.281300008,3.269799948,9.822199821,-182.4777069,-80.13950348,-82.48760223
15:38:07.423,0.094599999,-2.045900106,9.309800148,-173.8898926,-34.5821991,-107.6097031
15:38:07.492,-1.479599953,-0.551400006,8.549699783,129.3390961,15.53989983,-116.5258026
15:38:07.509,0.199300006,5.421000004,9.688099861,32.77420044,-51.09370041,-72.57160187
15:38:07.523,0.1215,5.097199917,9.753399849,-49.19520187,-50.90280151,-71.89219666
15:38:07.594,0.0066,-0.55430001,8.435299873,-166.2257996,-27.36090088,-103.9608994
15:38:07.609,0.065899998,4.329800129,6.32490015,52.68259811,-21.04019928,-95.75479889
15:38:07.624,0.364499986,5.291699886,7.067100048,26.46890068,-25.46769905,-80.52580261
15:38:07.696,1.149799943,4.560900211,8.79090023,-175.6380005,-6.627999783,-48.87689972
15:38:07.714,-0.0018,-6.28910017,8.651399612,22.30859947,111.9291992,-110.930397
15:38:07.728,-1.514299989,-0.885900021,7.294499874,193.6291962,72.05139923,-86.90750122
15:38:07.795,-2.207999945,5.443699837,8.057100296,247.7666016,-0.299800009,-64.68609619
15:38:07.812,0.885299981,1.467599988,10.12090015,-236.7449036,-0.856999993,-57.69369888
15:38:07.829,0.248400003,-4.213900089,9.220000267,-170.6990051,59.11240005,-90.2661972
15:38:07.851,-0.747600019,-5.864699841,7.907999992,31.01849937,88.04370117,-97.31199646
15:38:07.903,-1.984799981,1.99909997,6.56069994,247.9575043,39.15819931,-47.05250168
15:38:07.926,-1.34070003,7.770899773,11.37779999,-3.370800018,-21.92569923,-18.47999954
15:38:07.948,-0.730199993,3.087800026,9.957500458,-172.0119934,-19.62800026,-39.06779861
15:38:07.999,-0.159199998,-4.008600235,8.406599998,-105.5082016,37.04370117,-81.99140167
15:38:08.018,-2.609699965,1.779999971,7.486000061,167.9497986,28.69260025,-54.60969925
15:38:08.049,-3.471600056,7.493800163,11.12580013,91.36969757,-13.4218998,-27.73189926
15:38:08.104,-2.474999905,4.447100163,10.71459961,-202.7982941,-49.54410172,-33.7242012
15:38:08.124,-0.703299999,-5.618700027,9.182900429,-121.6455994,34.33380127,-85.28150177
15:38:08.147,-3.088500023,-0.723699987,7.463900089,164.1253967,48.24980164,-73.05249786
15:38:08.213,-4.507699966,6.998799801,10.2159996,166.4842072,-3.750200033,-36.35779953
15:38:08.232,-1.736400008,-0.155100003,10.57400036,-207.2180939,-12.40670013,-40.39599991
15:38:08.254,-2.291199923,-4.461100101,10.45899963,-89.95860291,39.44070053,-69.09829712
15:38:08.310,-3.377599955,-1.323500037,7.318500042,236.1253967,66.13529968,-72.04489899
15:38:08.327,-4.606999874,10.20100021,11.66810036,126.6978989,-11.3380003,2.695600033
15:38:08.349,-4.395100117,7.777500153,11.35750008,-115.0502014,-36.29980087,9.313899994
15:38:08.413,-3.45720005,-0.169499993,10.00650024,-153.0731049,-5.681499958,-20.95330048
15:38:08.429,-4.31069994,4.916999817,5.455200195,247.9575043,32.16590118,-10.57919979
15:38:08.444,-4.616600037,10.92350006,8.304300308,189.9880066,17.70779991,23.39789963
15:38:08.512,-4.875199795,9.484499931,11.46220016,-191.0119934,4.143000126,53.18420029
15:38:08.530,-1.413800001,-4.68200016,8.176799774,-252.3096924,-16.06310081,16.28339958
15:38:08.545,-2.670099974,-6.366899967,9.931099892,-58.16469955,12.19639969,2.855900049
15:38:08.639,-4.123400211,1.847000003,8.095399857,208.8276978,-9.544099808,9.130700111
15:38:08.654,-3.069900036,1.082100034,10.74989986,-93.9280014,9.387200356,28.10020065
15:38:08.671,-2.944900036,-2.138700008,10.41829967,-13.79059982,33.12009811,8.916999817
15:38:08.731,-2.980799913,6.695899963,9.003399849,116.9192963,-40.50590134,43.46659851
15:38:08.746,-2.801199913,6.402599812,9.738400459,-43.54639816,-46.62799835,50.81769943
15:38:08.770,-2.471400023,4.28550005,9.329000473,-113.3707962,-42.57460022,46.29869843
15:38:08.824,-2.326499939,-1.430600047,9.09319973,-99.44709778,17.43300056,13.85589981
15:38:08.847,-3.473400116,3.579200029,6.756999969,185.972702,19.89109993,23.89410019
15:38:08.869,-3.515300035,8.640000343,9.302599907,106.1025009,-26.65859985,44.71849823
15:38:08.925,-3.172899961,8.679499626,11.11919975,-116.2409973,-39.73490143,57.16889954
15:38:08.948,-0.872099996,-7.834499836,9.51210022,-223.3708038,-0.612800002,-9.82349968
15:38:08.966,-1.796200037,-4.674799919,8.589799881,154.6903076,25.17350006,-27.27389908
15:38:09.025,-2.522300005,-2.171600103,8.31499958,233.8123932,12.33380032,-20.76239967
15:38:09.046,-2.311000109,5.899799824,10.16930008,-35.80590057,-36.42959976,19.87120056
15:38:09.070,-1.881199956,1.555500031,10.11730003,-105.5158005,-15.50590038,3.894099951
15:38:09.151,-1.78429997,-2.782200098,8.884300232,39.5605011,50.50939941,-26.51049995
15:38:09.165,-2.792200089,8.022899628,10.56799984,-114.9204025,-39.6128006,43.99330139
15:38:09.235,-2.604899883,5.711900234,9.850299835,-207.6990051,-45.69670105,41.53530121
15:38:09.258,-2.512700081,1.018000007,7.544700146,247.9575043,52.66970062,-16.39599991
15:38:09.277,-3.949800014,7.356100082,7.962500095,247.9575043,0.455900013,19.7947998
15:38:09.387,-3.416500092,9.679100037,9.288900375,181.7971954,-28.7730999,37.2757988
15:38:09.434,-0.864899993,-3.137099981,7.382500172,232.6445007,51.11240005,-35.15169907
15:38:09.456,-2.033299923,9.80300045,9.468999863,132.7743073,-2.398999929,42.50479889
15:38:09.470,-3.041800022,8.812999725,9.819199562,-116.7219009,-36.39139938,45.16130066
15:38:09.483,-1.513700008,2.206199884,8.723199844,-247.2333984,-42.74250031,13.85589981
15:38:09.538,-1.351500034,-0.934400022,8.346199989,-230.7220001,-17.62800026,-8.724200249
15:38:09.560,-2.151799917,0.0669,6.970699787,229.9116974,62.21170044,-27.19750023
15:38:09.576,-3.176500082,9.632399559,7.991799831,217.6903076,-9.918100357,33.93220139
15:38:09.590,-2.428299904,11.13000011,9.762299538,120.8200989,-28.27689934,53.00859833
15:38:09.639,-2.589299917,10.6960001,10.49139977,-145.134201,-50.25400162,68.84059906
15:38:09.667,-1.139000058,-2.365600109,7.287899971,-252.3096924,-36.7120018,2.153599977
15:38:09.681,0.0054,-6.773300171,8.185199738,-50.73720169,39.45589828,-45.77769852
15:38:09.742,-1.076200008,-2.719899893,7.646500111,174.7743073,37.24219894,-30.24329948
15:38:09.757,-2.629400015,7.521900177,10.79179955,-16.12649918,-7.39139986,28.72610092
15:38:09.772,-2.303800106,5.91779995,10.37170029,-95.248703,-15.49059963,14.44369984
15:38:09.790,-1.457499981,0.833100021,9.616299629,-136.1723022,-0.834100008,-18.44179916
15:38:09.843,-0.339399993,-1.971099973,9.293700218,-43.31740189,34.44070053,-38.51810074
15:38:09.864,-2.269099951,5.742400169,8.288100243,187.5910034,-3.834100008,7.695600033
15:38:09.879,-1.991400003,8.757300377,9.701899529,56.51470184,-19.58989906,40.93220139
15:38:09.901,-2.461199999,8.381400108,10.47159958,-139.2180939,-24.56699944,51.3445015
15:38:09.963,-0.457899988,-5.24819994,9.313400269,-19.97380066,24.07430077,-34.57920074
15:38:09.978,-0.574000001,-3.542900085,8.060700417,203.9497986,28.01320076,-38.76240158
15:38:09.993,-1.315000057,0.1065,7.51240015,247.9575043,15.79179955,-26.0753994
15:38:10.048,-2.022500038,6.418200016,8.350399971,247.9575043,-4.38380003,4.542900085
15:38:10.068,-2.393599987,6.086599827,8.939299583,-217.4470978,-30.58989906,41.62689972
15:38:10.085,-1.620900035,-0.452600002,8.312000275,-231.6838074,-16.33029938,-0.823499978
15:38:10.102,-0.963100016,-3.199300051,8.994400024,-87.24099731,16.44829941,-48.37310028
15:38:10.154,-1.122300029,-1.055899978,7.802700043,206.4306946,34.31090164,-41.49520111
15:38:10.170,-1.862100005,10.15069962,9.204500198,169.6979065,-8.612799644,27.05439949
15:38:10.193,-1.974599957,9.540200233,10.02089977,-52.68379974,-7.589900017,55.88639832
15:38:10.253,-1.622099996,-1.398300052,8.800499916,-202.8287964,-22.00970078,-1.174600005
15:38:10.268,0.098800004,-3.612900019,8.114500046,166.9116974,30.74600029,-60.84640121
15:38:10.300,-1.389799953,2.264800072,6.211100101,247.9575043,29.29560089,-49.22040176
15:38:10.355,-1.876999974,12.45510006,8.224100113,25.13299942,-32.33800125,52.42079926
15:38:10.374,-1.929700017,4.361499786,7.094600201,-252.3096924,-23.46010017,61.93220139
15:38:10.394,-1.492200017,-1.410899997,7.186200142,-252.3096924,-8.872300148,14.57349968
15:38:10.462,-0.687699974,-3.943900108,9.092000008,55.81999969,34.05139923,-40.54100037
15:38:10.479,-1.299399972,6.70909977,10.26930046,165.2169952,17.55520058,9.962800026
15:38:10.494,-1.98119998,6.390600204,10.26449966,23.17880058,11.87580013,18.40550041
15:38:10.559,-1.675899982,2.648499966,9.493000031,-58.33259964,-6.39139986,-4.76240015
15:38:10.576,-1.166599989,0.673900008,6.904300213,201.3773041,18.37199974,-35.13650131
15:38:10.589,-1.703500032,6.368500233,7.019800186,223.9192963,-0.254000008,-14.59449959
15:38:10.664,-1.917099953,10.59189987,9.524700165,-33.06549835,-6.788300037,31.2451992
15:38:10.682,-1.040300012,-3.129300117,8.835800171,-246.9203949,3.410099983,-9.556300163
15:38:10.696,-1.077999949,-3.94630003,9.013500214,-45.94329834,28.10479927,-24.59449959
15:38:10.723,-1.369500041,-0.762000024,8.673600197,133.9575043,16.05139923,-23.64789963
15:38:10.772,-1.74059999,6.361899853,9.666600227,-18.57690048,-9.116600037,24.16130066
15:38:10.792,-1.771100044,4.60160017,9.312199593,-63.85929871,-6.742499828,20.1154995
15:38:10.821,-1.18809998,-1.032600045,9.192500114,-6.424200058,26.39489937,-15.82349968
15:38:10.868,-1.249799967,-0.546000004,7.941500187,215.4078064,57.46360016,-32.89220047
15:38:10.892,-2.436700106,9.690999985,8.58619976,141.6215973,-27.68149948,11.56579971
15:38:10.923,-1.820199966,6.047100067,8.272500038,-245.2409973,-41.36090088,27.52770042
15:38:10.970,-1.516100049,-0.938600004,7.890699863,-197.363205,6.745999813,-8.609700203
15:38:10.986,-1.447299957,-0.021,8.204299927,138.8123932,45.49409866,-28.92270088
15:38:11.017,-2.595299959,7.74630022,8.450300217,149.3925934,23.15060043,0.871200025
15:38:11.075,-2.409699917,8.693900108,9.963999748,-106.492897,-15.75020027,30.38260078
15:38:11.092,-1.887799978,-0.241899997,9.0333004,-252.3096924,-18.75779915,11.74139977
15:38:11.125,-0.924700022,-4.570600033,9.570799828,-12.25629997,14.37959957,-23.54100037
15:38:11.174,-1.530500054,0.181899995,7.633900166,247.9575043,21.30330086,-24.42650032
15:38:11.192,-1.975800037,10.67450047,8.78429985,126.0567017,-14.39140034,26.20709991
15:38:11.216,-2.424700022,7.83370018,8.401800156,-237.0578003,-44.30739975,41.10779953
15:38:11.278,-1.542999983,-1.216300011,7.724899769,-252.3096924,-21.94099998,7.855899811
15:38:11.296,-0.869099975,-2.927599907,8.379099846,231.2781067,53.20399857,-31.08300018
15:38:11.315,-2.5072999,4.31069994,7.946899891,247.9575043,43.53229904,-17.64789963
15:38:11.384,-2.759900093,12.0170002,9.94849968,109.2170029,-23.29220009,27.58869934
15:38:11.406,-1.364099979,0.0634,7.510000229,-252.3096924,-38.65090179,20.2758007
15:38:11.421,-0.427300006,-4.995600224,8.083999634,-172.7906036,10.99030018,-7.67840004
15:38:11.481,0.080200002,-4.933300018,7.788300037,219.2474976,64.04370117,-32.18230057
15:38:11.498,-3.021500111,11.98589993,9.043499947,189.2474976,7.646800041,25.61930084
15:38:11.512,-2.856300116,13.10879993,9.890999794,44.01089859,-26.99440002,33.31389999
15:38:11.585,-1.458099961,2.310899973,7.606999874,-252.3096924,-53.08599854,23.87120056
15:38:11.601,-0.448300004,-4.903399944,7.809899807,78.46890259,37.29560089,-40.63259888
15:38:11.616,-1.175500035,0.2315,7.168799877,247.9575043,41.97499847,-32.28910065
15:38:11.691,-2.74729991,9.346300125,9.097299576,218.2474976,20.50939941,11.50479984
15:38:11.709,-1.895599961,0.226199999,8.954299927,-239.729599,-15.17000008,-4.999100208
15:38:11.724,-1.502300024,-2.254199982,9.041700363,-184.210495,1.120100021,-24.31200027
15:38:11.746,-0.81099999,-3.5704,8.663999557,104.4765015,39.44829941,-36.9455986
15:38:11.828,-2.260699987,10.92169952,8.301300049,160.6674042,-26.33799934,31.6651001
15:38:11.843,-2.549799919,7.353099823,8.475399971,-252.3096924,-53.80360031,50.24520111
15:38:11.896,-1.298200011,0.408100009,7.483099937,-252.3096924,-31.98679924,21.30629921
15:38:11.912,-0.365099996,-5.662399769,8.805800438,206.4306946,63.37200165,-32.74710083
15:38:11.928,-1.638800025,0.995299995,7.37830019,247.9575043,61.47880173,-24.53339958
15:38:11.945,-2.190700054,5.292300224,8.656200409,247.9575043,46.88339996,-13.72420025
15:38:12.001,-2.562400103,12.80770016,9.804800034,7.308599949,-42.52119827,38.54290009
15:38:12.021,-0.858299971,0.329100013,7.113699913,-252.3096924,-36.28450012,6.649799824
15:38:12.043,-0.184900001,-3.550100088,7.37650013,-153.3020935,20.11240005,-12.31200027
15:38:12.105,-1.003200054,0.218999997,7.182600021,247.9575043,68.44069672,-28.1746006
15:38:12.155,-2.615099907,12.28639984,9.458900452,-34.53110123,-15.50590038,27.30629921
15:38:12.219,-0.852900028,-4.574800014,8.851900101,95.83529663,47.78419876,-31.1364994
15:38:12.235,-2.648000002,3.372100115,6.150100231,247.9575043,56.79949951,-27.34259987
15:38:12.251,-2.74909997,8.340100288,6.500199795,247.9575043,37.39490128,-11.70129967
15:38:12.301,-3.327899933,13.61750031,8.133099556,180.4613037,-6.841800213,20.30629921
15:38:12.318,-1.496399999,4.223899841,6.466700077,-252.3096924,-42.76539993,26.54290009
15:38:12.333,-1.45389998,0.834900022,6.486499786,-252.3096924,-26.0326004,15.06960011
15:38:12.348,-0.954699993,-5.346300125,8.204299927,-252.3096924,-1.498299956,3.199399948
15:38:12.405,-0.76730001,-7.47179985,9.313400269,-22.88220024,29.43300056,-12.25860023
15:38:12.424,-3.367399931,7.183100224,7.922999859,247.9575043,37.95980072,-4.709000111
15:38:12.440,-2.991499901,12.68859959,9.578000069,203.6139069,-12.66619968,17.36739922
15:38:12.507,-2.132600069,8.524499893,8.635899544,-243.4853058,-92.75019836,30.34449959
15:38:12.525,-0.241799995,-4.559800148,8.440099716,-48.70669937,23.33379936,-10.41889954
15:38:12.539,-0.619499981,-2.52060008,7.248400211,195.0643005,46.05899811,-18.625
15:38:12.610,-1.827999949,6.989799976,8.093000412,247.9575043,31.73080063,-1.754799962
15:38:12.627,-1.917700052,4.103000164,8.808199883,-252.3096924,-21.94099998,19.32920074
15:38:12.643,-1.683699965,0.906700015,8.63049984,-252.3096924,-12.61279964,5.268099785
15:38:12.713,-0.800199986,-3.920599937,9.09430027,-18.45479965,28.59329987,-20.81579971
15:38:12.736,-3.570899963,11.33409977,6.36259985,247.9575043,23.29560089,4.733799934
15:38:12.751,-3.448199987,15.34200001,7.849400043,36.77420044,-44.3227005,23.9246006
15:38:12.768,-2.745500088,11.67580032,8.03069973,-252.3096924,-93.23110199,34.29869843
15:38:12.829,-0.824199975,-3.093400002,7.851200104,-252.3096924,-18.49060059,12.29100037
15:38:12.854,-0.507000029,-5.567200184,8.994400024,70.89640045,31.21170044,-9.014300346
15:38:12.920,-0.977999985,-0.520200014,8.325799942,247.9575043,53.50170135,-16.29680061
15:38:12.943,-2.120599985,7.315999985,9.378700256,-232.0348969,-43.45249939,19.49710083
15:38:12.956,-1.38380003,0.657100022,8.639499664,-252.3096924,-30.97920036,9.443699837
15:38:12.970,-0.162200004,-2.936000109,9.524100304,-243.6761017,-10.10890007,-2.380700111
15:38:13.021,-0.565599978,-5.413400173,9.101499557,82.49939728,43.04370117,-17.4951992
15:38:13.037,-2.185899973,5.835199833,6.989799976,247.9575043,45.30329895,-8.136500359
15:38:13.127,-2.637200117,12.18999958,9.720999718,-40.41659927,-34.21580124,21.34449959
15:38:13.149,-0.992399991,-3.384299994,8.251600266,22.81999969,24.8071003,-19.95330048
15:38:13.163,-1.113899946,-2.770800114,7.718299866,132.8352966,27.04369926,-22.53339958
15:38:13.178,-1.796200037,2.772399902,6.849199772,247.9575043,22.12010002,-18.22809982
15:38:13.238,-2.857500076,11.42800045,9.06799984,-105.3249969,-9.475399971,18.62689972
15:38:13.252,-2.909499884,7.466199875,8.277899742,-252.3096924,-32.52880096,25.9246006
15:38:13.270,-2.063800097,1.979300022,7.775100231,-252.3096924,-27.92569923,8.665100098
15:38:13.326,-0.42019999,-4.204899788,9.827599525,-114.2181015,7.272699833,-27.43420029
15:38:13.345,-1.65199995,1.745900035,7.627299786,247.9575043,22.46360016,-13.64789963
15:38:13.363,-2.821500063,7.83370018,8.027700424,247.9575043,9.211700439,12.20709991
15:38:13.432,-2.816200018,10.9126997,9.141599655,-197.8822937,-41.97919846,34.83300018
15:38:13.450,-0.292100012,-4.945300102,8.577799797,-242.1036072,10.61620045,-9.289099693
15:38:13.465,-0.5255,-6.336900234,8.711299896,5.255199909,36.50939941,-14.27390003
15:38:13.534,-0.746399999,-3.726700068,7.972700119,247.9575043,48.32619858,-12.72420025
15:38:13.553,-2.582700014,11.4406004,10.21899986,105.2628021,5.715499878,18.69560051
15:38:13.570,-2.947799921,8.216199875,9.295499802,-133.065506,-25.36849976,14.00090027
15:38:13.637,-1.902199984,2.469500065,8.432999611,-217.0502014,-27.68149948,-4.266200066
15:38:13.658,-1.221600056,1.725499988,7.525499821,102.3544006,-8.460100174,-8.869299889
15:38:13.675,-2.59649992,6.373899937,8.230600357,101.7514038,6.776599884,15.23760033
15:38:13.692,-2.638400078,9.016500473,10.00529957,-5.500599861,10.99790001,30.00090027
15:38:13.743,-1.635200024,-3.001199961,9.673100471,-209.3249969,-17.54409981,-6.464700222
15:38:13.762,-1.225200057,-4.637700081,9.768899918,-120.3554993,-11.00969982,-20.99139977
15:38:13.790,-0.515900016,-2.279999971,7.806300163,190.5222931,5.211699963,-20.60969925
15:38:13.836,-2.038000107,5.570600033,7.390299797,247.9575043,12.25749969,10.47420025
15:38:13.859,-2.04460001,8.524499893,10.40999985,-53.46239853,-8.559300423,21.01619911
15:38:13.893,-1.3204,0.928300023,8.810600281,-215.027298,-16.56699944,-11.49520016
15:38:13.968,-0.924099982,-2.960500002,8.583800316,-38.72190094,5.158199787,-36.63259888
15:38:13.988,-3.195600033,9.331899643,7.596199989,187.4230957,9.043700218,14.77190018
15:38:14.045,-2.865200043,12.31330013,9.678500175,-23.93569946,-10.28450012,20.97800064
15:38:14.062,-1.14320004,-3.918800116,8.388699532,-252.3096924,-19.90279961,-9.556300163
15:38:14.078,-0.656000018,-6.737400055,9.107500076,-90.248703,7.692599773,-18.96089935
15:38:14.095,-0.512899995,-6.806799889,9.021300316,54.08720016,19.37960052,-21.15940094
15:38:14.144,-1.322199941,0.67930001,7.160399914,247.9575043,47.89110184,-12.02200031
15:38:14.169,-2.654000044,12.67660046,9.647999763,172.9192963,-13.11660004,23.33679962
15:38:14.187,-1.601699948,7.138800144,8.596400261,-252.3096924,-75.08609772,17.00860023
15:38:14.252,-1.088099957,-2.6098001,7.713500023,-240.5921936,-8.093700409,-14.89220047
15:38:14.268,-1.542999983,2.311500072,7.712900162,142.0413971,2.99029994,-0.853999972
15:38:14.288,-1.09829998,5.573599815,10.21899986,135.4459991,-0.48300001,16.90169907
15:38:14.351,-1.619699955,5.405399799,10.48960018,-33.40129852,29.27269936,23.94750023
15:38:14.370,-1.019899964,-2.281800032,9.868900299,43.4612999,33.02080154,-29.22039986
15:38:14.387,-1.215000033,-1.009199977,7.751200199,202.751297,37.5780983,-29.95330048
15:38:14.451,-2.651599884,7.48360014,6.561299801,243.5223999,-14.51350021,0.313899994
15:38:14.467,-2.054199934,8.554400444,8.290499687,-252.3096924,-59.49060059,32.39789963
15:38:14.483,-1.793200016,6.014100075,7.494999886,-252.3096924,-48.39899826,29.76429939
15:38:14.554,-0.535700023,-6.382999897,9.437299728,-213.3096924,5.196400166,-5.586800098
15:38:14.569,-1.7579,1.77699995,8.118700027,247.9575043,31.34140015,-13.6402998
15:38:14.586,-2.334300041,4.805099964,8.390500069,247.9575043,24.28039932,-7.266200066
15:38:14.661,-1.878800035,10.02019978,9.972999573,-69.44709778,-45.83409882,18.00860023
15:38:14.677,-0.259200007,-3.592000008,8.829799652,-18.93569946,26.86050034,-5.976200104
15:38:14.690,-0.278299987,-3.37590003,8.264200211,83.16359711,39.4178009,-11.51049995
15:38:14.716,-1.189299941,2.664099932,7.988200188,247.9575043,31.49410057,-7.449399948
15:38:14.773,-1.684299946,8.428700447,9.539699554,-96.88990021,-8.513500214,19.20709991
15:38:14.791,-1.399999976,3.886899948,8.731599808,-223.8746033,-16.10890007,13.61159992
15:38:14.813,-1.118100047,-1.122400045,8.56400013,-186.9279938,6.852900028,-7.105899811
15:38:14.863,-0.603900015,-2.691800117,8.337800026,165.3314972,57.59329987,-25.64030075
15:38:14.880,-2.982599974,6.680300236,6.857600212,247.9575043,40.31090164,-0.693700016
15:38:14.917,-2.515100002,11.95479965,9.178700447,11.90400028,-31.6128006,17.03149986
15:38:14.962,-1.400599957,3.191999912,8.151000023,-252.3096924,-24.15469933,8.474200249
15:38:14.980,-0.798399985,-4.012800217,8.729200363,-185.4929047,7.310900211,-19.57159996
15:38:15.012,-1.083400011,-2.133899927,8.537099838,125.8048019,15.99790001,-11.625
15:38:15.070,-2.192500114,6.014699936,8.697500229,225.491806,10.31089973,3.779599905
15:38:15.088,-2.26850009,6.914999962,9.644399643,-53.98149872,10.6619997,8.810099602
15:38:15.114,-1.868700027,2.759799957,8.798100471,-124.9204025,8.883399963,-1.411299944
15:38:15.168,-1.519099951,-1.132500052,8.635299683,2.369699955,25.18110085,-16.74710083
15:38:15.187,-3.373399973,8.304800034,6.707300186,204.3390961,14.41779995,7.657400131
15:38:15.210,-2.967600107,11.8781004,9.388199806,44.85820007,-24.27689934,19.31389999
15:38:15.269,-2.306799889,7.764900208,8.786700249,-252.3096924,-57.30739975,27.94750023
15:38:15.284,-0.9648,-3.410599947,8.450300217,-252.3096924,-22.95630074,-9.228099823
15:38:15.309,-0.675100029,-3.281899929,7.979800224,21.8810997,1.822399974,-11.16699982
15:38:15.375,-1.809399962,2.560499907,8.784899712,203.8963928,12.73069954,2.80250001
15:38:15.393,-1.963799953,5.370699883,10.27470016,-10.57689953,7.509399891,5.604000092
15:38:15.411,-1.75909996,1.460399985,9.607299805,-44.81349945,5.807099819,-10.02200031
15:38:15.483,-0.83920002,-1.476099968,8.699899673,95.03379822,21.63909912,-21.7548008
15:38:15.502,-2.49000001,9.579099655,8.644800186,92.8506012,0.700200021,10.87880039
15:38:15.525,-2.607899904,9.164299965,9.321200371,-107.0578003,-16.00209999,10.16889954
15:38:15.581,-2.004499912,5.537700176,8.824399948,-244.5921936,-21.75779915,-2.731899977
15:38:15.598,-1.420300007,-0.302399993,8.103699684,-17.08069992,4.173500061,-9.251000404
15:38:15.614,-1.646000028,0.972599983,8.017000198,33.92689896,4.929200172,-1.426499963
15:38:15.637,-2.066200018,4.103600025,9.370300293,76.52999878,14.38720036,16.87120056
15:38:15.698,-2.128400087,3.138700008,10.55300045,-108.4852982,11.28800011,-0.602100015
15:38:15.713,-1.871700048,-1.522799969,9.621100426,-69.47000122,13.32619953,-18.10589981
15:38:15.740,-1.400599957,-2.779799938,8.526900291,158.3238983,27.05900002,-20.89979935
15:38:15.807,-4.262300014,11.70759964,7.894899845,213.5682068,-7.124199867,23.44370079
15:38:15.823,-3.055000067,11.65909958,9.475600243,-191.9508972,-74.63569641,22.29100037
15:38:15.837,-1.523900032,5.271900177,8.62749958,-252.3096924,-52.82649994,3.90170002
15:38:15.890,-1.074399948,-4.129499912,8.20909977,-218.7066956,4.868199825,-20.56389999
15:38:15.910,-0.638000011,-1.366600037,7.140699863,193.4306946,32.36429977,12.06960011
15:38:15.936,-3.563199997,6.369100094,8.150400162,246.8200989,21.63909912,35.10779953
15:38:15.987,-2.638400078,10.19740009,10.87139988,-3.698999882,-18.78070068,22.88640022
15:38:16.006,-1.516700029,2.847199917,9.637200356,-206.3860931,-16.81119919,-3.441800117
15:38:16.035,-0.764900029,-3.289099932,8.460499763,24.31620026,1.081900001,-27.73950005
15:38:16.090,-1.197100043,1.625,6.835400105,237.9956055,13.08189964,0.359699994
15:38:16.111,-2.514499903,12.09599972,9.423000336,79.14830017,-20.63570023,18.71850014
15:38:16.133,-2.788000107,10.9605999,9.603699684,-192.4241943,-30.24640083,23.55820084
15:38:16.196,-1.559200048,-2.934200048,7.827799797,-252.3096924,3.02850008,-17.4647007
15:38:16.213,-0.711099982,-4.523300171,8.979999542,169.4384003,36.49409866,-22.35020065
15:38:16.231,-0.503400028,-0.556699991,7.57159996,247.9575043,66.6085968,2.397900105
15:38:16.296,-3.040600061,14.52729988,8.198900223,247.9575043,-3.055500031,51.68030167
15:38:16.315,-1.116899967,7.155600071,7.890699863,-252.3096924,-71.55930328,22.7947998
15:38:16.333,-1.10010004,0.253699988,6.588200092,-252.3096924,-9.147100449,-3.457099915
15:38:16.416,-0.933700025,-4.30369997,8.636500359,-44.80590057,18.05139923,-19.35020065
15:38:16.446,-2.730600119,6.446899891,9.360099792,195.8047943,1.295600057,27.28339958
15:38:16.507,-1.965600014,6.048900127,9.376899719,-121.9662018,-26.91810036,3.687999964
15:38:16.548,-0.563199997,-1.531200051,7.743400097,83.46890259,20.2269001,-21.98380089
15:38:16.603,-2.295399904,4.64470005,7.659599781,171.4230957,24.31850052,2.527699947
15:38:16.618,-2.299599886,5.649000168,9.843700409,-200.9891052,-29.04019928,-8.953300476
15:38:16.631,-1.659199953,2.535399914,9.185899734,-224.7601013,-25.82649994,-19.86930084
15:38:16.647,-1.45630002,-1.404899955,9.686900139,-154.3173981,-6.223499775,-37.09069824
15:38:16.709,-1.376099944,-1.801100016,9.6875,-81.78299713,1.646800041,-36.38840103
15:38:16.729,-1.416200042,6.598899841,8.707699776,122.8276978,-23.10129929,21.42079926
15:38:16.743,-1.304200053,6.775499821,9.510899544,2.178800106,-9.078399658,21.45899963
15:38:16.762,-1.458099961,5.913599968,9.452899933,-57.08069992,-0.582199991,17.45899963
15:38:16.824,-1.192899942,-1.367799997,8.820199966,93.5605011,54.41009903,-28.55629921
15:38:16.844,-1.084599972,-0.205400005,8.041500092,247.9575043,71.20400238,-20.80060005
15:38:16.860,-2.898799896,5.800499916,6.003399849,247.9575043,55.77659988,7.489500046
15:38:16.910,-4.034800053,11.81529999,7.115499973,203.1329956,-8.963899612,22.95509911
15:38:16.928,-1.267699957,6.260700226,7.133500099,-252.3096924,-72.48300171,20.03149986
15:38:16.945,-0.958299994,3.465500116,6.720499992,-252.3096924,-48.92570114,10.45129967
15:38:16.963,-1.265900016,-2.734299898,6.642700195,-252.3096924,-15.9715004,-10.76239967
15:38:17.012,-0.772099972,-5.191299915,9.097299576,-57.59980011,8.463600159,-24.93040085
15:38:17.032,-2.458800077,3.017199993,8.661000252,227.0796051,39.18880081,8.062000275
15:38:17.060,-2.232599974,7.15500021,10.27950001,143.9268951,9.730699539,9.718500137
15:38:17.113,-1.686699986,3.468499899,9.815600395,16.24749947,5.173500061,1.161299944
15:38:17.131,-0.840900004,-0.547200024,8.604100227,140.6826935,31.73080063,-21.35020065
15:38:17.157,-2.368400097,5.388100147,6.511600018,200.9803925,20.3871994,1.649799943
15:38:17.216,-3.081899881,12.35099983,8.878899574,-1.56159997,-50.5821991,16.00860023
15:38:17.235,-1.578400016,5.161200047,7.562699795,-252.3096924,-50.41429901,22.71089935
15:38:17.256,-0.360300004,-5.110499859,8.56760025,-252.3096924,10.12769985,-4.502900124
15:38:17.323,-0.662599981,-4.361100197,9.231399536,76.58339691,48.12770081,-6.28910017
15:38:17.345,-2.692300081,5.595200062,8.777099609,247.9575043,21.62389946,18.68799973
15:38:17.359,-2.243400097,8.223400116,9.914999962,135.4230957,-16.2234993,12.47420025
15:38:17.423,-1.765100002,5.100800037,9.232600212,-82.25630188,-27.51350021,-1.510499954
15:38:17.440,-1.629199982,1.0977,7.723700047,91.43070221,32.17350006,-19.58679962
15:38:17.456,-2.025500059,3.673199892,7.061699867,166.0337982,29.47120094,-0.594500005
15:38:17.527,-3.204600096,9.456399918,8.663999557,87.88880157,-2.635699987,19.57349968
15:38:17.542,-2.114700079,4.906199932,8.83520031,-252.3096924,-24.79599953,15.38259983
15:38:17.557,-1.720199943,-1.33130002,8.470100403,-252.3096924,-6.872300148,-1.541000009
15:38:17.628,-1.026499987,-3.73210001,9.211099625,-19.55400085,-1.414299965,-18.57159996
15:38:17.646,-2.114099979,6.144599915,8.180999756,172.636795,-18.68149948,23.1154995
15:38:17.663,-1.896800041,7.514699936,8.795100212,118.2093964,-27.45249939,22.72610092
15:38:17.684,-1.557399988,5.78249979,9.1541996,-91.93569946,-17.31509972,14.77190018
15:38:17.737,-1.243199944,-1.19599998,8.60890007,55.52230072,56.86819839,-15.16699982
15:38:17.769,-0.63380003,-1.536000013,8.725600243,135.3314972,64.06659698,-14.45709991
15:38:17.832,-3.098700047,7.306399822,6.906000137,229.087204,27.18880081,25.2451992
15:38:17.850,-1.452700019,5.002600193,8.690299988,-252.3096924,-48.56700134,11.18420029
15:38:17.864,-1.405400038,0.883400023,8.103699684,-252.3096924,-18.65859985,-2.976200104
15:38:17.883,-1.397600055,-0.569899976,8.225899696,-225.9203949,-10.4677,-9.563899994
15:38:17.936,-1.090499997,-0.371199995,8.091199875,57.35440063,1.60860002,-9.495200157
15:38:17.957,-1.781299949,4.380099773,8.224699974,138.3390961,4.257500172,4.863500118
15:38:17.982,-1.641199946,7.001200199,9.627099991,25.76659966,6.440700054,11.55819988
15:38:18.036,-1.883000016,1.77760005,9.557600021,-104.546402,15.20400047,-3.716599941
15:38:18.055,-1.297600031,-1.712499976,9.160200119,69.31620026,23.58569908,-21.4647007
15:38:18.083,-1.83039999,3.462500095,6.862400055,247.9575043,18.60860062,3.100199938
15:38:18.138,-2.704799891,10.66489983,7.845799923,168.3925934,-33.63570023,25.25289917
15:38:18.155,-1.372499943,7.893599987,8.008000374,-252.3096924,-57.0326004,27.23760033
15:38:18.178,-0.755400002,-0.680599988,7.564499855,-252.3096924,3.165899992,-1.853999972
15:38:18.241,-0.402799994,-2.947400093,8.658599854,7.125400066,46.82239914,-13.22809982
15:38:18.259,-2.609699965,6.370299816,7.681799889,247.9575043,27.82239914,29.04680061
15:38:18.282,-2.323600054,10.51819992,9.476799965,114.0185013,-22.47540092,36.57350159
15:38:18.344,-1.887799978,8.159899712,9.050100327,-211.8058929,-52.6432991,22.58110046
15:38:18.363,-0.96420002,-2.205199957,8.55150032,-51.37080002,17.65439987,-26.3348999
15:38:18.376,-0.313600004,-2.14470005,8.483799934,152.9346008,34.77659988,-11.15939999
15:38:18.454,-2.171499968,4.929599762,7.031099796,247.9575043,53.81470108,25.04669952
15:38:18.479,-1.280300021,7.76609993,7.838600159,-245.0731049,-71.19290161,30.69560051
15:38:18.493,-0.594299972,-1.491700053,7.28550005,-251.9815063,-3.574599981,-7.632599831
15:38:18.550,-0.297500014,-2.18659997,8.001999855,-170.8746033,11.97500038,-17.2052002
15:38:18.567,-1.912999988,5.389900208,7.7020998,236.1329956,17.09720039,7.642199993
15:38:18.581,-2.413899899,7.823599815,8.240799904,203.904007,8.27270031,13.12310028
15:38:18.652,-1.98300004,10.22669983,9.084799767,-53.14179993,-27.38380051,12.64220047
15:38:18.676,-0.781099975,-0.469399989,8.352100372,-69.61509705,4.944499969,-14.9762001
15:38:18.692,-0.280699998,-0.824899971,7.752999783,80.04910278,21.3871994,-17.5258007
15:38:18.751,-1.264099956,3.2493999,6.027400017,172.3697052,21.87579918,-5.716599941
15:38:18.766,-1.825600028,7.862500191,9.347499847,-168.9586029,5.562799931,19.00090027
15:38:18.780,-2.147000074,6.241600037,8.947099686,-231.3173981,5.860499859,14.04669952
15:38:18.807,-1.376099944,-0.989499986,9.269100189,-213.1264954,6.234600067,-18.71660042
15:38:18.857,-0.620700002,-2.831199884,8.989600182,43.92689896,8.723099709,-27.61739922
15:38:18.879,-0.228,-0.087499999,7.518400192,247.9575043,36.72309875,-17.73950005
15:38:18.904,-2.957999945,10.96000004,7.510000229,247.9575043,35.98270035,9.833000183
15:38:18.960,-1.634600043,-0.983500004,-0.137700006,-145.0883942,-55.29219818,0.0162
15:38:18.977,-1.800999999,1.725499988,7.454299927,-252.3096924,-29.62800026,-13.60210037
15:38:19.014,-1.013299942,-2.98029995,8.479000092,-77.10359955,-15.53639984,-19.16699982
15:38:19.076,-2.536000013,9.916099548,7.137700081,247.9575043,32.52460098,14.00090027
15:38:19.092,-2.080499887,13.11709976,8.654399872,77.06430054,15.79950047,16.0848999
15:38:19.108,-2.364900112,10.31649971,8.687299728,-179.7754059,-13.32269955,19.90169907
15:38:19.165,-1.361099958,0.487699986,8.183400154,-252.3096924,-17.45249939,2.298700094
15:38:19.189,-0.360900015,-2.584000111,7.973899841,122.5529022,7.990300179,-16.93799973
15:38:19.204,-0.697899997,2.221100092,6.123700142,247.9575043,13.87580013,-8.586799622
15:38:19.265,-1.580800056,11.5340004,7.585400105,123.2932968,11.0284996,12.94750023
15:38:19.285,-1.513100028,5.641200066,7.742199898,-238.5157928,-19.15469933,5.886400223
15:38:19.302,-1.386199951,1.364599943,7.854199886,-213.9281006,-18.33029938,-5.189899921
15:38:19.373,-0.766099989,-0.138400003,7.745200157,102.0109024,10.85289955,-10.75479984
15:38:19.392,-2.437900066,11.0486002,7.083199978,128.0643005,18.8682003,11.42840004
15:38:19.407,-2.189500093,12.17920017,8.368900299,-88.00440216,-12.97920036,16.33679962
15:38:19.475,-2.457000017,8.43710041,8.118100166,-252.3096924,-32.83409882,22.8635006
15:38:19.493,-0.755400002,-3.077199936,9.27630043,4.621600151,6.211699963,-22.92270088
15:38:19.507,-0.399800003,-1.282799959,8.001999855,231.5986938,30.6772995,-20.29680061
15:38:19.574,-1.329399943,4.93380022,6.977300167,247.9575043,36.9978981,2.168900013
15:38:19.589,-2.069200039,9.896900177,7.854800224,-224.2563019,-42.36090088,26.77190018
15:38:19.603,-1.541300058,6.676099777,6.971300125,-252.3096924,-46.4219017,21.45129967
15:38:19.676,-0.742799997,-1.853800058,7.60160017,-252.3096924,-16.58989906,-7.029600143
15:38:19.692,-0.957099974,2.762799978,6.47149992,247.9575043,59.88339996,-2.067800045
15:38:19.705,-2.338500023,9.031999588,6.284800053,247.9575043,54.0666008,7.978000164
15:38:19.729,-2.708400011,13.84379959,8.309599876,127.8352966,14.2421999,17.83300018
15:38:19.785,-1.240200043,0.0616,7.414800167,-252.3096924,-24.82649994,-4.968500137
15:38:19.801,-0.908599973,-1.384500027,8.131899834,-236.8287964,-19.6432991,-10.58679962
15:38:19.830,-0.52609998,-1.954399943,8.289899826,54.00329971,7.471199989,-7.212800026
15:38:19.881,-1.185700059,3.642100096,7.174200058,242.8811035,33.4178009,0.787199974
15:38:19.900,-1.942899942,11.59980011,8.705300331,-0.935699999,-7.58220005,14.93220043
15:38:19.937,-1.613700032,6.126100063,8.35929966,-252.3096924,-30.70439911,20.0237999
15:38:19.997,-0.153200001,-3.625499964,8.659799576,68.36969757,17.73839951,-17.95330048
15:38:20.014,0.198100001,-2.129100084,7.796700001,247.9575043,49.02080154,-18.32729912
15:38:20.030,-1.586699963,4.141300201,6.202199936,247.9575043,68.57039642,-0.701300025
15:38:20.084,-2.986700058,11.95829964,8.143300056,203.7743073,14.12010002,8.863499641
15:38:20.101,-1.325199962,6.77850008,8.233599663,-252.3096924,-59.91809845,-2.495199919
15:38:20.125,-1.086400032,-0.141299993,7.870299816,-252.3096924,-17.46010017,-22.69370079
15:38:20.186,-0.710500002,-2.777400017,8.374899864,33.52999878,28.18110085,-18.7852993
15:38:20.203,-1.595700026,2.980099916,5.828100204,247.9575043,74.73840332,-5.01429987
15:38:20.224,-3.140000105,11.70759964,6.351799965,247.9575043,40.5780983,12.87119961
15:38:20.297,-2.88560009,12.96030045,7.937399864,-140.7525024,-47.07839966,1.573500037
15:38:20.315,-1.746000051,0.148300007,7.948699951,-214.6455994,-27.2234993,-21.87689972
15:38:20.391,-1.23360002,1.257500052,8.205499649,21.71319962,-23.74250031,-2.014300108
15:38:20.409,-1.750699997,7.427899837,9.661800385,-0.218099996,9.196399689,10.88640022
15:38:20.423,-1.646600008,5.21750021,9.244000435,-97.39369965,-4.353199959,5.794799805
15:38:20.440,-1.598099947,4.0479002,9.164999962,-122.6227036,-9.849399567,1.237599969
15:38:20.497,-1.195899963,0.82889998,9.111100197,-96.19519806,-12.36089993,-11.02200031
15:38:20.517,-1.426900029,3.408699989,6.25,171.4459991,15.50940037,1.405500054
15:38:20.536,-1.972800016,7.250699997,7.018000126,152.2245941,14.16590023,10.31389999
15:38:20.599,-2.202100039,8.876399994,9.246999741,-58.5387001,9.975000381,7.756700039
15:38:20.616,-1.781900048,0.639800012,9.29489994,-182.7677002,-15.50590038,-4.716599941
15:38:20.631,-1.175500035,-1.984899998,9.684499741,-53.30970001,-19.16239929,-8.525799751
15:38:20.652,-0.574000001,-0.098899998,7.491399765,175.0567017,-1.544100046,-4.709000111
15:38:20.697,-1.469400048,5.905799866,6.923999786,220.2398987,17.40250015,1.123100042
15:38:20.732,-1.98300004,10.10039997,8.999199867,-7.920400143,13.89109993,-4.205200195
15:38:20.755,-1.952499986,4.019199848,8.592200279,-207.5540009,11.23460007,-13.64789963
15:38:20.801,-2.154799938,-0.818300009,8.353899956,44.06430054,39.34140015,-21.47229958
15:38:20.823,-0.878700018,0.58829999,6.470900059,247.9575043,49.54750061,7.03910017
15:38:20.851,-2.868200064,10.66069984,5.673600197,247.9575043,46.59329987,37.77190018
15:38:20.903,-2.545000076,13.50020027,7.876299858,-222.9891052,-70.44480133,19.30629921
15:38:20.922,-1.643000007,3.917999983,6.326700211,-252.3096924,-42.29980087,8.863499641
15:38:20.951,-1.587299943,-0.601000011,7.381899834,-252.3096924,-47.9715004,-5.449399948
15:38:21.005,-0.6171,-0.228100002,8.927399635,-74.71430206,-76.43720245,7.329199791
15:38:21.023,-0.467999995,1.412500024,9.803600311,-9.615099907,-39.81890106,3.290999889
15:38:21.049,-0.460299999,-0.71420002,9.316399574,78.70549774,22.94449997,-23.96089935
15:38:21.111,-0.840300024,-0.033599999,7.640500069,247.9575043,76.89109802,-34.51050186
15:38:21.126,-4.225699902,14.58479977,7.286699772,231.5375977,61.51699829,13.06960011
15:38:21.148,-3.200999975,16.96100044,8.444899559,-128.4241943,-30.58989906,11.00090027
15:38:21.211,-1.342499971,5.796899796,6.658199787,-252.3096924,-63.3227005,17.375
15:38:21.229,-0.777499974,-7.207799911,8.968700409,-104.5615997,-29.76539993,-8.983799934
15:38:21.250,-0.553600013,-2.130300045,7.715899944,149.751297,-26.26930046,-0.72420001
15:38:21.318,-0.79430002,4.967299938,8.841799736,247.9575043,-16.49060059,12.93220043
15:38:21.336,-1.05400002,2.979500055,9.449299812,-34.83639908,35.0666008,-2.266200066
15:38:21.354,-0.965399981,-1.145099998,9.439700127,0.133000001,53.85290146,-21.51049995
15:38:21.420,-1.65139997,-0.751299977,7.37830019,229.2933044,80.60099792,-19.68610001
15:38:21.442,-2.5552001,14.55910015,8.473099709,48.62919998,-53.70439911,12.95510006
15:38:21.458,-2.049400091,11.01200008,7.945700169,-244.9967957,-54.20819855,8.718500137
15:38:21.524,-1.580800056,5.17320013,6.825799942,-252.3096924,-20.00209999,2.145999908
15:38:21.546,-1.227599978,1.141299963,7.733799934,143.8659058,-12.39140034,4.688000202
15:38:21.563,-1.135400057,3.244699955,7.576399803,182.2552032,-9.826499939,7.680300236
15:38:21.618,-1.673499942,8.023500443,8.221699715,137.5070953,-2.322700024,20.16130066
15:38:21.634,-1.681300044,3.593600035,9.121299744,-238.4394989,-0.0173,16.30629921
15:38:21.648,-1.207900047,-2.549900055,9.31099987,-193.2333984,-5.4447999,-6.029600143
15:38:21.678,-0.333400011,-3.722500086,9.516900063,82.64450073,8.280400276,-14.25860023
15:38:21.732,-2.134399891,6.876699924,7.108399868,247.9575043,30.15060043,8.420800209
15:38:21.754,-2.50970006,10.87679958,8.696900368,169.8276978,5.829999924,6.046700001
15:38:21.830,-1.828600049,7.785900116,8.392299652,-171.4013062,-50.75019836,-0.182300001
15:38:21.849,-0.671000004,0.592499971,6.864699841,135.4765015,26.58569908,-7.991399765
15:38:21.868,-1.623900056,4.964300156,6.226699829,223.2245941,47.31850052,-0.747099996
15:38:21.927,-2.736000061,9.908900261,7.382500172,146.9192963,47.39490128,11.71090031
15:38:21.953,-2.178100109,6.132100105,9.203900337,-252.3096924,-10.16240025,7.76429987
15:38:21.970,-1.677700043,-1.949599981,9.488800049,-252.3096924,-31.65089989,-9.670800209
15:38:21.985,-0.945100009,-3.714699984,9.861100197,-78.57689667,-40.11660004,-15.29679966
15:38:22.048,-0.900200009,4.460299969,7.515399933,223.2857056,13.8071003,15.49709988
15:38:22.066,-1.375499964,6.473800182,8.27369976,164.6215973,31.12770081,18.22999954
15:38:22.080,-1.791399956,6.815599918,9.136799812,46.36199951,27.82999992,7.008600235
15:38:22.134,-1.516700029,2.608999968,8.725600243,-55.27920151,8.761300087,-12.57159996
15:38:22.151,-1.605900049,2.94720006,6.500800133,100.3391037,16.11240005,-9.235699654
15:38:22.172,-2.025500059,5.631700039,6.402100086,133.1712036,11.87580013,0.436100006
15:38:22.254,-2.505500078,9.217000008,9.085399628,-87.18759918,-6.39139986,2.176500082
15:38:22.270,-1.557999969,-0.744099975,9.395999908,-153.6990051,-25.69669914,-9.968500137
15:38:22.287,-1.367699981,-0.334699988,8.375499725,-16.17230034,-23.45249939,-4.663199902
15:38:22.339,-1.650200009,3.258399963,6.993400097,75.28569794,-30.54409981,3.726099968
15:38:22.357,-1.16960001,5.192299843,9.505000114,-97.39369965,-1.513499975,19.31389999
15:38:22.376,-1.207900047,3.426000118,9.59469986,-125.4624023,10.26509953,14.60400009
15:38:22.446,-0.777499974,-2.133899927,10.25189972,-23.06550026,45.60100174,-8.922699928
15:38:22.477,-2.664099932,8.149200439,5.524600029,247.9575043,18.5170002,12.00090027
15:38:22.493,-2.604300022,13.80669975,7.345399857,194.8582001,-45.55170059,10.61929989
15:38:22.540,-1.574800014,12.48569965,7.707499981,-125.0654984,-88.95629883,8.520000458
15:38:22.556,-1.62440002,0.667900026,7.324999809,-235.9662018,15.70020008,-10.29679966
15:38:22.569,-1.544800043,-0.172499999,8.173199654,-159.3860931,14.06659985,-9.953300476
15:38:22.648,-1.371899962,2.383300066,8.246800423,57.4917984,-7.147099972,3.733799934
15:38:22.668,-1.940500021,6.299699783,9.156599998,-83.97380066,19.14299965,12.42080021
15:38:22.684,-1.794999957,3.001600027,8.913599968,-137.9356995,3.776599884,2.413199902
15:38:22.701,-1.220399976,-0.854799986,9.105099678,-78.04260254,-3.4296,-11.23569965
15:38:22.762,-1.808200002,5.566999912,6.183599949,247.9575043,32.53229904,-9.808199883
15:38:22.777,-2.727600098,10.89109993,6.857600212,229.4308014,19.78420067,1.642199993
15:38:22.798,-2.469599962,13.05970001,7.984000206,-10.78299999,-14.53639984,0.046700001
15:38:22.852,-1.746000051,5.755599976,7.387899876,-252.3096924,-26.01729965,-0.960900009
15:38:22.882,-1.263499975,-0.841700017,8.82559967,-128.1647034,-18.20059967,-6.892199993
15:38:22.901,-0.76849997,0.166899994,7.471099854,145.2398987,8.135299683,2.359699965
15:38:22.954,-1.564599991,6.776100159,6.885700226,226.9268951,14.07429981,3.565799952
15:38:22.971,-1.977599978,10.23029995,8.74600029,-139.0578003,-15.17759991,7.42840004
15:38:22.998,-1.375499964,3.024399996,7.96969986,-252.3096924,-18.82649994,9.90170002
15:38:23.054,-0.813399971,-2.681600094,9.452899933,-108.2105026,-0.689100027,-7.792900085
15:38:23.079,-0.72359997,-0.054000001,7.839799881,247.9575043,24.2269001,-8.655500412
15:38:23.097,-1.926699996,8.319800377,6.6104002,247.9575043,8.150600433,3.94749999
15:38:23.156,-1.971600056,12.69999981,7.937399864,-22.08839989,-31.4829998,3.832999945
15:38:23.172,-1.386199951,2.692199945,6.921599865,-252.3096924,-15.36849976,-7.327300072
15:38:23.202,-0.998399973,-0.59799999,8.622699738,-63.12649918,16.8682003,-12.98379993
15:38:23.260,-1.245000005,1.513000011,7.634500027,201.4154968,44.20399857,-0.625
15:38:23.279,-2.227200031,11.93799973,7.981599808,86.33149719,11.81470013,16.03149986
15:38:23.295,-2.047600031,9.972399712,8.36590004,-146.8898926,-19.01729965,12.51239967
15:38:23.365,-1.377200007,2.39289999,8.01099968,-252.3096924,-25.87989998,3.130700111
15:38:23.383,-0.827799976,-0.657299995,8.734000206,80.4917984,0.975000024,-2.800600052
15:38:23.398,-1.179100037,3.156100035,7.475900173,204.5299988,13.9673996,-0.052499998
15:38:23.467,-1.774700046,9.571900368,7.709300041,124.4077988,6.310900211,6.436100006
15:38:23.484,-1.525099993,4.234700203,7.914599895,-240.1112976,-16.58989906,8.17650032
15:38:23.501,-1.164199948,0.350699991,8.593999863,-192.0043945,-13.26159954,3.329200029
15:38:23.569,-0.728999972,-1.831099987,8.964500427,41.77420044,9.333800316,-3.014300108
15:38:23.589,-1.977599978,6.904799938,6.472099781,247.9575043,50.81470108,-0.579200029
15:38:23.602,-2.996900082,10.6534996,7.226900101,97.64450073,22.11240005,3.718499899
15:38:23.624,-2.371999979,7.839700222,8.198300362,-198.6302948,-27.09370041,-5.701300144
15:38:23.682,-1.450299978,-0.262899995,9.075200081,-38.30970001,4.982699871,-10.61740017
15:38:23.696,-1.317399979,1.318500042,7.934999943,118.0337982,11.04370022,-3.212800026
15:38:23.722,-1.302399993,5.158199787,7.314899921,188.2552032,10.01319981,3.290999889
15:38:23.771,-1.557399988,7.767300129,8.413200378,12.94979954,24.12770081,5.749000072
15:38:23.791,-1.895599961,4.13409996,8.710100174,-102.7677002,14.83759975,-2.52579999
15:38:23.822,-1.641199946,0.724799991,9.654600143,-1.584499955,11.18109989,-8.754799843
15:38:23.874,-2.40260005,5.012199879,6.393700123,247.9575043,20.89870071,0.481900007
15:38:23.891,-2.572000027,11.4435997,6.999400139,152.8123932,-41.79600143,9.451299667
15:38:23.921,-1.734599948,8.834500313,7.242400169,-142.3860931,-72.38379669,5.733799934
15:38:23.978,-1.598700047,3.993999958,7.088600159,-183.4089966,-28.17770004,-5.808199883
15:38:23.995,-2.039799929,5.689099789,8.409600258,-171.0502014,-47.04019928,7.993299961
15:38:24.024,-1.030099988,3.870100021,8.660400391,-235.8516998,-71.10900116,14.38259983
15:38:24.092,-0.052099999,0.521799982,7.080800056,245.1329956,29.10479927,-4.953299999
15:38:24.106,-0.246000007,3.47510004,7.160399914,247.9575043,63.15060043,-6.563899994
15:38:24.126,-0.934899986,5.777100086,7.301099777,247.9575043,75.08190155,-2.823499918
15:38:24.178,-2.086499929,9.866999626,8.510199547,103.0413971,42.9673996,-1.785300016
15:38:24.196,-1.411999941,3.972500086,7.786499977,-161.065506,-27.00970078,-5.823500156
15:38:24.218,-0.748199999,-0.055199999,8.347399712,18.42309952,19.26510048,-9.89220047
15:38:24.283,-0.903800011,1.306499958,6.504399776,247.9575043,61.75370026,-10.6402998
15:38:24.301,-3.380599976,16.50970078,5.327700138,25.12540054,-24.55929947,13.24520016
15:38:24.319,-1.926699996,12.92739964,5.798099995,-252.3096924,-68.57460022,9.932200432
15:38:24.386,-1.577200055,2.729899883,5.413899899,-252.3096924,-13.79599953,9.756699562
15:38:24.403,-0.204699993,-3.153899908,9.959899902,11.94979954,14.82999992,8.008600235
15:38:24.416,-0.995999992,0.599099994,9.038100243,183.8352966,31.15819931,8.733799934
15:38:24.515,-2.065599918,8.201199532,8.227100372,151.0720062,-7.986800194,11.11550045
15:38:24.535,-0.761900008,-1.382699966,9.16380024,-5.431900024,27.37199974,-0.930400014
15:38:24.595,-0.629700005,-0.823099971,8.844799995,173.9192963,41.80709839,-1.457100034
15:38:24.616,-2.151200056,11.96850014,8.199500084,18.96509933,-17.00970078,5.604000092
15:38:24.632,-2.148200035,10.77260017,7.936800003,-104.3936996,-30.53639984,1.985700011
15:38:24.648,-1.554999948,5.750800133,7.180799961,-250.5540009,-31.57460022,-6.449399948
15:38:24.707,-1.081599951,-0.264699996,7.890100002,66.6292038,23.79949951,0.344500005
15:38:24.722,-1.281499982,1.898499966,7.113699913,239.3697052,41.9673996,7.558199883
15:38:24.736,-1.457499981,4.940899849,6.375100136,247.9575043,47.10480118,4.283400059
15:38:24.803,-2.214600086,9.089500427,6.357200146,247.9575043,42.15060043,9.023799896
15:38:24.827,-1.502300024,4.967299938,6.745600224,-252.3096924,-39.08599854,-2.105900049
15:38:24.854,-1.601099968,1.568699956,7.510000229,-252.3096924,-19.6128006,-6.556300163
15:38:24.906,-1.437100053,4.267000198,7.305300236,219.155899,18.50169945,5.802499771
15:38:24.947,-1.733399987,7.912700176,7.330999851,187.3009949,3.593300104,4.375
15:38:24.998,-1.60710001,9.275600433,8.132499695,-34.73720169,-4.559299946,3.558199883
15:38:25.023,-1.32280004,0.883400023,8.117500305,-111.4089966,-0.696699977,-11.88449955
15:38:25.037,-0.984600008,0.944999993,7.780499935,109.8430023,12.93690014,-7.189899921
15:38:25.053,-1.042700052,1.869199991,7.308899879,183.6139069,20.23460007,-6.311999798
15:38:25.103,-1.273699999,3.971899986,6.444600105,247.9575043,35.13529968,-8.075400352
15:38:25.119,-2.582700014,13.53489971,6.347000122,1.39260006,-14.93340015,5.161300182
15:38:25.135,-2.143399954,9.548000336,6.712100029,-211.9739075,-31.91810036,0.390300006
15:38:25.149,-1.831500053,7.183100224,6.706699848,-252.3096924,-25.17760086,-3.312000036
15:38:25.207,-1.779500008,3.704299927,7.708099842,-246.6838074,-12.62800026,-4.579199791
15:38:25.235,-0.770900011,1.659100056,8.093600273,89.28569794,-9.276900291,4.71089983
15:38:25.252,-0.721800029,2.39470005,7.550700188,135.1941071,-1.505900025,3.084899902
15:38:25.308,-1.575999975,7.185500145,6.174600124,161.3009949,12.12769985,3.336800098
15:38:25.327,-1.743600011,9.015899658,7.92840004,-119.3173981,1.051399946,4.390299797
15:38:25.341,-1.776499987,5.772900105,8.240799904,-218.4241943,5.257500172,3.95510006
15:38:25.413,-1.875800014,2.292999983,8.991999626,-175.8058929,-13.29220009,4.497099876
15:38:25.431,-0.786499977,2.386899948,8.130700111,99.44599915,-1.330299973,1.90170002
15:38:25.449,-0.950500011,3.690000057,7.705699921,126.751297,12.89109993,1.36740005
15:38:25.512,-1.085800052,4.597400188,7.831999779,111.2474976,22.0666008,-0.72420001
15:38:25.527,-1.408400059,3.055500031,8.306099892,-63.08840179,-3.00970006,-9.701299667
15:38:25.543,-1.522099972,2.208600044,8.221699715,-26.95859909,4.013199806,-10.28909969
15:38:25.574,-1.301800013,2.405499935,7.26639986,137.6750031,24.19639969,-3.014300108
15:38:25.628,-2.566600084,11.11919975,6.922200203,122.7818985,12.63910007,10.67269993
15:38:25.642,-1.933899999,10.78460026,7.498000145,-82.63030243,-16.00209999,7.756700039
15:38:25.671,-1.460399985,4.838600159,7.281300068,-252.3096924,-18.87229919,-0.754800022
15:38:25.725,-1.112100005,0.104099996,9.429499626,-81.67610168,-40.33800125,-8.67840004
15:38:25.740,-0.742200017,-0.733900011,9.383399963,-5.958600044,-32.05550003,-5.212800026
15:38:25.767,-0.684700012,2.14989996,7.374700069,212.5375977,9.74600029,3.451299906
15:38:25.820,-0.953499973,5.915400028,6.581600189,247.9575043,31.7765007,-2.167000055
15:38:25.838,-2.22059989,10.31410027,7.450099945,-24.87459946,16.21929932,-0.312000006
15:38:25.869,-1.765699983,5.494599819,7.907999992,-218.7449036,-5.131800175,-8.777700424
15:38:25.922,-1.776499987,1.542400002,8.680800438,-140.4548035,-5.536399841,-7.28910017
15:38:25.944,-1.14139998,1.992499948,7.958899975,127.7055969,7.120100021,0.42840001
15:38:25.969,-1.544199944,6.481599808,6.547500134,184.5758057,14.56280041,0.100199997
15:38:26.029,-2.02850008,8.980600357,7.511199951,-61.82120132,-0.3838,-0.655499995
15:38:26.054,-1.886600018,2.522200108,8.353899956,-131.210495,-0.551699996,-4.716599941
15:38:26.072,-1.578400016,1.104799986,8.446700096,-12.39369965,2.829999924,-0.983799994
15:38:26.126,-1.491600037,3.205699921,7.453100204,175.1177979,16.86050034,5.268099785
15:38:26.147,-2.35710001,10.22259998,6.353000164,151.5299988,7.051400185,14.54290009
15:38:26.166,-1.852499962,10.84980011,7.255599976,-169.8975067,-33.46770096,15.3597002
15:38:26.227,-1.297600031,3.872499943,7.429200172,-252.3096924,-9.902799606,10.29870033
15:38:26.243,-0.90140003,-2.118999958,9.16079998,-126.248703,-13.62040043,3.703200102
15:38:26.262,-0.76730001,-0.849399984,8.983599663,140.6445007,3.707799911,6.649799824
15:38:26.335,-2.015300035,6.296700001,7.651800156,220.1636047,-3.070800066,5.688000202
15:38:26.353,-1.465800047,7.010700226,8.049300194,-200.3479004,-30.71199989,11.7489996
15:38:26.368,-0.920599997,1.26639998,7.849400043,-219.6761017,-6.406700134,1.535300016
15:38:26.434,-0.761900008,-1.294199944,8.227100372,4.987999916,34.43299866,-5.48759985
15:38:26.453,-2.046999931,5.98239994,7.576399803,247.9575043,44.16590118,11.3597002
15:38:26.469,-2.037400007,9.23789978,8.054100037,181.4306946,19.04369926,13.03909969
15:38:26.551,-1.74240005,8.142000198,8.150400162,-85.06539917,-21.95630074,8.596400261
15:38:26.566,-1.238399982,1.218600035,7.717100143,105.384903,22.89109993,-9.128800392
15:38:26.582,-1.016899943,2.073299885,7.61590004,168.6215973,28.59329987,-6.182300091
15:38:26.639,-2.415100098,7.716400146,6.885700226,216.4459991,31.01320076,9.894100189
15:38:26.661,-1.47179997,7.521900177,7.066500187,-252.3096924,-63.79600143,11.84829998
15:38:26.674,-0.860099971,2.173199892,6.628900051,-252.3096924,-44.63570023,0.352100015
15:38:26.691,-0.880999982,-0.614199996,7.053899765,-252.3096924,-40.81890106,-6.250999928
15:38:26.745,-0.160400003,-3.215500116,8.932100296,29.60630035,-3.093699932,-1.777699947
15:38:26.766,-1.641800046,4.513599873,8.411999702,245.6674042,26.47879982,10.05440044
15:38:26.793,-1.575999975,7.056799889,9.227800369,171.7283936,7.043700218,8.474200249
15:38:26.863,-1.224599957,4.337600231,8.859700203,-60.2181015,-15.65089989,-4.296800137
15:38:26.881,-0.875100017,1.574699998,7.163400173,115.5833969,24.93689919,-13.14410019
15:38:26.900,-1.201900005,4.706299782,6.14470005,176.4459991,24.99790001,-4.174600124
15:38:26.959,-2.207400084,9.573699951,8.435899734,-140.1569977,17.5781002,2.077300072
15:38:26.974,-1.903399944,3.677400112,9.017700195,-252.3096924,9.883399963,-5.57159996
15:38:26.993,-1.817199945,2.24029994,9.48939991,-252.3096924,2.478800058,-6.319699764
15:38:27.047,-1.391600013,-1.150500059,10.47640038,-155.3708038,-29.59749985,-4.411300182
15:38:27.066,-1.828600049,5.420400143,8.617899895,-42.90510178,-44.37609863,18.38260078
15:38:27.090,-0.918200016,4.993000031,8.438899994,-219.5693054,-35.28450012,32.22999954
15:38:27.155,-0.597899973,-1.169100046,8.101400375,-252.3096924,-19.54409981,21.34449959
15:38:27.171,-0.129299998,-8.576700211,10.25430012,17.33909988,12.19639969,4.878799915
15:38:27.189,-0.231000006,-6.138199806,9.621700287,220.2857056,24.20400047,0.046700001
15:38:27.253,-0.739199996,0.086099997,8.735199928,247.9575043,44.47880173,-4.418900013
15:38:27.273,-2.31340003,6.831799984,10.23999977,56.04140091,-0.49059999,-9.754799843
15:38:27.289,-1.901000023,4.992400169,9.891599655,-105.0654984,-24.56699944,-10.38070011
15:38:27.405,-1.763900042,0.553600013,9.943099976,-126.9890976,-4.58220005,-4.96089983
15:38:27.458,-1.274299979,1.314900041,9.986200333,-252.3096924,-24.96389961,42.09249878
15:38:27.481,0.31189999,-8.587499619,9.55340004,-16.75250053,-18.24640083,1.80250001
15:38:27.496,0.295100003,-5.374499798,8.727999687,145.4765015,-4.895199776,-3.686100006
15:38:27.515,-0.0251,-3.160399914,8.376700401,189.384903,-0.170000002,-3.899800062
15:38:27.577,-1.073799968,2.119999886,10.14239979,-51.99679947,-12.84939957,6.100200176
15:38:27.592,-0.637399971,-0.552600026,9.890399933,-142.8516998,-23.34560013,3.405499935
15:38:27.683,-0.428499997,-2.990400076,9.695300102,-139.3249969,-18.10890007,1.451300025
15:38:27.698,-1.001399994,1.630399942,7.92840004,247.9575043,68.30329895,10.41320038
15:38:27.720,-1.56159997,4.307700157,7.742800236,247.9575043,56.70019913,22.85589981
15:38:27.782,-0.656000018,4.801499844,9.036299706,-252.3096924,-49.26929855,26.34449959
15:38:27.798,-0.99059999,-1.944200039,8.018799782,-252.3096924,-37.01729965,14.63449955
15:38:27.816,-0.63499999,-4.726799965,8.875300407,-252.3096924,-57.34560013,13.0237999
15:38:27.865,-0.084399998,-6.759500027,9.528900146,-252.3096924,-62.55929947,15.38259983
15:38:27.885,1.110299945,-4.996200085,8.599300385,238.4689026,16.43300056,-11.2052002
15:38:27.905,0.246600002,-1.43719995,8.210300446,247.9575043,36.85290146,-17.4951992
15:38:27.922,-0.569800019,2.825700045,8.072600365,247.9575043,28.55520058,-4.350200176
15:38:27.990,-1.129999995,5.936299801,9.31400013,149.0491028,-0.689100027,5.703199863
15:38:28.010,-0.256799996,-3.556099892,9.500200272,-122.9508972,15.91399956,-9.579199791
15:38:28.026,-0.219099998,-3.093400002,8.938699722,17.11779976,22.01320076,-7.09070015
15:38:28.087,-0.389600009,3.584000111,9.691699982,77.79720306,14.09720039,23.55820084
15:38:28.100,-0.773299992,3.512200117,10.06459999,-42.16469955,15.71549988,24.25289917
15:38:28.118,-0.94630003,0.986299992,10.05020046,-157.2409973,-4.895199776,15.6498003
15:38:28.175,-0.602100015,-0.73269999,10.14179993,-181.7601013,-16.75020027,5.894100189
15:38:28.191,0.497399986,-3.453700066,8.779500008,142.8811035,-9.620400429,-17.45709991
15:38:28.205,0.180199996,0.315299988,8.410200119,235.9116974,10.17350006,-10.21280003
15:38:28.221,0.324400008,2.507200003,8.773500443,238.4613037,22.32620049,-3.663199902
15:38:28.276,-0.434500009,4.978099823,9.234399796,150.5834045,32.93690109,14.06200027
15:38:28.306,-0.065800004,-1.008000016,9.57199955,-230.2333984,-28.6128006,4.90929985
15:38:28.324,-0.07,-3.671600103,9.803600311,-178.6302948,-20.26930046,-6.021999836
15:38:28.379,0.306499988,-5.819200039,9.938300133,-14.8441,6.249800205,-20.12879944
15:38:28.398,-1.07980001,5.106699944,8.140899658,247.9575043,70.76889801,12.40550041
15:38:28.413,-1.747799993,7.788799763,8.881899834,247.9575043,59.32619858,22.0848999
15:38:28.429,-1.406000018,10.99590015,10.54339981,46.36199951,7.364299774,22.2147007
15:38:28.481,-0.594299972,6.62650013,10.00650024,-252.3096924,-38.89519882,21.19179916
15:38:28.498,-0.332800001,-4.812399864,9.326600075,-252.3096924,-36.46009827,2.230000019
15:38:28.513,-0.176599994,-5.912000179,9.463700294,-211.4394989,-39.09370041,1.260499954
15:38:28.587,0.981000006,-4.811800003,8.778900146,81.30860138,-25.35320091,-1.838700056
15:38:28.607,-0.360900015,3.029799938,10.26930046,-18.32500076,3.524600029,2.626899958
15:38:28.620,-0.0084,0.800800025,9.9041996,-142.0807037,-15.58220005,-2.281500101
15:38:28.639,0.108999997,-3.522599936,10.3441,-133.4319,-3.811199903,-10.46469975
15:38:28.685,0.246600002,-4.80700016,9.128499985,95.15589905,25.82239914,-19.44179916
15:38:28.709,0.251399994,2.321099997,9.147000313,247.9575043,34.19639969,-0.502900004
15:38:28.740,-0.969600022,7.094500065,10.12979984,99.24749756,18.24220085,15.61159992
15:38:28.819,0.225099996,-4.749000072,9.574399948,-163.4624023,-4.925700188,-4.228099823
15:38:28.840,0.515399992,-4.811800003,8.918999672,123.7436981,16.23460007,-10.47999954
15:38:28.898,0.417800009,-2.107000113,8.744199753,247.9575043,18.88339996,-11.6402998
15:38:28.923,-1.299399972,8.383799553,10.12269974,-48.94329834,-7.97149992,0.642199993
15:38:28.939,-0.742200017,3.84980011,9.199099541,-234.7066956,-41.18529892,4.290999889
15:38:29.010,-0.569199979,-0.085699998,9.156000137,-252.3096924,-39.68149948,2.855900049
15:38:29.037,0.595600009,-2.086600065,8.782500267,100.9192963,-5.856999874,-11.54870033
15:38:29.146,0.602199972,0.587100029,8.173800468,131.8430023,11.00559998,-11.75479984
15:38:29.217,-0.487800002,-1.452200055,10.26089954,45.70550156,12.37199974,-28.9151001
15:38:29.233,-1.228800058,8.556799889,9.980199814,-88.82119751,0.211700007,19.9246006
15:38:29.250,-1.381999969,7.858300209,9.659399986,-192.6609039,-12.18529987,29.29100037
15:38:29.304,-0.894800007,2.859200001,8.798700333,-252.3096924,-36.21580124,41.20709991
15:38:29.326,0.689499974,-7.853099823,9.197299957,-215.3708038,-43.12419891,16.75670052
15:38:29.341,1.358700037,-9.175299644,9.07460022,17.22459984,-12.23869991,-4.57159996
15:38:29.356,1.328199983,-6.241799831,8.352700233,241.2093964,16.76889992,-13.48760033
15:38:29.401,0.930199981,-4.608300209,8.460499763,247.9575043,32.31850052,-17.41130066
15:38:29.419,-1.077399969,5.805799961,10.04899979,232.491806,24.03610039,-10.05249977
15:38:29.435,-0.941500008,7.228000164,10.35369968,-0.195199996,-22.1317997,-0.915099978
15:38:29.450,-0.803799987,6.284699917,10.11610031,-118.8516998,-37.62039948,2.390300035
15:38:29.506,-0.765500009,1.984099984,9.041099548,-252.3096924,-45.00970078,7.32159996
15:38:29.523,0.4208,-4.722099781,9.455900192,-17.57690048,-0.116599999,-2.441800117
15:38:29.538,0.693700016,-3.052700043,8.844200134,138.6979065,18.71549988,-7.861599922
15:38:29.553,0.723100007,-1.888499975,8.723799706,189.0337982,27.95210075,-9.89220047
15:38:29.630,-0.283699989,2.412100077,8.598199844,200.1329956,40.30329895,3.359699965
15:38:29.647,-0.716400027,-1.097800016,9.700099945,-235.248703,-13.13949966,6.51240015
15:38:29.663,-0.650600016,-2.865999937,9.675499916,-212.1112976,-16.53639984,1.825399995
15:38:29.709,-0.0748,-4.960299969,10.12209988,-101.3554993,-22.86470032,-5.273900032
15:38:29.727,0.674600005,-0.848200023,8.926799774,195.9346008,-6.948599815,-0.541000009
15:38:29.748,0.657199979,0.354799986,8.819600105,206.5758057,3.165899992,-1.922700047
15:38:29.817,0.396299988,1.069499969,8.763400078,187.0643005,25.11240005,-7.060100079
15:38:29.834,-1.081599951,2.256999969,8.207300186,195.9192963,63.91400146,-33.15940094
15:38:29.847,-2.170300007,6.792900085,8.338999748,147.5758057,18.64679909,-6.365499973
15:38:29.865,-2.099699974,8.805800438,9.092000008,85.17120361,-4.330299854,6.42840004
15:38:29.915,-1.772899985,9.807800293,10.07120037,-110.607399,-28.42959976,20.13069916
15:38:29.935,-0.913999975,-0.489100009,8.853699684,-252.3096924,-52.84939957,18.38260078
15:38:29.951,0.046100002,-3.616499901,9.616900444,-252.3096924,-77.8035965,13.32919979
15:38:29.967,0.648199975,-4.692100048,9.737199783,-196.1112976,-80.38379669,10.05440044
15:38:30.016,0.933799982,-4.859099865,9.057200432,-85.84410095,-50.69670105,-1.884500027
15:38:30.037,0.823000014,-2.575099945,7.64470005,176.4384003,30.60099983,-20.44939995
15:38:30.058,0.140100002,-0.299400002,8.73939991,226.8659058,65.07430267,-15.78530025
15:38:30.120,-0.826600015,3.355999947,10.44589996,100.2932968,38.54750061,-12.52579975
15:38:30.139,-0.563199997,-1.644899964,10.38000011,-47.70669937,3.532299995,-26.88459969
15:38:30.159,0.031099999,-3.289099932,9.027299881,86.11009979,21.6772995,-35.2356987
15:38:30.223,-0.278899997,0.743300021,7.205900192,247.9575043,38.4178009,-20.47229958
15:38:30.265,-0.834999979,4.242400169,8.607099533,-252.3096924,-49.09370041,17.88640022
15:38:30.324,-0.861899972,1.44599998,8.428199768,-252.3096924,-46.6432991,19.54290009
15:38:30.343,1.199499965,-6.190899849,9.118300438,27.77420044,-32.16239929,-9.060099602
15:38:30.357,0.937300026,-2.038800001,8.464099884,185.972702,-0.856999993,-2.602099895
15:38:30.371,0.61650002,-0.110200003,8.608300209,218.270401,14.99030018,0.092500001
15:38:30.428,-0.445300013,2.917200089,9.232000351,192.8047943,29.34140015,5.519999981
15:38:30.450,-0.557799995,1.972100019,9.998800278,-112.4700012,-7.536399841,-2.709000111
15:38:30.466,-0.080799997,-2.826999903,9.693499565,-45.21049881,8.181099892,-24.77000046
15:38:30.528,-0.012,-3.04369998,8.936300278,117.8811035,40.2879982,-26.12879944
15:38:30.549,-1.725000024,8.121600151,8.013400078,247.9575043,42.36429977,27.52000046
15:38:30.564,-1.261100054,12.18099976,9.493000031,76.03379822,-4.0479002,28.00860023
15:38:30.636,-0.321399987,4.2645998,8.403599739,-252.3096924,-39.76539993,25.14599991
15:38:30.657,-0.365099996,-3.968499899,9.826999664,-204.4853058,-53.56700134,7.756700039
15:38:30.672,0.362100005,-4.457499981,10.51710033,-79.47000122,-50.47539902,-1.533400059
15:38:30.689,0.632700026,-3.516000032,10.23999977,32.11009979,-28.59749985,-12.78530025
15:38:30.751,0.767400026,-1.267799973,7.399300098,247.9575043,25.90629959,-39.0143013
15:38:30.764,0.164000005,1.232300043,7.295100212,247.9575043,76.04370117,-39.3655014
15:38:30.787,-1.136600018,5.550300121,7.476500034,247.9575043,89.86820221,-23.12879944
15:38:30.845,-2.571399927,10.80140018,8.998600006,26.87350082,17.72310066,-5.350200176
15:38:30.863,-1.234799981,4.001200199,9.123700142,-252.3096924,-35.20819855,14.84060001
15:38:30.884,-0.942700028,-0.337700009,9.402000427,-252.3096924,-51.34560013,19.97800064
15:38:30.939,0.607500017,-5.173399925,10.33870029,-161.7906036,-51.62799835,-4.159399986
15:38:30.958,1.040300012,-3.019200087,7.563899994,227.9575043,22.24979973,-28.15940094
15:38:30.983,0.438199997,1.556100011,7.286099911,247.9575043,51.65439987,-24.18230057
15:38:31.040,-1.516100049,9.78619957,9.846099854,32.33909988,35.02080154,10.95510006
15:38:31.058,-1.067199945,1.139000058,9.624699593,-252.3096924,-19.84939957,15.33679962
15:38:31.081,-0.561999977,-3.673399925,10.35369968,-248.9432983,-24.79599953,3.268100023
15:38:31.143,0.386099994,-2.851599932,8.877699852,90.60630035,-10.23869991,1.107800007
15:38:31.162,-0.247199997,3.661799908,8.998000145,95.49939728,9.593299866,20.09259987
15:38:31.180,-0.627300024,3.877300024,9.60130024,-39.29449844,10.50940037,21.43610001
15:38:31.246,-0.411799997,-2.00819993,9.805999756,-188.0196991,-15.27690029,-0.0372
15:38:31.265,0.146699995,-5.426499844,8.994400024,72.94219971,14.28040028,-19.35020065
15:38:31.279,0.531499982,-3.889499903,8.323399544,247.9575043,31.18110085,-17.85400009
15:38:31.347,-0.225600004,0.6972,7.969099998,247.9575043,69.22689819,-14.86159992
15:38:31.368,-2.436700106,12.28820038,10.13220024,-27.43950081,-20.39139938,3.703200102
15:38:31.382,-1.453299999,7.407000065,8.934499741,-252.3096924,-75.81890106,15.36740017
15:38:31.468,-0.738600016,0.128000006,8.028300285,-252.3096924,-63.92570114,29.97039986
15:38:31.484,1.066599965,-6.519499779,9.491200447,79.54519653,21.92160034,-19.06780052
15:38:31.497,0.604600012,-4.571199894,8.219900131,247.9575043,57.56280136,-31.4647007
15:38:31.559,0.41839999,-3.101200104,7.934400082,247.9575043,63.91400146,-33.16699982
15:38:31.584,-1.634600043,-0.983500004,-0.137700006,-2.1723001,-6.315100193,-0.357800007
15:38:31.604,-0.821200013,6.548099995,8.82199955,-252.3096924,-31.9715004,9.352100372
15:38:31.661,-1.194700003,1.733899951,8.238400459,-252.3096924,-22.83410072,12.32159996
15:38:31.680,0.484200001,-3.571000099,10.22500038,57.53760147,-3.116600037,-0.128800005
15:38:31.698,0.3125,-1.446200013,9.218799591,171.8887939,11.45590019,-8.060099602
15:38:31.757,0.172399998,0.112999998,8.647800446,217.5453033,14.79950047,-16.02199936
15:38:31.776,-0.79369998,3.826999903,7.851200104,172.3925934,36.97499847,-25.98380089
15:38:31.789,-1.342499971,6.151800156,8.070199966,88.41549683,21.12010002,-17.74710083
15:38:31.806,-2.02609992,9.061400414,8.370699883,-55.70669937,-0.704400003,-1.99909997
15:38:31.862,-1.486799955,5.89620018,8.705900192,-252.3096924,-31.14710045,17.18420029
15:38:31.883,-0.575200021,-1.976500034,9.618700027,-252.3096924,-49.91049957,22.84059906
15:38:31.907,0.837400019,-5.763500214,10.76850033,-155.7066956,-43.14709854,-7.846399784
15:38:31.964,1.136100054,-6.093299866,9.485199928,133.3085938,1.692600012,-36.16699982
15:38:31.982,-0.350100011,2.502399921,7.082600117,247.9575043,56.66210175,-27.54100037
15:38:32.005,-1.394000053,7.899600029,9.121899605,195.8200989,35.89870071,-5.464700222
15:38:32.063,-1.065400004,5.011000156,9.858099937,-90.31739807,-10.92570019,-5.892199993
15:38:32.081,-0.30399999,-1.718500018,9.420599937,38.30099869,40.60860062,-20.77000046
15:38:32.104,-0.624300003,3.112999916,7.778699875,247.9575043,48.32619858,-3.029599905
15:38:32.171,-1.688500047,10.59959984,8.435299873,133.6826935,24.12010002,35.26810074
15:38:32.187,-1.103700042,2.226500034,7.927800179,-252.3096924,-22.34560013,18.48950005
15:38:32.206,-1.14260006,-0.780600011,8.449700356,-252.3096924,-35.92570114,15.12310028
15:38:32.286,-0.3046,-3.243599892,9.664199829,-205.2333984,-59.38380051,9.611599922
15:38:32.300,0.301099986,-2.259000063,8.435899734,175.8200989,21.98270035,-13.36550045
15:38:32.318,0.019200001,-0.658500016,8.503600121,247.9575043,41.52460098,-18.31200027
15:38:32.376,-0.165800005,0.987500012,8.767499924,247.9575043,58.31090164,-24.31970024
15:38:32.393,-2.167299986,8.692099571,9.200900078,-11.2791996,9.959799767,0.084899999
15:38:32.406,-1.908200026,6.900599957,9.298500061,-193.1493988,-18.08600044,5.367400169
15:38:32.474,-1.508900046,1.436400056,9.519900322,-252.3096924,-25.04789925,8.649800301
15:38:32.501,0.160400003,-4.947100163,10.38360023,-48.13420105,-34.76539993,-16.94560051
15:38:32.516,0.537500024,-3.519599915,8.244400024,247.9575043,15.05140018,-28.9762001
15:38:32.535,0.250200003,-0.477100015,7.272999763,247.9575043,48.14300156,-33.02199936
15:38:32.590,-2.993299961,13.2553997,8.476599693,146.0108948,24.08950043,-4.716599941
15:38:32.604,-2.128400087,11.82489967,8.555100441,-186.4777069,-39.62039948,4.626900196
15:38:32.635,-1.439499974,5.34679985,7.610499859,-252.3096924,-46.75019836,17.31389999
15:38:32.702,0.302899987,-4.898600101,10.15499973,-124.615097,-28.14710045,5.947500229
15:38:32.722,0.513000011,-4.371900082,9.390000343,158.7283936,10.02079964,-16.28910065
15:38:32.781,0.236399993,-2.358999968,8.552100182,247.9575043,29.63150024,-29.82349968
15:38:32.799,-2.04279995,10.33390045,7.333399773,97.08719635,11.36429977,-5.228099823
15:38:32.818,-2.055399895,10.68280029,8.04090023,-24.07309914,-2.948600054,-0.319700003
15:38:32.835,-1.814200044,7.193900108,8.283900261,-228.7066956,-10.87230015,8.153599739
15:38:32.888,-1.043900013,-0.765600026,10.09930038,-250.7371979,-12.84179974,9.802499771
15:38:32.904,-0.233400002,-2.803100109,11.0060997,-81.9280014,-27.63570023,-2.121200085
15:38:32.933,-0.0114,-1.337299943,9.373900414,106.9574966,-8.215800285,-12.58679962
15:38:32.987,-0.441100001,2.7651999,7.942100048,171.0108948,13.99790001,-2.838700056
15:38:33.004,-1.426300049,4.458499908,9.514499664,32.90399933,31.00559998,2.016200066
15:38:33.029,-1.005499959,-0.0222,10.13160038,11.50710011,27.04369926,-20.73189926
15:38:33.092,-0.953499973,0.856999993,8.535300255,155.8887939,36.16590118,-23.80060005
15:38:33.109,-2.161299944,10.07649994,8.664600372,-18.73719978,-3.215800047,21.06200027
15:38:33.128,-1.928500056,6.915599823,8.672400475,-201.9891052,-13.79599953,14.91699982
15:38:33.193,-1.558599949,0.946200013,9.102700233,-252.1723022,-18.12420082,13.69559956
15:38:33.241,-0.48120001,-2.074700117,10.2585001,-37.7983017,-37.29980087,3.634500027
15:38:33.293,0.400999993,-0.64410001,7.687799931,196.1101074,9.402500153,-14.9151001
15:38:33.314,-2.252899885,7.299799919,8.364700317,94.46130371,56.62390137,-2.464699984
15:38:33.328,-2.603100061,8.041399956,9.592900276,-74.19519806,17.48649979,-3.876899958
15:38:33.346,-2.183500051,5.070199966,10.08850002,-200.3325958,-3.994400024,-1.72420001
15:38:33.396,-2.081700087,3.299700022,10.12030029,-223.7449036,-5.948599815,0.527700007
15:38:33.418,-0.834399998,-0.40110001,10.08080006,-179.4777069,-54.08599854,10.11550045
15:38:33.433,-0.591899991,-1.281000018,9.852100372,-144.4319,-54.75780106,0.596400023
15:38:33.508,-0.180099994,-2.169199944,8.874699593,-27.6989994,-30.5821991,-17.24329948
15:38:33.527,-0.520699978,1.111400008,8.288100243,247.9575043,79.86820221,-9.289099693
15:38:33.546,-0.965399981,3.327300072,8.434700012,247.9575043,78.85289764,-9.388400078
15:38:33.606,-1.903399944,7.978600025,9.044699669,247.9575043,50.31850052,-7.663199902
15:38:33.628,-1.694499969,5.79090023,7.316100121,-252.3096924,-53.13190079,14.12310028
15:38:33.645,-1.405400038,1.761399984,7.708099842,-252.3096924,-38.39139938,20.9246006
15:38:33.709,-0.862500012,-0.681800008,9.079400063,-252.3096924,-32.53639984,24.93219948
15:38:33.736,0.226300001,-2.431400061,8.313799858,227.9116974,25.41010094,-9.915100098
15:38:33.751,-0.320199996,-0.0288,7.950500011,247.9575043,43.63150024,-16.27389908
15:38:33.806,-1.371899962,4.307099819,7.472300053,247.9575043,52.40250015,-14.47229958
15:38:33.827,-2.04640007,9.841899872,7.79309988,-190.9279938,-31.01729965,5.123099804
15:38:33.848,-1.415599942,5.015200138,7.632699966,-252.3096924,-20.75779915,12.97039986
15:38:33.862,-1.576599956,1.24909997,7.984000206,-252.3096924,-16.23870087,16.68029976
15:38:33.922,0.072400004,-3.558500051,10.19209957,47.92689896,-5.078400135,-0.777700007
15:38:33.936,-0.067000002,-1.32949996,9.416999817,170.636795,8.532299995,-4.388400078
15:38:33.955,-0.546500027,1.00849998,8.856699944,195.3544006,12.55519962,-1.480000019
15:38:34.026,-1.288699985,5.355700016,9.510299683,60.82770157,9.799500465,8.130700111
15:38:34.051,-0.609300017,-1.168499947,9.939499855,-81.83640289,-8.803600311,-9.82349968
15:38:34.068,-0.199900001,-1.855599999,9.486399651,23.28569984,-2.4447999,-8.235699654
15:38:34.121,-0.498600006,2.219300032,8.397600174,247.9575043,45.50170135,0.237599999
15:38:34.136,-1.914100051,6.062600136,8.338999748,228.0184937,40.74599838,4.581099987
15:38:34.152,-2.051199913,7.742199898,9.020700455,170.8123932,23.74600029,0.130700007
15:38:34.218,-1.548400044,5.506599903,8.776499748,-136.6226959,-23.3227005,-4.724199772
15:38:34.237,-0.948700011,0.402700007,8.725600243,-32.88990021,2.112400055,0.985700011
15:38:34.250,-0.775099993,0.379999995,8.737600327,27.3314991,8.700200081,5.153600216
15:38:34.334,-0.697899997,2.650899887,8.374899864,155.3773041,26.47879982,7.619299889
15:38:34.351,-1.337100029,4.429800034,8.913599968,-158.2563019,-23.36090088,3.031500101
15:38:34.365,-1.243800044,2.488100052,8.956700325,-185.3708038,-29.58989906,1.733800054
15:38:34.422,-1.189299941,1.945799947,9.135100365,-176.7142944,-30.33029938,3.077300072
15:38:34.446,-0.399800003,1.658499956,8.804699898,-25.46240044,-40.0021019,10.16889954
15:38:34.463,-0.184300005,2.462300062,9.260100365,-18.34029961,-32.84939957,10.8100996
15:38:34.538,-0.323799998,2.383300066,9.381099701,-40.17229843,-10.78069973,9.275799751
15:38:34.554,-0.412999988,-0.363400012,9.354700089,77.77420044,28.0666008,5.894100189
15:38:34.569,-0.488999993,-0.0995,9.42650032,152.8582001,37.69260025,2.107800007
15:38:34.627,-0.594900012,0.409299999,9.794099808,205.789505,41.53229904,-4.953299999
15:38:34.645,-1.556200027,8.190500259,9.222999573,31.27809906,-26.81119919,-3.014300108
15:38:34.661,-1.175500035,6.777900219,8.708299637,-141.8822937,-51.14709854,-0.625
15:38:34.679,-1.065999985,3.510400057,8.309599876,-224.9051056,-34.00970078,0.092500001
15:38:34.727,-0.993600011,-0.159299999,8.970399857,-131.7525024,-2.925699949,0.168899998
15:38:34.746,-0.319599986,0.016100001,9.077599525,108.6520996,15.5323,0.367399991
15:38:34.780,-0.928900003,4.983399868,8.596400261,108.2628021,12.66969967,6.855899811
15:38:34.829,-1.020499945,5.468299866,9.334400177,-69.31739807,-4.658599854,11.73379993
15:38:34.847,-0.791299999,0.132200003,9.326000214,-151.0883942,0.0285,1.390300035
15:38:34.877,-0.399199992,-1.853800058,10.0323,-9.012000084,4.906300068,-6.311999798
15:38:34.933,-0.3759,0.218999997,9.773099899,126.0871964,-7.093699932,-4.342599869
15:38:34.948,-0.105300002,2.308500051,8.661600113,135.155899,7.47879982,-10.46469975
15:38:34.976,-0.684700012,1.966699958,8.392800331,130.270401,43.44829941,-15.40359974
15:38:35.035,-1.305400014,2.412100077,7.859499931,187.6520996,72.47119904,-20.00670052
15:38:35.054,-3.221400023,9.723400116,8.719099998,118.5910034,12.75360012,-7.739500046
15:38:35.082,-2.279900074,9.331299782,8.641200066,-145.6761017,-43.76539993,-1.548699975
15:38:35.135,-1.480800033,3.886300087,7.908599854,-252.3096924,-31.52120018,-4.625
15:38:35.151,-0.917599976,1.133000016,9.147600174,-139.9356995,-39.57460022,1.90170002
15:38:35.175,-0.72359997,1.979900002,9.867099762,-86.89749908,-45.30739975,3.023799896
15:38:35.242,-0.960699975,1.127599955,9.837200165,-76.44709778,-27.25399971,-8.472299576
15:38:35.259,-0.157399997,0.56370002,7.667399883,155.3544006,19.12770081,-2.892199993
15:38:35.276,-0.1215,0.956399977,7.541100025,199.8735046,33.05139923,-1.189900041
15:38:35.344,-1.797999978,8.146800041,8.058899879,151.8047943,54.18880081,9.680299759
15:38:35.364,-1.298200011,3.955699921,9.075200081,-252.3096924,-26.26160049,7.718500137
15:38:35.379,-1.402999997,0.112400003,9.11289978,-252.3096924,-24.14710045,9.611599922
15:38:35.444,-0.460299999,-3.827800035,9.903599739,-58.08069992,-4.368500233,9.023799896
15:38:35.463,-0.66079998,1.881800056,8.422200203,247.9575043,32.92160034,6.726099968
15:38:35.477,-1.420899987,5.839399815,8.587400436,247.9575043,21.92919922,4.008600235
15:38:35.548,-1.488600016,7.840899944,8.829799652,-15.78299999,-8.322699547,-2.976200104
15:38:35.573,-1.604699969,0.129199997,8.977000237,-81.26390076,22.42539978,-5.686100006
15:38:35.588,-1.375499964,0.782800019,9.135700226,113.8430023,33.56280136,4.794799805
15:38:35.605,-1.153399944,2.504199982,8.994999886,195.3468018,28.14299965,6.451300144
15:38:35.664,-1.312000036,8.438899994,8.276100159,-30.59219933,-29.51350021,6.604000092
15:38:35.679,-1.189900041,5.645999908,8.146800041,-163.8594055,-27.75779915,1.405500054
15:38:35.702,-1.222800016,2.367799997,8.360500336,-174.8822937,-0.047899999,-6.327300072
15:38:35.749,-1.151000023,0.120200001,8.73279953,24.15589905,7.684899807,-3.495199919
15:38:35.768,-1.164800048,3.33859992,8.197099686,133.3619995,-2.750200033,-1.319700003
15:38:35.802,-1.753700018,7.189700127,9.079400063,47.02619934,17.34140015,2.145999908
15:38:35.856,-2.09010005,4.500400066,9.565999985,-160.9432983,-6.864699841,-0.762399971
15:38:35.875,-1.559800029,1.750699997,10.07419968,-177.4394989,-31.94860077,-1.602100015
15:38:35.901,-1.286299944,0.346500009,9.737199783,-131.8287964,-50.48300171,-9.548700333
15:38:35.984,-0.277700007,0.0119,8.733400345,-52.96620178,-68.57460022,-12.99139977
15:38:35.998,-0.411199987,0.666700006,8.332400322,185.0337982,60.73839951,-17.27389908
15:38:36.013,-0.577600002,0.917500019,8.203100204,223.155899,69.20400238,-16.82349968
15:38:36.075,-3.145999908,10.68999958,8.324000359,172.3925934,5.341400146,-2.128799915
15:38:36.090,-2.427099943,12.80109978,8.135499954,-79.95860291,-57.28450012,3.550600052
15:38:36.106,-1.646600008,8.43710041,7.209499836,-252.3096924,-73.26159668,14.64220047
15:38:36.189,-1.548400044,3.490099907,6.787499905,-252.3096924,-35.21580124,19.76429939
15:38:36.202,-0.0814,-2.23210001,9.710300446,106.0795975,11.52460003,3.016200066
15:38:36.270,-0.63380003,1.626799941,8.975799561,181.0948944,-0.643299997,-0.999100029
15:38:36.288,-0.630900025,2.131299973,8.457500458,-65.01959991,15.14299965,-3.785300016
15:38:36.304,-0.817600012,1.141899943,8.577799797,-48.24869919,26.64679909,-5.647900105
15:38:36.322,-0.90259999,0.638000011,9.071000099,21.57579994,36.95209885,-6.976200104
15:38:36.382,-1.51789999,3.953900099,9.392399788,184.0643005,24.08189964,-7.418900013
15:38:36.398,-1.56219995,5.796899796,8.545499802,142.5682068,10.89869976,-2.976200104
15:38:36.415,-1.604099989,6.227799892,8.133700371,106.987999,3.898699999,-2.289099932
15:38:36.467,-1.38380003,5.434700012,7.600399971,45.81240082,3.99029994,-3.907500029
15:38:36.485,-2.202100039,6.600699902,7.268799782,19.40019989,13.07429981,0.977999985
15:38:36.503,-2.0697999,8.434100151,8.36289978,-56.68379974,-11.65089989,0.039099999
15:38:36.526,-1.632200003,5.790299892,8.993800163,-204.3096924,-18.62039948,5.672699928
15:38:36.579,-1.072000027,0.432700008,9.540300369,-212.134201,-45.63570023,10.00860023
15:38:36.594,-0.973800004,-1.248700023,9.928099632,-129.9586029,-34.21580124,4.95510006
15:38:36.624,-0.539300025,-2.445800066,9.035099983,91.32389832,5.852900028,-5.144100189
15:38:36.674,-0.398600012,0.034000002,7.422599792,247.9575043,29.30330086,-6.304399967
15:38:36.694,-1.65199995,6.415800095,7.112500191,247.9575043,44.93690109,-2.792900085
15:38:36.728,-2.112900019,9.753899574,8.429400444,-67.03489685,-6.711999893,-2.189899921
15:38:36.795,-1.271299958,-0.067100003,8.926199913,-129.8746033,-1.849400043,-4.754799843
15:38:36.813,-0.732599974,-0.808099985,9.092000008,22.54520035,6.532299995,-4.006700039
15:38:36.830,-0.243599996,0.532599986,8.221099854,154.8352966,12.92920017,-6.747099876
15:38:36.878,-1.350299954,7.212999821,6.909599781,165.9575043,5.845300198,3.771899939
15:38:36.896,-2.093100071,8.15929985,8.665200233,-163.1493988,-4.085999966,4.649799824
15:38:36.922,-1.800999999,4.117300034,9.00399971,-252.3096924,-0.269300014,4.443699837
15:38:37.034,-1.523900032,-0.149700001,10.25909996,-242.9739075,-50.0326004,2.84829998
15:38:37.083,-0.264499992,0.161500007,7.696700096,247.9575043,44.68489838,-12.15939999
15:38:37.099,-2.264899969,10.29319954,7.549499989,247.9575043,50.09719849,-1.403599977
15:38:37.117,-2.388200045,12.1906004,8.792699814,10.48419952,8.318499565,-0.464700013
15:38:37.131,-2.437299967,10.6402998,8.622099876,-123.134201,-9.490599632,1.726099968
15:38:37.185,-2.063800097,6.312200069,8.04090023,-252.3096924,-20.23870087,4.810100079
15:38:37.202,-1.42990005,-1.559900045,9.760499954,-129.6685028,-33.72729874,14.29870033
15:38:37.218,-0.4824,-1.806499958,9.6875,27.26280022,-15.78829956,10.64220047
15:38:37.232,-0.429699987,-0.77700001,9.199700356,91.91929626,-7.215799809,9.199399948
15:38:37.288,-0.667999983,1.810500026,8.498800278,155.4689026,-1.452499986,8.375
15:38:37.314,-1.131800056,5.018799782,8.462300301,-72.01200104,2.448299885,-0.495200008
15:38:37.331,-1.031900048,3.412800074,8.769300461,-144.5769043,-1.38380003,-4.319699764
15:38:37.399,-1.120499969,1.475900054,9.356499672,-142.9508972,2.234600067,-9.441800117
15:38:37.417,-0.940299988,0.917500019,8.139100075,220.087204,21.39489937,-5.258600235
15:38:37.433,-1.050400019,1.891299963,7.970900059,247.9575043,29.95210075,-5.617400169
15:38:37.512,-2.079900026,6.62349987,7.313700199,247.9575043,37.34140015,2.710900068
15:38:37.526,-1.886600018,4.274199963,8.727999687,-252.3096924,-32.36090088,0.657400012
15:38:37.540,-1.666300058,3.021399975,8.705900192,-252.3096924,-44.13949966,2.932199955
15:38:37.597,-1.189900041,0.940199971,8.860899925,-252.3096924,-67.46009827,2.917000055
15:38:37.614,0.168200001,-4.711299896,10.05319977,-41.49290085,-17.91810036,-7.105899811
15:38:37.630,-0.162799999,-3.721299887,8.652000427,170.087204,22.89109993,-9.464699745
15:38:37.651,0.0174,-1.530599952,7.739200115,247.9575043,45.47880173,-7.48759985
15:38:37.705,-2.378000021,10.42549992,8.469499588,237.155899,23.93689919,-4.48759985
15:38:37.726,-1.762099981,10.63790035,9.44810009,-36.53110123,-26.47540092,-5.823500156
15:38:37.746,-1.549600005,6.782100201,8.449700356,-241.210495,-32.69670105,-6.28910017
15:38:37.804,-1.879999995,1.004899979,8.22879982,-246.9815063,-16.28450012,-3.72420001
15:38:37.822,-0.308200002,-1.103800058,9.240400314,32.62919998,-8.940999985,3.237600088
15:38:37.848,-0.771499991,4.168799877,7.896699905,138.6139069,-1.108899951,7.32159996
15:38:37.903,-0.472799987,6.294300079,8.640600204,14.43840027,5.471199989,7.069600105
15:38:37.924,-1.370700002,2.405499935,9.26609993,-153.5310974,8.341400146,1.245200038
15:38:37.951,-1.535899997,-0.621399999,9.939499855,-85.11889648,-5.689099789,-4.533400059
15:38:38.006,-0.992999971,-0.725499988,9.407400131,95.32389832,2.601000071,-6.999100208
15:38:38.020,-1.086400032,4.341199875,8.537099838,217.0184937,18.57040024,-3.113600016
15:38:38.044,-1.434700012,8.692700386,8.395799637,57.00329971,-1.605100036,7.207099915
15:38:38.108,-1.385599971,5.961500168,8.221099854,-194.7447968,-13.36849976,9.710900307
15:38:38.126,-1.104300022,0.811500013,8.517900467,-247.9739075,-22.95630074,7.138400078
15:38:38.143,-0.585399985,-1.61619997,9.715000153,-118.5615997,-21.70439911,6.604000092
15:38:38.209,-0.117299996,-2.451200008,10.32079983,90.45359802,23.18880081,2.94749999
15:38:38.258,-0.385399997,1.374199986,8.121100426,247.9575043,53.34140015,-5.548699856
15:38:38.315,-2.70359993,10.98209953,8.307299614,233.3925934,15.83759975,-0.640299976
15:38:38.331,-1.584900022,3.685199976,6.692399979,-252.3096924,-33.25400162,7.76429987
15:38:38.345,-1.422700047,0.800800025,7.400499821,-252.3096924,-35.20059967,10.07730007
15:38:38.360,-1.181499958,-0.371800005,8.170800209,-252.3096924,-40.84180069,10.65740013
15:38:38.415,-0.37650001,-2.593600035,9.776100159,-186.6990051,-32.56700134,9.90170002
15:38:38.435,-0.487800002,-1.709599972,9.373900414,215.5834045,28.95980072,-7.136499882
15:38:38.450,-0.497399986,1.171300054,8.198300362,247.9575043,31.63909912,-10.93799973
15:38:38.472,-1.540099978,8.128800392,7.729100227,212.5529022,15.02079964,0.031500001
15:38:38.537,-1.641800046,4.610499859,8.812399864,-223.7906036,3.326200008,3.397900105
15:38:38.556,-1.882400036,0.120800003,8.912400246,-212.2792053,11.9673996,-0.243300006
15:38:38.574,-1.317999959,-2.316499949,9.789899826,-83.09600067,3.639100075,-1.121199965
15:38:38.633,-0.917599976,2.188800097,7.999000072,247.9575043,28.30330086,-8.785300255
15:38:38.650,-1.909999967,7.365099907,7.475900173,247.9575043,21.50169945,-2.075400114
15:38:38.672,-1.913499951,9.516900063,8.021699905,103.392601,-1.559299946,-2.266200066
15:38:38.719,-1.689700007,5.469500065,8.135499954,-211.7371979,-14.4677,-10.05249977
15:38:38.743,-2.011699915,4.281300068,8.546099663,-252.3096924,-37.57460022,3.123100042
15:38:38.770,-1.230000019,0.587700009,9.568400383,-252.3096924,-56.62039948,7.657400131
15:38:38.826,-0.30340001,-3.582400084,9.874899864,27.98040009,11.18879986,-1.960899949
15:38:38.844,-0.054499999,-0.398099989,7.46750021,247.9575043,39.82239914,8.298700333
15:38:38.868,-0.128700003,2.740700006,7.90199995,247.9575043,65.81469727,3.588700056
15:38:38.928,-2.456399918,9.732899666,8.786700249,186.6598053,41.73839951,7.008600235
15:38:38.943,-1.826799989,6.377500057,8.492799759,-236.0731049,-50.72729874,-8.128800392
15:38:38.973,-1.571200013,1.078500032,8.657999992,-249.6074066,-43.02500153,-9.388400078
15:38:39.028,-0.72420001,-1.539600015,9.148200035,-47.38610077,-12.68910027,-3.480000019
15:38:39.046,-0.416599989,0.564300001,7.013199806,247.9575043,39.92160034,-7.43419981
15:38:39.067,-1.879400015,7.934899807,5.957300186,247.9575043,52.81470108,-0.075400002
15:38:39.135,-3.08130002,14.49680042,7.535699844,-27.36319923,-4.093699932,4.76429987
15:38:39.161,-1.731600046,0.065200001,7.816999912,-252.3096924,-39.71960068,6.382599831
15:38:39.176,-0.522499979,-3.319099903,9.55700016,-252.3096924,-51.00970078,7.283400059
15:38:39.240,0.247199997,-4.840000153,10.30519962,-61.46239853,-23.66620064,5.947500229
15:38:39.260,-1.14139998,3.65350008,7.690700054,247.9575043,39.41009903,1.764299989
15:38:39.277,-1.794999957,8.1875,8.984800339,218.3009949,17.04369926,2.611599922
15:38:39.341,-1.771100044,8.984800339,9.963999748,4.132999897,-7.895199776,-4.930399895
15:38:39.359,-0.892400026,-1.019999981,8.389300346,46.28570175,18.95210075,-13.57919979
15:38:39.374,-0.553600013,0.192000002,7.679399967,235.1483002,27.95210075,-5.632599831
15:38:39.439,-1.347900033,5.578400135,7.148499966,247.9575043,35.9673996,7.016200066
15:38:39.458,-1.731600046,8.267100334,7.492599964,-252.3096924,-30.46769905,10.45129967
15:38:39.478,-1.558599949,5.413799763,7.037099838,-252.3096924,-21.38380051,7.18419981
15:38:39.538,-1.568799973,0.772599995,8.147999763,-250.2868042,-13.60509968,4.481900215
15:38:39.554,-0.496199995,-1.295400023,9.27270031,130.751297,13.89109993,9.436100006
15:38:39.568,-0.815800011,0.87620002,8.572400093,245.7666016,25.60860062,4.252900124
15:38:39.595,-1.774099946,7.138199806,7.275400162,229.1483002,13.28800011,4.283400059
15:38:39.643,-2.063199997,9.962200165,7.227499962,-35.46239853,-20.33799934,4.718500137
15:38:39.665,-1.419100046,5.578400135,7.432199955,-252.3096924,-8.299799919,-3.739500046
15:38:39.694,-1.877599955,1.817700028,8.885499954,-252.3096924,-24.71199989,4.665100098
15:38:39.748,-1.219200015,-2.092600107,10.36270046,-194.0043945,-33.74250031,2.619299889
15:38:39.766,-0.611699998,-3.386100054,10.21539974,66.74369812,3.547499895,0.252900004
15:38:39.792,-0.244200006,-0.199399993,7.838600159,247.9575043,35.90629959,-3.792900085
15:38:39.849,-1.167199969,5.248600006,7.17539978,247.9575043,46.83760071,-6.021999836
15:38:39.873,-2.034499884,11.37300014,8.709500313,-69.01200104,-30.31509972,-11.39599991
15:38:39.891,-1.693300009,7.131599903,7.996600151,-252.3096924,-34.12419891,-14.86159992
15:38:39.951,-1.878800035,0.069899999,9.115300179,-230.2333984,-28.27689934,-5.693699837
15:38:39.966,-0.180700004,-1.842399955,9.34869957,119.270401,8.738400459,-1.63259995
15:38:39.993,-0.318399996,0.068700001,7.680600166,247.9575043,26.92919922,-5.166999817
15:38:40.051,-2.024300098,8.865599632,6.238100052,247.9575043,31.81469917,2.290999889
15:38:40.074,-2.106899977,9.934100151,7.891900063,-201.4624023,-28.39139938,-6.854000092
15:38:40.090,-1.612499952,4.784100056,7.484799862,-252.3096924,-17.43720055,-8.991399765
15:38:40.157,-1.119899988,-0.412499994,9.379899979,-210.3325958,-38.60509872,-2.167000055
15:38:40.174,-0.387800008,-0.247899994,9.105699539,55.04140091,-4.200500011,1.291000009
15:38:40.194,-0.544099987,1.100000024,8.754400253,132.8352966,9.020799637,0.191799998
15:38:40.258,-0.809800029,2.037400007,8.428799629,176.5605011,29.29560089,-7.037199974
15:38:40.279,-1.332399964,4.168200016,7.010200024,247.9575043,58.11240005,-18.08300018
15:38:40.293,-3.162699938,11.79259968,6.71449995,189.789505,27.86050034,-1.876899958
15:38:40.364,-3.1723001,14.07059956,7.028800011,-49.32500076,-21.30739975,2.993299961
15:38:40.390,-1.462800026,0.627200007,8.587400436,-252.3096924,-33.46009827,10.85589981
15:38:40.407,-0.894800007,-1.270200014,9.975399971,-174.4013062,-45.21580124,11.57349968
15:38:40.465,-0.645799994,-1.641299963,10.44470024,-110.0654984,-42.68149948,8.833000183
15:38:40.481,-0.371699989,0.472200006,6.447599888,247.9575043,21.72310066,-10.18229961
15:38:40.497,-0.781700015,3.689399958,5.733500004,247.9575043,37.08950043,-12.21280003
15:38:40.518,-2.110500097,8.993700027,6.000999928,247.9575043,41.10480118,-6.96089983
15:38:40.563,-2.702399969,11.57769966,8.10490036,-64.52349854,20.30330086,-7.953299999
15:38:40.589,-2.545599937,4.546500206,8.039699554,-252.3096924,-17.65089989,-1.495200038
15:38:40.618,-2.141000032,0.423099995,9.703700066,-252.3096924,-41.9715004,3.558199883
15:38:40.669,-0.555999994,-2.27699995,9.893400192,-1.225800037,-16.80360031,1.886399984
15:38:40.688,-0.342400014,0.085500002,7.064700127,247.9575043,32.94449997,1.214699984
15:38:40.718,-1.155200005,5.396399975,5.506599903,247.9575043,48.99029922,-0.0296
15:38:40.772,-2.566600084,12.92020035,7.107200146,111.2628021,9.669699669,-3.312000036
15:38:40.794,-1.864500046,7.160999775,7.060500145,-252.3096924,-11.37609959,-12.67840004
15:38:40.816,-2.292399883,1.316699982,8.252799988,-252.3096924,-16.00970078,-2.556299925
15:38:40.878,-1.495800018,-2.911999941,10.96780014,-220.0578003,-37.35319901,6.833000183
15:38:40.901,-0.340000004,-2.449399948,8.939299583,247.9575043,12.41009998,-2.663199902
15:38:40.914,-0.577000022,0.861800015,7.052700043,247.9575043,21.3871994,-1.167000055
15:38:40.975,-1.668099999,9.657500267,5.979499817,247.9575043,-0.849399984,6.107800007
15:38:40.991,-1.596300006,8.419099808,7.37169981,-220.3403015,-12.6967001,-1.082999945
15:38:41.016,-2.181699991,0.762499988,8.802900314,-252.3096924,6.623899937,2.825400114
15:38:41.074,-1.471199989,-1.532400012,11.11800003,-122.5006027,-23.49830055,9.817700386
15:38:41.092,-1.033699989,-1.773599982,9.928700447,160.9421997,6.784200191,-4.166999817
15:38:41.113,-0.439300001,0.836700022,6.451200008,247.9575043,12.66969967,-6.57159996
15:38:41.178,-0.899600029,6.162000179,5.445000172,247.9575043,30.92160034,-5.991399765
15:38:41.193,-2.492899895,12.32050037,7.536900043,-92.84410095,5.936900139,-7.76240015
15:38:41.231,-2.163100004,8.817799568,7.466300011,-252.3096924,-7.437200069,-12.83110046
15:38:41.283,-2.352900028,0.632600009,9.138600349,-252.3096924,-17.78070068,1.008599997
15:38:41.299,-0.79369998,-3.920599937,10.83670044,-80.2181015,-36.13949966,1.642199993
15:38:41.318,-0.478199989,-3.94630003,10.34889984,6.171199799,-25.84939957,-0.953299999
15:38:41.384,-0.425000012,-0.460399985,7.010200024,247.9575043,19.82239914,-1.647899985
15:38:41.403,-1.807000041,9.410900116,7.826600075,125.384903,41.83000183,10.80249977
15:38:41.420,-2.528300047,8.982999802,9.511500359,-109.3021011,39.08190155,9.443699837
15:38:41.486,-2.850300074,3.417599916,10.0927,-252.3096924,31.32620049,0.680299997
15:38:41.507,-1.765699983,-4.796299934,11.62139988,-104.0348969,-52.82649994,-4.861599922
15:38:41.521,-0.572799981,-4.129499912,10.16989994,73.81999969,-46.26160049,-2.090699911
15:38:41.542,-0.433899999,-0.621999979,7.978700161,202.4384003,-27.4218998,5.810100079
15:38:41.593,-0.967199981,5.242599964,8.233599663,145.7819061,1.93690002,13.47420025
15:38:41.637,-1.180899978,2.328900099,9.102100372,9.568099976,35.84529877,3.283400059
15:38:41.697,-1.816599965,-0.017999999,9.18710041,118.2170029,57.24219894,-3.808199883
15:38:41.722,-1.815999985,9.90530014,9.062600136,-21.30209923,-37.36090088,7.130700111
15:38:41.738,-1.619699955,6.393599987,8.50660038,-198.0119934,-21.42959976,2.993299961
15:38:41.792,-1.898000002,2.904700041,8.236000061,-252.3096924,-4.566999912,-2.709000111
15:38:41.810,-1.223999977,-1.636500001,10.90380001,-120.5540009,-40.76539993,3.794800043
15:38:41.826,-0.811600029,-2.792900085,10.78999996,3.102499962,-22.84180069,0.291000009
15:38:41.894,-0.70569998,-2.729500055,9.992799759,69.38490295,-13.04020023,-2.281500101
15:38:41.909,-1.619099975,7.751699924,6.971899986,180.6062927,11.23460007,-1.99909997
15:38:41.924,-1.817800045,9.276200294,8.820199966,-7.317399979,20.49410057,-4.876900196
15:38:41.937,-2.199100018,8.386199951,9.212300301,-110.3631973,25.26510048,-6.243299961
15:38:41.999,-2.454600096,3.031599998,9.914400101,-252.3096924,13.70020008,-5.663199902
15:38:42.018,-1.662799954,-1.937000036,11.27670002,-113.3861008,-54.46009827,-1.541000009
15:38:42.041,-0.762499988,-2.321899891,10.0024004,14.56809998,-46.46770096,-7.670800209
15:38:42.100,0.032900002,-2.359600067,7.982800007,218.7666016,-4.452499866,-15.69369984
15:38:42.119,-1.535300016,6.065000057,4.809299946,247.9575043,64.64679718,0.100199997
15:38:42.155,-2.9921,12.75979996,6.839000225,247.9575043,31.5781002,-0.243300006
15:38:42.203,-2.300800085,12.65869999,7.914000034,-232.6914063,-47.04019928,-3.487600088
15:38:42.222,-1.74000001,0.584699988,8.481399536,-252.3096924,-30.76539993,5.993299961
15:38:42.242,-1.291700006,-1.216899991,9.82460022,-252.3096924,-52.50590134,14.46660042
15:38:42.306,-0.34709999,-2.296700001,10.31719971,-98.41660309,-39.81890106,5.993299961
15:38:42.327,-0.031099999,-1.081699967,7.740399837,204.3390961,27.57040024,-9.88449955
15:38:42.343,-0.497399986,0.918099999,7.514200211,247.9575043,48.18109894,-8.418899536
15:38:42.408,-1.964400053,6.830599785,8.736399651,193.0261993,43.48649979,-0.563899994
15:38:42.423,-1.756700039,4.681799889,9.33619976,-242.5693054,-16.91049957,-2.960900068
15:38:42.436,-1.528100014,0.245900005,9.527099609,-249.8211975,-15.95629978,-2.907500029
15:38:42.515,-0.643999994,-3.680000067,9.850299835,-29.19519997,-1.757799983,-4.403600216
15:38:42.543,-1.272500038,5.973400116,7.313700199,247.9575043,26.03610039,7.51240015
15:38:42.558,-1.871700048,9.829899788,9.193099976,-24.33259964,9.043700218,0.42840001
15:38:42.612,-1.969799995,6.147600174,9.074000359,-217.6531982,-0.734899998,-0.464700013
15:38:42.629,-1.452700019,-1.916599989,10.40159988,-108.3479004,-13.83409977,2.985699892
15:38:42.648,-0.862500012,-2.063299894,10.17889977,37.5605011,-13.97920036,2.787199974
15:38:42.668,-0.629700005,-0.29460001,9.297300339,144.5070953,-12.39140034,1.359699965
15:38:42.714,-1.095299959,4.052100182,8.480799675,155.5834045,0.959800005,-0.52579999
15:38:42.736,-1.36650002,5.352700233,8.677200317,11.2322998,8.875800133,0.642199993
15:38:42.842,-1.614899993,1.559700012,9.112299919,-66.32499695,21.08189964,-9.838700294
15:38:42.858,-2.138000011,8.321000099,8.743599892,115.7742996,12.67730045,9.993300438
15:38:42.876,-2.00090003,8.401200294,8.947099686,-49.78300095,-6.811200142,7.000899792
15:38:42.934,-1.599300027,2.455199957,8.986000061,-252.3096924,-42.4219017,8.031499863
15:38:42.951,-1.275500059,0.585900009,9.505000114,-244.5310974,-52.16239929,10.24520016
15:38:42.966,-0.959500015,-1.070899963,9.960499763,-193.7830048,-48.33029938,5.527699947
15:38:43.023,-0.61650002,-2.441600084,10.24120045,-146.2333984,-40.55170059,0.665099978
15:38:43.039,-0.300500005,-0.557900012,7.94810009,239.3773041,30.12010002,-10.2052002
15:38:43.055,-0.665600002,1.065899968,7.88409996,247.9575043,44.66970062,-14.32730007
15:38:43.069,-0.976800025,2.709500074,7.947500229,247.9575043,49.83760071,-14.83110046
15:38:43.146,-2.537199974,8.097700119,9.026100159,131.6674042,26.25749969,-12.32730007
15:38:43.160,-1.864500046,2.458199978,9.411000252,-172.8898926,-31.47540092,-6.915100098
15:38:43.177,-1.444300056,1.524999976,9.2979002,-116.3097,-35.75780106,-1.144099951
15:38:43.228,-1.261100054,1.547199965,9.059000015,-83.57689667,-36.9333992,1.077299953
15:38:43.246,-0.466300011,3.282399893,8.91779995,-56.729599,-17.46010017,13.70320034
15:38:43.267,-0.778100014,2.309700012,9.382900238,-98.30210114,-1.131800056,15.33679962
15:38:43.328,-0.819400012,0.234500006,9.883199692,-122.1570969,-7.52120018,6.123099804
15:38:43.345,-0.507600009,-2.093199968,8.795100212,106.7972031,14.17350006,-14.625
15:38:43.368,-0.411799997,-1.057100058,7.758999825,236.7055969,37.54750061,-17.9762001
15:38:43.435,-0.599099994,1.129400015,7.189799786,247.9575043,62.95209885,-17.18989944
15:38:43.460,-2.514499903,11.03059959,9.230199814,-172.7218933,-20.10890007,6.581099987
15:38:43.478,-1.943500042,6.319399834,8.314399719,-252.3096924,-39.28450012,13.84829998
15:38:43.550,-1.750699997,3.71269989,7.938499928,-252.3096924,-43.01729965,17.57349968
15:38:43.569,0.332800001,-4.083399773,9.588199615,2.934499979,-21.60510063,-4.563899994
15:38:43.591,0.247199997,-3.614099979,9.0333004,70.85820007,-9.910499573,-9.243300438
15:38:43.641,-0.131099999,-1.803500056,7.966100216,247.9575043,33.80709839,-20.64030075
15:38:43.658,-2.182899952,6.146399975,7.847000122,247.9575043,75.86049652,-14.38840008
15:38:43.675,-3.186100006,11.52620029,8.972200394,202.2398987,40.50939941,-1.281499982
15:38:43.741,-3.235699892,13.0717001,9.427100182,69.60630035,10.43299961,4.09250021
15:38:43.762,-1.043300033,-1.514999986,8.507800102,-252.3096924,-56.15480042,8.100199699
15:38:43.777,-0.116700001,-3.587800026,9.212300301,-164.248703,-49.09370041,4.436100006
15:38:43.791,0.296900004,-3.978699923,8.990799904,-76.80590057,-37.66619873,3.329200029
15:38:43.857,-0.0197,0.446399987,7.964300156,101.6827011,-0.185299993,12.98569965
15:38:43.872,-1.031299949,2.489300013,9.967000008,-7.93569994,32.23460007,9.260499954
15:38:43.888,-1.138399959,0.792999983,10.34049988,-60.0196991,22.68490028,1.390300035
15:38:43.965,-0.985199988,-1.505399942,10.47039986,-8.07310009,13.59329987,-5.15170002
15:38:43.980,-0.83920002,2.144500017,8.916600227,200.8582001,16.68490028,-4.548699856
15:38:43.998,-1.347300053,4.830800056,8.855500221,159.3619995,17.32620049,-0.52579999
15:38:44.045,-1.763900042,6.743800163,9.145799637,44.23989868,1.61619997,-0.197500005
15:38:44.061,-1.355700016,3.32069993,8.942299843,-184.5386963,-20.63570023,-3.174599886
15:38:44.084,-1.293499947,-0.483700007,9.66119957,-114.0044022,-3.047899961,-2.876899958
15:38:44.149,-0.797299981,-0.748899996,8.783699989,105.1407013,18.71549988,3.214699984
15:38:44.164,-2.525899887,8.808199883,9.229599953,153.2093964,23.28039932,20.74900055
15:38:44.184,-2.180500031,9.852000237,9.791700363,51.98799896,-1.01730001,18.32920074
15:38:44.250,-1.111500025,2.191800117,8.8895998,-252.3096924,-32.72729874,16.375
15:38:44.265,-0.215499997,-4.792099953,9.847299576,-95.01200104,-28.36849976,4.145999908
15:38:44.290,0.185599998,-5.237400055,9.656399727,-7.256299973,-18.39139938,0.47420001
15:38:44.352,-0.490200013,0.378800005,8.720299721,216.4765015,15.55519962,-4.28910017
15:38:44.378,-1.235399961,5.443699837,9.295499802,10.57579994,0.417800009,-8.251000404
15:38:44.391,-1.330000043,3.672600031,9.254799843,-100.4548035,3.379600048,-9.525799751
15:38:44.457,-1.201300025,-0.888300002,9.595299721,-73.73719788,22.8682003,-14.07540035
15:38:44.474,-0.85769999,0.578700006,8.885499954,247.9575043,43.9978981,-8.312000275
15:38:44.491,-1.777099967,4.873300076,8.08520031,247.9575043,27.89109993,3.023799896
15:38:44.514,-2.082299948,9.111000061,8.219900131,163.8811035,0.234599993,7.107800007
15:38:44.575,-1.587299943,3.205699921,7.805099964,-252.3096924,-10.56700039,2.810100079
15:38:44.592,-1.477800012,0.266299993,8.881299973,-252.3096924,-21.99440002,6.863500118
15:38:44.611,-0.977999985,-2.215300083,10.37349987,-225.4853058,-32.21580124,9.268099785
15:38:44.666,-0.549499989,-3.913399935,10.80739975,6.72840023,-10.44480038,-1.067800045
15:38:44.699,-0.195700005,-2.033400059,8.887299538,222.5986938,9.829999924,-19.99139977
15:38:44.716,-0.589600027,1.080899954,7.675799847,247.9575043,25.37199974,-24.11359978
15:38:44.779,-1.745399952,6.825799942,6.906000137,184.7207947,17.50939941,-17.30439949
15:38:44.797,-2.110500097,7.401000023,8.093000412,-252.3096924,3.585700035,-0.808200002
15:38:44.811,-2.072799921,5.096000195,8.326999664,-252.3096924,7.654399872,7.649799824
15:38:44.869,-1.797399998,-1.777199984,9.786299706,-252.3096924,-17.62800026,16.62689972
15:38:44.890,-0.406399995,-5.453499794,11.08749962,-12.20289993,-17.54409981,-7.602099895
15:38:44.913,-0.930100024,-2.533799887,9.970600128,119.4613037,-7.0479002,-6.953299999
15:38:44.970,-1.003200054,1.71420002,9.044699669,153.7971954,-7.803599834,1.184200048
15:38:44.998,-0.766700029,-0.499300003,9.213500023,63.1711998,23.8071003,-2.212800026
15:38:45.016,-0.697300017,-1.327700019,9.262499809,143.9497986,41.3567009,-5.869299889
15:38:45.072,-0.923500001,-0.467000008,9.507300377,209.1024933,45.83000183,-2.854000092
15:38:45.092,-2.136199951,8.006699562,9.637800217,24.48419952,-11.34560013,4.000899792
15:38:45.108,-1.665199995,6.348700047,9.330200195,-163.4470978,-28.85700035,-0.777700007
15:38:45.171,-1.699300051,2.091799974,8.584400177,-252.3096924,-24.20820045,4.787199974
15:38:45.188,-0.74879998,-2.288300037,9.400799751,-252.3096924,-48.84939957,16.46660042
15:38:45.206,-0.466899991,-3.55189991,9.668999672,-206.4165955,-33.18529892,10.6498003
15:38:45.277,-0.451299995,-4.283899784,9.707300186,-78.15709686,-6.162399769,6.016200066
15:38:45.295,-0.717000008,-3.701499939,9.674900055,105.987999,20.92160034,0.115500003
15:38:45.320,-0.706900001,-3.073600054,9.640800476,151.6598053,27.34910011,-6.480000019
15:38:45.394,-0.869700015,-1.279800057,9.546299934,195.3161926,33.04370117,-9.067799568
15:38:45.408,-1.820199966,5.043900013,10.22439957,-187.1264954,-39.10889816,12.84060001
15:38:45.427,-1.637599945,3.157900095,9.736000061,-252.3096924,-44.49829865,17.1154995
15:38:45.484,-1.112100005,-1.385699987,9.035699844,-252.3096924,-38.26160049,19.29100037
15:38:45.502,0.238800004,-7.978199959,9.171600342,-41.15710068,-17.55929947,6.344500065
15:38:45.518,0.199300006,-6.521900177,8.947699547,100.7132034,1.914000034,1.38259995
15:38:45.536,-0.3477,-4.042099953,9.050700188,175.4765015,16.88339996,0.703199983
15:38:45.596,-0.775699973,-1.8125,9.986800194,103.155899,9.104800224,-12.19750023
15:38:45.613,-0.791899979,-2.609200001,10.21000004,88.67500305,17.11240005,-20.15940094
15:38:45.685,-0.861299992,-2.595400095,9.335000038,179.0184937,40.85290146,-24.4951992
15:38:45.703,-1.78550005,7.321400166,10.24419975,6.018499851,-13.13949966,20.97039986
15:38:45.718,-1.317999959,4.320199966,10.05920029,-205.4470978,-19.1317997,20.77960014
15:38:45.734,-1.12590003,-0.73269999,9.598899841,-252.3096924,-10.81890011,15.17650032
15:38:45.786,-1.201900005,-5.162000179,9.886199951,-235.9662018,-29.99440002,5.916999817
15:38:45.805,-0.326200008,-5.608500004,9.774900436,-85.99669647,-55.11660004,-0.647899985
15:38:45.832,0.032900002,-3.531500101,8.607099533,-0.057799999,-23.7730999,-5.548699856
15:38:45.889,-0.585399985,-3.300499916,8.792699814,65.95749664,20.54750061,-8.846400261
15:38:45.922,-0.575200021,-1.851999998,9.174599648,167.6291962,31.63150024,-7.319699764
15:38:45.936,-1.028300047,0.532000005,9.495400429,163.1407013,39.39490128,0.077299997
15:38:45.996,-1.597499967,2.6329,10.40040016,38.30860138,28.23460007,7.459000111
15:38:46.014,-1.550799966,-0.26699999,10.7343998,-169.5386963,-9.223500252,0.825399995
15:38:46.032,-1.523300052,-2.649300098,10.79899979,-193.6838074,-25.65089989,-2.067800045
15:38:46.101,-0.459100008,-4.306099892,9.822799683,-103.9356995,-57.2234993,-6.602099895
15:38:46.123,-0.188500002,-3.778100014,8.841199875,50.68259811,9.845299721,-9.999099731
15:38:46.143,-0.222599998,-3.812299967,9.020700455,86.2016983,21.71549988,-13.32730007
15:38:46.200,-0.33160001,-3.669800043,9.290100098,172.972702,45.00559998,-16.14410019
15:38:46.216,-1.424499989,1.449000001,9.858699799,247.9575043,68.40249634,-0.250999987
15:38:46.232,-2.291800022,4.335800171,10.31120014,247.9575043,57.26509857,7.18419981
15:38:46.298,-2.570800066,9.880800247,10.44050026,-36.27159882,-33.68149948,11.90929985
15:38:46.316,-0.81279999,-4.370100021,6.734300137,-252.3096924,-55.51350021,14.58870029
15:38:46.330,0.414200008,-5.972400188,8.221099854,-252.3096924,-53.00970078,11.97799969
15:38:46.403,0.426800013,-9.628399849,8.940500259,-116.0044022,-18.27689934,12.27579975
15:38:46.419,-0.805599988,-2.895900011,9.521699905,195.1712036,21.03610039,-24.14410019
15:38:46.434,-0.806800008,-1.873000026,9.194899559,189.9268951,22.05139923,-27.77000046
15:38:46.503,-0.942099988,-1.346199989,9.281100273,183.2245941,26.2269001,-28.1364994
15:38:46.522,-2.099100113,3.863600016,9.407400131,94.21700287,22.02079964,-2.586800098
15:38:46.537,-2.072799921,5.4520998,10.1303997,-36.4394989,-8.429599762,6.619299889
15:38:46.558,-1.531700015,3.687599897,10.35490036,-195.2792053,-26.9333992,14.03909969
15:38:46.604,-1.213199973,-1.96449995,9.596500397,-252.3096924,-28.9333992,16.60400009
15:38:46.626,-0.075999998,-7.860300064,9.88560009,-129.0043945,-23.15469933,3.039099932
15:38:46.660,0.460900009,-6.617099762,8.943499565,138.4459991,1.952100039,-11.86159992
15:38:46.710,-0.275900006,-1.114599943,8.97879982,238.4537048,17.32620049,-12.39599991
15:38:46.728,-1.213799953,2.362999916,10.31840038,41.31620026,7.303299904,1.313899994
15:38:46.758,-0.918200016,-1.006899953,10.30700016,-104.0653992,-3.147099972,-3.006700039
15:38:46.811,-0.952899992,-4.337200165,10.15859985,-13.32499981,17.11240005,-9.945599556
15:38:46.833,-0.516499996,-1.72510004,9.247599602,204.9880066,16.40250015,-1.464699984
15:38:46.860,-1.619099975,3.551700115,9.279899597,173.3161926,16.05900002,7.611599922
15:38:46.914,-1.388599992,4.208300114,10.25730038,-43.40129852,-8.299799919,2.306299925
15:38:46.937,-1.376099944,-1.192999959,9.542699814,-187.5310974,-14.12419987,1.581099987
15:38:46.953,-0.698499978,-2.502000093,9.445099831,-127.4089966,-30.13949966,3.252899885
15:38:47.021,-0.324400008,-2.69659996,9.615699768,-49.13420105,-13.31509972,7.405499935
15:38:47.044,-0.693099976,-1.154099941,9.944299698,-44.45479965,-2.246400118,8.268099785
15:38:47.060,-0.63499999,-2.229700089,10.23579979,-81.4394989,-7.566999912,5.42840004
15:38:47.117,-0.66140002,-4.269000053,10.03289986,-70.12650299,-12.50590038,-3.991400003
15:38:47.133,-0.174199998,-4.604100227,9.329600334,109.5299988,9.028499603,-14.87689972
15:38:47.153,-0.186700001,-3.811100006,8.904600143,204.8506012,25.8682003,-16.76239967
15:38:47.222,-1.32099998,1.16110003,8.975799561,247.9575043,39.70780182,-7.67840004
15:38:47.241,-1.327600002,5.626299858,10.02390003,-139.4013062,-16.00209999,6.390299797
15:38:47.254,-1.462200046,1.933799982,9.656999588,-252.3096924,-13.45250034,18.41320038
15:38:47.323,-1.225200057,-3.555500031,9.375699997,-252.3096924,-33.33800125,16.39030075
15:38:47.341,0.315499991,-8.066800117,10.1328001,-22.63800049,-12.05550003,-10.6097002
15:38:47.357,0.309500009,-6.499800205,9.370900154,122.4001999,4.639100075,-27.95330048
15:38:47.429,-0.346500009,-2.067500114,8.492799759,242.0643005,17.69260025,-30.73950005
15:38:47.446,-1.409600019,3.053100109,10.18669987,39.18650055,18.20400047,-1.167000055
15:38:47.462,-1.406000018,2.365999937,10.68050003,-26.08839989,12.31849957,-1.251000047
15:38:47.481,-1.598700047,0.180099994,10.76189995,-106.4548035,3.959800005,-6.159399986
15:38:47.527,-0.72420001,-4.468900204,10.05319977,65.14830017,19.63150024,-18.55629921
15:38:47.550,-0.579999983,-0.323900014,8.566399574,247.9575043,23.12770081,-4.579199791
15:38:47.583,-1.156999946,4.978700161,8.711899757,233.2093964,17.31089973,14.16129971
15:38:47.634,-1.596899986,7.045400143,9.335599899,-149.9051056,-15.05550003,14.89410019
15:38:47.649,-1.442499995,1.923099995,8.47369957,-252.3096924,-42.17760086,22.32920074
15:38:47.681,-0.591899991,-4.371900082,8.292300224,-252.3096924,-72.55930328,19.85589981
15:38:47.737,0.223900005,-10.45199966,9.557600021,-130.8211975,-17.66620064,-0.395999998
15:38:47.755,0.093999997,-6.955800056,8.373700142,236.0948944,27.34140015,-15.90750027
15:38:47.784,-0.366899997,-0.532800019,8.370100021,247.9575043,36.77659988,-10.84640026
15:38:47.834,-1.220399976,4.429800034,10.03709984,196.4230957,9.639100075,-1.067800045
15:38:47.851,-0.676900029,0.933000028,10.20230007,-122.1035995,-3.460099936,-1.869300008
15:38:47.878,-1.088099957,-3.167599916,10.01550007,-87.05020142,7.837600231,-1.121199965
15:38:47.942,-0.734399974,-1.708400011,9.534899712,25.41550064,-17.4218998,6.214700222
15:38:47.964,-0.381300002,0.196199998,9.471400261,-27.56159973,5.654399872,13.7947998
15:38:47.979,-0.505800009,-0.241300002,10.2184,-81.80590057,8.234600067,16.68799973
15:38:48.061,-0.967199981,-2.212300062,10.9151001,-167.2409973,-18.66620064,14.29100037
15:38:48.078,0.383100003,-3.415999889,8.100199699,136.7436981,-3.643300056,-9.457099915
15:38:48.094,0.227500007,-2.196799994,7.769199848,186.6750031,6.547500134,-5.663199902
15:38:48.153,-1.553799987,4.477099895,10.49680042,14.97270012,21.28800011,24.39789963
15:38:48.168,-0.867299974,1.925400019,10.53030014,-183.6609039,-19.88759995,21.58110046
15:38:48.181,-0.613499999,-0.179100007,10.20110035,-252.3096924,-29.08600044,19.55060005
15:38:48.242,-0.153200001,-6.032899857,9.910200119,-252.3096924,-32.27690125,3.367399931
15:38:48.258,0.517799973,-6.308199883,8.710700035,96.95749664,-15.32269955,-2.388400078
15:38:48.277,-0.039500002,-2.274600029,8.959699631,164.491806,11.3032999,-2.991400003
15:38:48.364,-1.097100019,1.44780004,9.573800087,53.27809906,9.677300453,6.504799843
15:38:48.379,0.151999995,-5.817399979,9.013500214,-2.790600061,11.21930027,3.451299906
15:38:48.403,0.273000002,-5.506199837,8.886099815,119.9269028,16.15819931,7.069600105
15:38:48.482,-1.297000051,1.091099977,10.6942997,125.1025009,21.26510048,-6.854000092
15:38:48.497,-0.547699988,-0.82069999,10.41419983,-71.18759918,-12.43719959,-11.50290012
15:38:48.559,-0.545899987,-3.065900087,10.38840008,-53.46239853,6.143000126,-18.01429939
15:38:48.592,-0.819400012,1.215000033,8.787899971,197.8582001,17.41010094,-2.128799915
15:38:48.610,-0.974399984,4.777500153,9.767700195,83.68270111,11.5781002,8.046699524
15:38:48.688,-0.939100027,-1.630499959,9.996399879,-224.3937073,-28.24640083,8.581100464
15:38:48.756,0.128700003,-4.553299904,9.60490036,-123.2333984,-38.44480133,-4.01429987
15:38:48.776,0.071800001,-3.430399895,9.20510006,20.40780067,0.158199996,-6.785299778
15:38:48.794,-0.094599999,-3.824199915,9.476799965,80.67500305,18.92160034,-10.46469975
15:38:48.812,-0.220200002,-2.84559989,9.217100143,135.7207947,20.94449997,-9.403599739
15:38:48.874,-0.811600029,-0.517799973,9.659399986,192.2245941,46.23460007,-11.89220047
15:38:48.896,-1.326400042,1.481899977,9.932900429,162.1483002,32.83760071,-3.976200104
15:38:48.914,-1.425699949,2.385099888,10.35070038,109.1330032,16.00559998,0.436100006
15:38:48.967,-1.253299952,2.191200018,10.4932003,56.04909897,6.662000179,-3.029599905
