Timestamp,aX,aY,aZ,gX,gY,gZ
21:53:29.886,0.0005,0.0098,9.77630043,0.0568,0.0032,-0.015
21:53:29.922,-0.0145,-0.0231,9.775699615,-0.0196,-0.0197,-0.022600001
21:53:29.954,0.0059,-0.0111,9.821800232,0.064400002,0.0109,0.0308
21:53:29.985,0.0077,0.0176,9.818200111,0.0491,-0.0044,0.0003
21:53:30.018,0.0209,-0.0189,9.835599899,0.0033,0.0109,-0.037900001
21:53:30.055,0.0119,-0.0004,9.787099838,-0.0196,0.0185,-0.076099999
21:53:30.087,0.0059,0.005,9.834400177,0.011,0.064300001,-0.068400003
21:53:30.117,-0.024,-0.015900001,9.917599678,-0.0196,-0.012,0.122400001
21:53:30.153,0.050799999,0.002,9.718299866,0.0186,-0.034899998,0.0079
21:53:30.185,0.0101,0.0296,9.806900024,0.0339,-0.034899998,0.0308
21:53:30.220,-0.016799999,-0.034499999,9.786499977,0.0491,0.0261,0.0003
21:53:30.249,0.0011,-0.0309,9.833800316,-0.050099999,0.0185,-0.076099999
21:53:30.286,0.0131,-0.017100001,9.845199585,0.0262,-0.042599998,0.061299998
21:53:30.318,0.0077,0.017000001,9.83619976,0.011,0.064300001,-0.0074
21:53:30.361,0.016100001,0.015799999,9.81760025,-0.088299997,0.079599999,0.0003
21:53:30.384,0.020300001,-0.015900001,9.765000343,-0.0348,-0.057799999,-0.068400003
21:53:30.418,0.0041,-0.0285,9.797300339,-0.0043,0.0414,0.061299998
21:53:30.475,-0.019200001,0.0062,9.7979002,-0.057700001,-0.0044,-0.098999999
21:53:30.489,0.033399999,0.037900001,9.814599991,0.087300003,-0.088399999,0.0079
21:53:30.514,0.0262,-0.038699999,9.85890007,-0.111199997,0.0032,-0.053199999
21:53:30.546,0.0125,0.02,9.811699867,-0.072999999,-0.096000001,0.0155
21:53:30.580,0.0017,-0.015900001,9.769800186,0.148399994,0.0261,-0.037900001
21:53:30.616,0.030400001,0.011,9.817000389,-0.126399994,-0.034899998,-0.015
21:53:30.648,0.0149,0.0337,9.826000214,0.163599998,-0.0044,0.061299998
21:53:30.681,-0.0013,-0.0022,9.814599991,-0.050099999,0.0185,0.0003
21:53:30.715,0.026799999,0.0104,9.812299728,-0.157000005,0.0032,-0.037900001
21:53:30.745,0.019099999,-0.0028,9.809300423,0.201800004,-0.065499999,-0.015
21:53:30.782,-0.0145,-0.039900001,9.80150032,-0.088299997,0.094800003,0.046100002
21:53:30.813,0.0005,0.023,9.806900024,0.0568,-0.073100001,0.0308
21:53:30.844,0.037599999,0.015799999,9.847599983,0.133100003,-0.0044,0.0079
21:53:30.879,-0.0031,-0.0147,9.83619976,-0.118799999,-0.012,-0.030300001
21:53:30.912,-0.0085,-0.0076,9.805700302,0.102600001,0.0109,0.0155
21:53:30.943,-0.0025,-0.0046,9.831999779,-0.095899999,0.0414,-0.076099999
21:53:30.982,0.0005,-0.0129,9.7979002,-0.0425,-0.0197,-0.015
21:53:31.009,0.0059,-0.001,9.830200195,0.041499998,0.064300001,0.0079
21:53:31.043,-0.0121,-0.0123,9.811699867,-0.0196,0.0261,-0.053199999
21:53:31.075,0.0137,-0.0093,9.810500145,-0.0119,-0.0044,0.0308
21:53:31.111,0.028000001,-0.0111,9.807499886,0.071999997,0.094800003,0.0155
21:53:31.141,-0.0031,-0.0141,9.792499542,0.011,0.048999999,-0.015
21:53:31.175,0.0041,0.002,9.818200111,0.102600001,0.0261,-0.091300003
21:53:31.208,-0.0109,-0.0082,9.799099922,-0.080600001,0.0109,-0.022600001
21:53:31.241,0.0101,-0.0261,9.809900284,0.156000003,0.0109,-0.068400003
21:53:31.277,-0.029999999,-0.023700001,9.809300423,0.0339,0.087200001,0.0232
21:53:31.307,-0.0097,-0.007,9.770999908,0.011,-0.034899998,-0.076099999
21:53:31.341,0.0101,0.0272,9.81289959,0.079700001,0.0414,0.0537
21:53:31.372,0.0023,-0.0363,9.781700134,-0.050099999,0.048999999,-0.022600001
21:53:31.417,-0.015699999,-0.0195,9.815799713,-0.057700001,0.163499996,-0.037900001
21:53:31.440,0.0005,0.033100002,9.824799538,0.156000003,0.071900003,0.046100002
21:53:31.472,-0.0001,-0.037500001,9.809300423,-0.095899999,-0.088399999,-0.022600001
21:53:31.507,0.0262,-0.0129,9.792499542,-0.0119,0.048999999,-0.022600001
21:53:31.536,-0.023399999,0.019400001,9.833200455,0.071999997,0.064300001,-0.098999999
21:53:31.589,-0.0037,-0.024900001,9.814100266,-0.0043,0.0414,-0.030300001
21:53:31.617,0.0262,0.0068,9.798500061,0.0033,0.0032,0.0003
21:53:31.639,0.024499999,0.011,9.824199677,0.064400002,0.033799998,0.0155
21:53:31.672,-0.0162,-0.0034,9.831999779,-0.095899999,-0.0273,-0.037900001
21:53:31.703,-0.0127,-0.0022,9.824799538,0.094899997,-0.103600003,0.0537
21:53:31.737,0.017899999,0.0008,9.820599556,0.0339,-0.103600003,0.0537
21:53:31.767,-0.024,-0.0177,9.81289959,-0.0272,-0.0044,-0.060800001
21:53:31.800,0.0077,0.0218,9.808099747,-0.0196,-0.057799999,0.0079
21:53:31.833,0.038800001,0.0188,9.803299904,0.087300003,0.0185,0.0155
21:53:31.874,-0.0025,0.017000001,9.802700043,-0.065399997,-0.080700003,-0.037900001
21:53:31.903,-0.033,-0.0219,9.775699615,0.079700001,0.0109,-0.022600001
21:53:31.937,0.0167,0.0044,9.809300423,-0.065399997,-0.034899998,0.0155
21:53:31.982,-0.0025,-0.0123,9.811699867,0.125499994,-0.0273,0.0308
21:53:32.001,-0.0043,0.021199999,9.815199852,0.0033,0.094800003,0.0079
21:53:32.032,-0.0013,0.019400001,9.818799973,0.071999997,0.0109,0.038400002
21:53:32.069,-0.0127,0.005,9.815799713,-0.0119,0.056699999,0.0079
21:53:32.100,0.0143,0.0164,9.807499886,-0.095899999,0.0414,-0.015
21:53:32.138,0.0065,0.0164,9.823599815,-0.0043,-0.0044,-0.0074
21:53:32.169,0.0149,-0.022500001,9.816399574,0.041499998,0.056699999,0.0232
21:53:32.200,-0.0198,0.0152,9.81289959,-0.0348,0.071900003,-0.030300001
21:53:32.233,-0.0031,-0.0034,9.829600334,0.041499998,0.0414,-0.030300001
21:53:32.264,-0.0055,-0.0076,9.814100266,0.0186,-0.042599998,-0.022600001
21:53:32.295,-0.028200001,-0.0082,9.819399834,-0.050099999,-0.0273,0.046100002
21:53:32.332,0.019099999,-0.0076,9.798500061,0.041499998,-0.0502,0.061299998
21:53:32.364,0.0274,0.0284,9.817000389,0.102600001,0.071900003,-0.030300001
21:53:32.394,-0.0091,0.018200001,9.814599991,0.041499998,0.087200001,0.0232
21:53:32.437,-0.0067,0.0044,9.819399834,-0.0119,0.064300001,-0.015
21:53:32.463,0.020300001,0.0014,9.795499802,0.0339,-0.057799999,-0.0074
21:53:32.493,0.0149,0.0062,9.814100266,0.110200003,-0.073100001,0.0232
21:53:32.526,-0.0174,0.0074,9.831999779,0.011,0.0185,-0.037900001
21:53:32.565,0.0047,0.018200001,9.822999954,0.064400002,-0.042599998,0.0079
21:53:32.605,0.0029,-0.037500001,9.782299995,-0.149299994,-0.0273,-0.045499999
21:53:32.626,-0.0121,0.0176,9.793700218,0.064400002,-0.012,-0.037900001
21:53:32.658,0.0095,0.0056,9.809900284,0.041499998,-0.111299999,-0.022600001
21:53:32.698,0.0107,0.0272,9.806900024,-0.0043,-0.096000001,0.038400002
21:53:32.724,-0.0109,-0.0297,9.763199806,-0.057700001,0.0261,-0.098999999
21:53:32.759,0.0167,-0.0082,9.805100441,0.011,0.0185,0.0003
21:53:32.795,-0.0103,-0.032699998,9.847599983,0.0339,0.056699999,-0.037900001
21:53:32.834,-0.0013,-0.0099,9.782299995,-0.0119,-0.034899998,-0.022600001
21:53:32.858,0.0149,0.015799999,9.820599556,0.0491,-0.012,-0.053199999
21:53:32.893,0.026799999,0.008,9.808699608,-0.103500001,0.125400007,-0.0074
21:53:32.927,-0.0085,-0.0165,9.797300339,0.0262,0.048999999,0.0232
21:53:32.955,-0.0103,-0.017100001,9.799099922,0.079700001,0.0185,0.0308
21:53:32.988,-0.0007,-0.020099999,9.818200111,0.011,0.094800003,-0.037900001
21:53:33.021,0.0185,0.014,9.830800056,-0.0196,0.0032,0.0155
21:53:33.064,-0.0085,-0.0004,9.797300339,0.041499998,0.0109,-0.045499999
21:53:33.087,-0.0079,-0.0195,9.799099922,-0.080600001,-0.0197,-0.114200003
21:53:33.122,-0.0001,0.0134,9.793700218,0.102600001,0.064300001,-0.083700001
21:53:33.154,0.0089,-0.0004,9.826000214,0.0568,-0.0197,-0.083700001
21:53:33.189,0.0185,0.023600001,9.804499626,0.041499998,0.033799998,0.046100002
21:53:33.222,0.020300001,0.0385,9.808699608,-0.149299994,-0.088399999,0.0308
21:53:33.257,-0.0019,-0.023700001,9.814599991,-0.0196,0.048999999,-0.053199999
21:53:33.288,-0.0121,-0.031500001,9.806300163,-0.088299997,0.071900003,-0.060800001
21:53:33.319,-0.0067,0.0128,9.808099747,0.041499998,0.0261,0.0079
21:53:33.354,0.0083,-0.0004,9.774499893,-0.103500001,-0.088399999,-0.076099999
21:53:33.397,0.0035,0.0403,9.77630043,-0.1646,0.0414,-0.053199999
21:53:33.419,0.0029,0.030200001,9.824799538,0.0033,0.0109,-0.015
21:53:33.454,0.0173,-0.0261,9.840999603,-0.172199994,-0.042599998,-0.030300001
21:53:33.486,0.0029,-0.022500001,9.81760025,-0.0272,0.0414,0.0079
21:53:33.520,0.0071,0.033100002,9.787099838,0.094899997,0.0414,-0.045499999
21:53:33.553,0.0209,0.0284,9.820599556,0.0186,0.0032,0.0232
21:53:33.586,-0.0073,0.0134,9.815799713,0.0033,0.0414,0.0155
21:53:33.618,0.0047,-0.0052,9.806900024,-0.157000005,0.071900003,-0.0074
21:53:33.648,0.0149,-0.0058,9.779299736,0.079700001,-0.0197,0.084200002
21:53:33.687,-0.0043,0.002,9.799099922,-0.0425,0.033799998,-0.015
21:53:33.715,0.0047,0.026000001,9.814100266,-0.0272,0.056699999,-0.015
21:53:33.754,-0.0049,-0.0076,9.812299728,-0.057700001,-0.042599998,0.0232
21:53:33.781,-0.0109,-0.041700002,9.83259964,-0.134100005,0.071900003,0.0308
21:53:33.816,-0.0007,-0.0099,9.831399918,0.0339,0.0414,-0.076099999
21:53:33.853,-0.0162,-0.0022,9.795499802,0.079700001,-0.065499999,0.068999998
21:53:33.884,0.043000001,0.02,9.813500404,-0.0272,-0.0197,-0.037900001
21:53:33.913,-0.0151,0.0254,9.822400093,-0.0043,0.0414,0.068999998
21:53:33.954,-0.0007,-0.0255,9.802100182,-0.0119,0.056699999,0.0232
21:53:33.979,0.0113,-0.0034,9.799099922,-0.0425,0.0414,-0.037900001
21:53:34.014,0.0113,-0.017100001,9.811100006,0.0568,-0.034899998,-0.053199999
21:53:34.045,0.0137,0.0092,9.833200455,-0.065399997,-0.0044,0.084200002
21:53:34.086,0.0101,0.0116,9.807499886,0.064400002,0.0414,0.0232
21:53:34.111,-0.0073,0.0068,9.813500404,0.0033,-0.065499999,-0.0074
21:53:34.145,-0.0031,-0.0129,9.864899635,-0.050099999,0.0414,-0.022600001
21:53:34.184,0.040600002,-0.032699998,9.816399574,0.0262,-0.103600003,0.0079
21:53:34.215,-0.019200001,0.0002,9.77159977,0.064400002,0.0185,0.0537
21:53:34.245,-0.0115,0.034299999,9.809900284,0.0568,-0.012,-0.037900001
21:53:34.280,0.0101,0.0098,9.816399574,-0.126399994,0.064300001,0.0003
21:53:34.311,-0.0025,-0.017100001,9.812299728,-0.126399994,-0.0502,0.038400002
21:53:34.341,-0.0031,-0.0099,9.833800316,0.041499998,0.079599999,0.0232
21:53:34.385,-0.0121,0.0104,9.794300079,-0.0119,-0.073100001,0.046100002
21:53:34.410,0.0155,-0.0058,9.815199852,-0.0043,0.0032,-0.015
21:53:34.444,0.0095,0.0068,9.829600334,-0.050099999,0.056699999,-0.053199999
21:53:34.474,-0.0085,-0.0034,9.822999954,-0.080600001,-0.0044,-0.015
21:53:34.507,-0.0043,-0.0058,9.818799973,0.079700001,-0.0044,0.046100002
21:53:34.543,0.0197,0.0056,9.802700043,-0.065399997,-0.012,0.0079
21:53:34.574,-0.0139,0.0062,9.833200455,0.102600001,0.033799998,0.0079
21:53:34.611,0.0053,0.0086,9.807499886,-0.057700001,0.056699999,-0.030300001
21:53:34.644,0.0065,0.0032,9.803899765,-0.057700001,-0.042599998,0.0003
21:53:34.672,0.0173,0.002,9.781700134,0.0033,-0.042599998,-0.060800001
21:53:34.716,0.019099999,-0.022500001,9.796099663,-0.0119,0.0109,0.038400002
21:53:34.737,0.017899999,0.0068,9.779899597,0.0186,0.0109,0.061299998
21:53:34.778,-0.0079,-0.007,9.821800232,-0.0348,0.0185,0.0155
21:53:34.809,-0.0162,0.005,9.781100273,-0.0272,0.094800003,-0.060800001
21:53:34.838,0.0119,-0.0135,9.830200195,0.071999997,-0.0044,0.0079
21:53:34.872,-0.0067,-0.0123,9.800299644,0.011,-0.0502,0.068999998
21:53:34.902,0.0077,-0.0016,9.826000214,0.041499998,-0.0273,0.0079
21:53:34.937,0.0131,0.0104,9.820599556,0.102600001,-0.0197,-0.022600001
21:53:34.970,-0.024,0.0134,9.817000389,-0.050099999,0.056699999,-0.015
21:53:35.003,0.0101,-0.001,9.810500145,-0.072999999,-0.088399999,-0.037900001
21:53:35.036,0.0047,-0.0255,9.805100441,0.071999997,0.087200001,0.0079
21:53:35.067,0.0197,0.023600001,9.811699867,0.087300003,0.0185,0.0003
21:53:35.100,0.0119,0.0026,9.799699783,-0.0119,0.0109,-0.053199999
21:53:35.133,0.0071,-0.018300001,9.820599556,0.0339,0.0261,-0.114200003
21:53:35.166,0.0047,0.015799999,9.790100098,0.071999997,-0.0044,0.0155
21:53:35.202,0.0017,-0.0363,9.818200111,-0.050099999,0.0109,-0.022600001
21:53:35.234,0.0071,0.0044,9.797300339,-0.0196,0.0109,0.0003
21:53:35.265,-0.0019,0.040899999,9.86190033,0.0491,-0.057799999,0.0308
21:53:35.298,0.0035,0.0038,9.825400352,-0.0348,0.0109,0.0155
21:53:35.337,0.0155,0.002,9.810500145,-0.088299997,-0.057799999,-0.045499999
21:53:35.366,0.0119,-0.0123,9.805100441,0.041499998,0.048999999,0.038400002
21:53:35.398,-0.0264,-0.0087,9.827799797,-0.0119,-0.034899998,0.091899998
21:53:35.434,-0.0067,-0.001,9.83619976,0.0186,-0.0044,0.0232
21:53:35.468,0.0149,0.022399999,9.848799706,0.011,-0.0273,0.0308
21:53:35.500,-0.0019,-0.0099,9.799699783,-0.072999999,-0.0502,0.0537
21:53:35.532,-0.0019,-0.0064,9.763199806,-0.065399997,0.033799998,0.0003
21:53:35.564,-0.0025,-0.0153,9.80150032,0.064400002,0.0261,0.046100002
21:53:35.595,0.0077,0.0014,9.772800446,-0.0272,-0.0197,-0.022600001
21:53:35.634,0.0023,0.0164,9.83920002,0.102600001,-0.096000001,0.0308
21:53:35.662,0.0035,0.008,9.809300423,-0.0043,0.064300001,-0.030300001
21:53:35.695,-0.0294,-0.0087,9.807499886,-0.057700001,0.056699999,-0.098999999
21:53:35.729,0.0017,-0.0207,9.789500237,-0.0272,0.048999999,0.0003
21:53:35.761,0.021500001,-0.0285,9.810500145,0.011,-0.042599998,-0.030300001
21:53:35.794,0.0065,0.028999999,9.826600075,0.0186,0.0109,0.038400002
21:53:35.839,-0.0438,-0.001,9.857099533,-0.0425,0.0414,-0.053199999
21:53:35.861,-0.0049,0.014,9.766200066,-0.1417,-0.034899998,0.038400002
21:53:35.894,0.022700001,-0.0117,9.741600037,0.102600001,0.0109,-0.015
21:53:35.927,-0.0294,-0.0273,9.850000381,0.0568,-0.0273,0.0079
21:53:35.958,-0.0462,0.0026,9.815799713,0.0339,0.0032,0.0537
21:53:35.993,0.020300001,0.0014,9.817000389,0.071999997,-0.057799999,-0.037900001
21:53:36.026,0.0221,-0.004,9.763799667,-0.0348,0.056699999,-0.015
21:53:36.057,-0.0228,-0.020099999,9.828399658,0.0339,0.110100001,-0.037900001
21:53:36.099,-0.0127,-0.0117,9.781100273,0.0491,0.056699999,-0.015
21:53:36.124,0.0101,-0.0165,9.772199631,-0.088299997,-0.0044,0.068999998
21:53:36.157,-0.0079,0.0337,9.80150032,0.094899997,-0.034899998,-0.0074
21:53:36.192,-0.016799999,0.014,9.824799538,-0.0425,0.117700003,-0.015
21:53:36.225,0.0005,0.0068,9.804499626,0.0568,-0.034899998,0.046100002
21:53:36.259,-0.0043,-0.001,9.806900024,0.0186,-0.0044,0.0308
21:53:36.290,-0.0097,-0.0058,9.794300079,-0.0043,0.0109,-0.0074
21:53:36.331,-0.0007,0.021199999,9.818799973,0.0186,0.0109,0.0537
21:53:36.364,0.0005,-0.0016,9.782899857,0.0491,0.056699999,-0.015
21:53:36.398,0.0119,-0.0099,9.809300423,-0.050099999,0.0032,0.061299998
21:53:36.431,-0.017999999,-0.0099,9.811699867,0.117799997,0.033799998,0.084200002
21:53:36.463,-0.0198,0.033100002,9.802100182,-0.057700001,-0.103600003,-0.045499999
21:53:36.488,0.026799999,-0.0004,9.811100006,0.041499998,-0.034899998,-0.0074
21:53:36.520,0.0251,-0.017100001,9.822999954,-0.0196,0.140599996,-0.045499999
21:53:36.555,-0.027000001,-0.0111,9.795499802,-0.050099999,0.033799998,-0.037900001
21:53:36.586,0.0077,-0.0141,9.714099884,-0.172199994,-0.0502,0.0079
21:53:36.620,0.0083,0.0128,9.936200142,0.117799997,0.064300001,0.046100002
21:53:36.653,-0.0276,-0.037500001,9.850600243,-0.118799999,0.0261,0.061299998
21:53:36.685,-0.021,0.039099999,9.864299774,-0.0196,0.033799998,0.068999998
21:53:36.717,0.0077,-0.022500001,9.792499542,-0.0119,-0.088399999,0.0308
21:53:36.750,0.0167,-0.018300001,9.765000343,-0.065399997,0.087200001,0.122400001
21:53:36.785,-0.0007,0.044500001,9.857099533,0.0568,0.056699999,-0.0074
21:53:36.819,0.0107,0.0008,9.796099663,0.0033,-0.034899998,-0.022600001
21:53:36.849,0.0089,0.0104,9.784700394,-0.157000005,0.079599999,-0.022600001
21:53:36.892,-0.0103,-0.0255,9.803299904,0.0568,0.033799998,0.0003
21:53:36.922,-0.0007,0.0122,9.809900284,0.071999997,-0.0197,-0.022600001
21:53:36.956,0.021500001,-0.0123,9.809900284,0.0262,0.0032,-0.022600001
21:53:36.990,0.017899999,0.0104,9.7979002,0.087300003,0.0109,0.0308
21:53:37.014,-0.0145,-0.0034,9.813500404,0.0339,0.0185,-0.0074
21:53:37.051,0.0071,0.0002,9.811699867,-0.0196,-0.012,0.038400002
21:53:37.119,0.0197,-0.039900001,9.798500061,-0.050099999,-0.0044,-0.015
21:53:37.134,0.0053,0.034899998,9.826600075,0.087300003,-0.0197,-0.060800001
21:53:37.148,0.0131,0.017000001,9.806900024,0.0033,0.064300001,-0.030300001
21:53:37.186,0.0095,0.0008,9.799099922,-0.0119,0.0414,-0.068400003
21:53:37.218,0.0089,-0.0153,9.758999825,0.110200003,-0.0502,0.0155
21:53:37.251,-0.023399999,-0.0273,9.80150032,-0.0425,0.0109,-0.030300001
21:53:37.282,0.0005,0.0008,9.802700043,0.0568,-0.042599998,0.084200002
21:53:37.317,0.030400001,-0.0117,9.784700394,0.0491,-0.042599998,0.0003
21:53:37.344,-0.0139,0.0032,9.799099922,-0.0043,0.048999999,-0.015
21:53:37.380,-0.0115,0.0092,9.806300163,-0.0425,0.0032,0.0155
21:53:37.410,0.0251,-0.017100001,9.809900284,-0.0043,-0.0502,0.0232
21:53:37.444,-0.0037,-0.0052,9.788900375,-0.0043,0.0414,0.0079
21:53:37.477,-0.0067,-0.018300001,9.826000214,0.102600001,0.048999999,-0.0074
21:53:37.527,0.020300001,0.0032,9.83920002,-0.050099999,-0.042599998,-0.030300001
21:53:37.560,0.0239,0.0032,9.781700134,0.011,0.117700003,0.0155
21:53:37.582,-0.0001,-0.0016,9.850600243,0.011,0.0261,-0.0074
21:53:37.611,-0.0198,-0.0219,9.803899765,-0.0425,0.0261,0.0155
21:53:37.648,0.0095,-0.023700001,9.807499886,0.0033,0.0414,-0.053199999
21:53:37.679,-0.0162,-0.0123,9.803899765,0.071999997,0.0109,0.038400002
21:53:37.710,0.0095,-0.0082,9.831399918,-0.0043,-0.012,0.0232
21:53:37.742,0.0209,0.0086,9.818200111,0.011,-0.111299999,0.0079
21:53:37.773,-0.0031,0.0008,9.802100182,0.087300003,0.071900003,0.0079
21:53:37.813,-0.0079,-0.0099,9.829600334,0.064400002,0.048999999,0.0232
21:53:37.841,0.0125,-0.0046,9.79129982,0.0262,-0.012,-0.037900001
21:53:37.877,0.0113,-0.0028,9.804499626,0.011,0.0185,0.0155
21:53:37.906,-0.0115,0.0128,9.811699867,-0.0196,0.033799998,-0.068400003
21:53:37.939,-0.0049,0.0122,9.830200195,-0.0272,0.0261,-0.060800001
21:53:37.978,0.0089,-0.0058,9.812299728,-0.0348,0.0109,-0.022600001
21:53:38.009,0.0047,0.0038,9.802100182,-0.0348,0.0261,0.0308
21:53:38.041,-0.0276,0.0116,9.812299728,0.087300003,0.0414,-0.053199999
21:53:38.076,0.0047,0.0146,9.803299904,0.0033,0.0109,-0.030300001
21:53:38.107,0.019099999,0.0086,9.829600334,-0.0196,0.0261,-0.030300001
21:53:38.137,-0.0037,0.0062,9.789500237,-0.0348,0.0261,-0.015
21:53:38.171,-0.020400001,-0.023700001,9.790100098,-0.095899999,-0.012,-0.1219
21:53:38.204,0.038199998,-0.0165,9.814599991,-0.0119,0.033799998,0.038400002
21:53:38.240,-0.0097,-0.0034,9.817000389,0.087300003,-0.012,0.0232
21:53:38.268,-0.0073,0.002,9.850600243,0.0491,0.033799998,0.0079
21:53:38.309,0.0143,0.0164,9.794300079,-0.0425,0.0261,-0.083700001
21:53:38.336,-0.0037,-0.0034,9.822999954,0.0186,0.056699999,-0.030300001
21:53:38.370,-0.0079,-0.031500001,9.811699867,-0.0119,-0.034899998,-0.022600001
21:53:38.403,-0.0097,-0.0016,9.807499886,0.087300003,-0.073100001,-0.037900001
21:53:38.434,0.0065,0.0038,9.808699608,-0.0196,-0.012,0.0079
21:53:38.469,0.021500001,-0.0099,9.809300423,-0.0043,0.0032,-0.015
21:53:38.500,-0.0061,0.0056,9.817000389,-0.0425,0.056699999,-0.015
21:53:38.541,0.0041,-0.0285,9.800900459,-0.0272,0.0261,-0.015
21:53:38.565,0.019099999,-0.0273,9.794300079,-0.0425,-0.0044,-0.045499999
21:53:38.607,-0.0097,0.022399999,9.790699959,0.0491,0.079599999,0.038400002
21:53:38.636,-0.0073,0.032000002,9.808699608,-0.080600001,-0.057799999,-0.1219
21:53:38.664,0.0011,-0.0165,9.805100441,-0.072999999,0.0109,-0.083700001
21:53:38.698,0.0089,-0.0309,9.818799973,0.0186,0.064300001,-0.045499999
21:53:38.735,-0.025800001,-0.0016,9.808099747,0.0262,-0.0273,0.0079
21:53:38.765,-0.0031,0.0146,9.805700302,0.0262,-0.065499999,-0.053199999
21:53:38.799,0.0143,-0.017100001,9.796699524,-0.103500001,0.056699999,-0.037900001
21:53:38.836,-0.0049,-0.0105,9.760199547,0.0186,0.0032,0.0079
21:53:38.864,-0.0115,-0.027899999,9.784700394,-0.118799999,0.0109,0.038400002
21:53:38.898,-0.0109,0.0134,9.809300423,0.011,0.0414,0.0079
21:53:38.929,0.0137,0.021199999,9.853599548,0.087300003,-0.042599998,0.0537
21:53:38.961,0.0113,-0.0016,9.821800232,-0.111199997,0.0185,-0.114200003
21:53:38.998,-0.0061,-0.0141,9.787699699,-0.080600001,-0.012,0.0003
21:53:39.027,-0.0013,-0.0177,9.799699783,0.0033,0.0032,0.0308
21:53:39.061,0.020300001,-0.034499999,9.784700394,-0.088299997,0.0109,0.114799999
21:53:39.094,-0.0007,0.0092,9.821800232,0.0491,0.0414,0.0308
21:53:39.130,0.0035,0.0038,9.816399574,0.094899997,0.087200001,-0.0074
21:53:39.160,-0.0085,0.008,9.813500404,-0.134100005,0.033799998,-0.114200003
21:53:39.192,0.0023,-0.0117,9.803899765,-0.065399997,-0.012,-0.037900001
21:53:39.243,0.0083,0.014,9.827199936,0.079700001,-0.0044,-0.053199999
21:53:39.258,-0.0013,-0.0058,9.788299561,-0.0196,0.048999999,0.0308
21:53:39.291,-0.0013,0.0044,9.806900024,-0.050099999,0.064300001,0.0155
21:53:39.325,0.0017,-0.0099,9.792499542,-0.0043,0.0032,-0.015
21:53:39.357,-0.0073,-0.0189,9.792499542,0.0033,0.0109,-0.045499999
21:53:39.392,0.0011,0.0032,9.814599991,0.0491,0.033799998,-0.106600001
21:53:39.425,-0.0079,0.0098,9.818799973,0.087300003,-0.0197,-0.0074
21:53:39.456,0.0101,0.0134,9.806300163,-0.050099999,0.0185,-0.083700001
21:53:39.490,-0.0085,0.0146,9.824799538,0.064400002,-0.0044,0.0003
21:53:39.524,0.0023,-0.036899999,9.818200111,-0.103500001,-0.0197,-0.030300001
21:53:39.555,0.0149,0.0086,9.825400352,-0.095899999,0.087200001,-0.015
21:53:39.590,0.0077,0.0026,9.815199852,0.064400002,0.033799998,-0.0074
21:53:39.629,-0.0198,0.017000001,9.81289959,-0.0348,0.033799998,0.068999998
21:53:39.654,0.0071,0.0206,9.820599556,-0.0272,0.0032,-0.037900001
21:53:39.687,0.0107,-0.0082,9.814599991,0.0262,-0.0197,-0.1219
21:53:39.722,-0.0085,0.005,9.830200195,-0.103500001,0.0109,-0.1219
21:53:39.761,0.0185,-0.0034,9.796699524,-0.0425,0.064300001,-0.091300003
21:53:39.787,0.028000001,0.0176,9.809300423,0.0491,0.0032,-0.053199999
21:53:39.820,-0.0049,0.0014,9.856499672,-0.0043,0.033799998,-0.022600001
21:53:39.857,-0.0001,0.0074,9.809900284,-0.0348,-0.034899998,-0.037900001
21:53:39.885,0.0113,-0.0135,9.825400352,0.011,-0.073100001,-0.053199999
21:53:39.923,-0.0073,-0.0273,9.81760025,-0.0043,0.0185,-0.083700001
21:53:39.951,-0.0073,0.0164,9.808699608,-0.0196,-0.065499999,-0.022600001
21:53:39.990,0.0274,-0.0004,9.819999695,-0.0119,-0.065499999,-0.015
21:53:40.021,-0.0121,-0.023700001,9.829600334,-0.065399997,0.056699999,-0.030300001
21:53:40.080,0.0173,-0.0099,9.786499977,0.0339,0.110100001,-0.045499999
21:53:40.096,0.0083,-0.017100001,9.816399574,0.0339,-0.096000001,-0.060800001
21:53:40.119,0.0173,-0.0285,9.77630043,0.0033,0.079599999,-0.030300001
21:53:40.150,0.043000001,0.017000001,9.768600464,0.041499998,0.0414,-0.083700001
21:53:40.185,-0.031199999,-0.0093,9.824799538,-0.0272,0.0032,-0.076099999
21:53:40.223,-0.0007,-0.0147,9.802100182,-0.111199997,-0.034899998,-0.091300003
21:53:40.251,-0.0037,-0.023700001,9.806900024,0.0339,0.033799998,-0.037900001
21:53:40.287,-0.0061,0.017000001,9.79129982,0.064400002,-0.0197,0.0003
21:53:40.315,0.026799999,0.023,9.785300255,0.071999997,0.0032,0.0232
21:53:40.351,0.0274,-0.0022,9.81760025,-0.0272,-0.0044,-0.053199999
21:53:40.381,-0.031800002,-0.0111,9.821800232,-0.118799999,0.064300001,0.084200002
21:53:40.414,-0.0043,0.0038,9.799099922,0.0568,-0.0044,0.061299998
21:53:40.455,0.0251,-0.026699999,9.814100266,0.0491,-0.012,0.061299998
21:53:40.481,-0.0061,0.008,9.806900024,-0.0272,0.033799998,-0.083700001
21:53:40.513,0.0005,0.023,9.796699524,0.0339,-0.0044,-0.015
21:53:40.548,0.0095,-0.0135,9.804499626,0.0568,-0.034899998,0.0079
21:53:40.580,0.0125,-0.0147,9.83259964,-0.057700001,0.0414,0.0003
21:53:40.614,-0.037799999,-0.0189,9.839799881,0.0339,0.0109,0.0079
21:53:40.650,0.0101,-0.0082,9.79129982,-0.0043,-0.034899998,-0.098999999
21:53:40.682,0.0059,0.008,9.79489994,0.0339,0.0109,0.0766
21:53:40.711,-0.025800001,0.0134,9.793700218,0.0033,0.0414,0.0995
21:53:40.748,-0.0186,0.008,9.823599815,-0.088299997,0.0261,-0.037900001
21:53:40.779,0.0017,-0.021299999,9.778699875,0.133100003,-0.0273,-0.0074
21:53:40.813,0.0125,-0.0231,9.80150032,-0.0043,0.0109,-0.037900001
21:53:40.842,-0.0049,-0.0076,9.817000389,0.0339,0.064300001,0.0003
21:53:40.877,0.0077,0.0026,9.821800232,0.011,-0.042599998,0.0003
21:53:40.910,-0.0151,0.0068,9.794300079,0.0033,0.0414,0.046100002
21:53:40.953,-0.0097,-0.0147,9.818799973,0.071999997,0.094800003,-0.045499999
21:53:40.974,-0.0097,-0.0093,9.802700043,-0.088299997,0.0032,0.0766
21:53:41.007,0.0065,0.008,9.806300163,0.0186,-0.0197,-0.015
21:53:41.041,0.0041,0.023600001,9.790100098,0.0186,0.0185,-0.022600001
21:53:41.076,-0.0055,0.021199999,9.814599991,0.0186,0.0185,-0.098999999
21:53:41.108,-0.038400002,-0.0034,9.796699524,0.011,0.071900003,-0.060800001
21:53:41.139,0.0209,0.0044,9.785900116,-0.0425,-0.0273,-0.037900001
21:53:41.178,0.0041,0.0164,9.784700394,-0.0043,-0.012,0.0766
21:53:41.207,0.0209,0.0308,9.805100441,0.102600001,-0.042599998,0.0079
21:53:41.245,0.043000001,-0.0165,9.819399834,-0.149299994,0.071900003,0.0537
21:53:41.275,0.0011,0.008,9.811100006,0.110200003,0.094800003,-0.022600001
21:53:41.304,-0.0294,0.0044,9.79489994,0.133100003,-0.012,-0.037900001
21:53:41.337,-0.0073,-0.0093,9.790100098,0.0339,0.0109,-0.053199999
21:53:41.372,0.020300001,0.0308,9.856499672,0.0262,-0.0502,0.046100002
21:53:41.403,0.0017,0.069700003,9.829000473,0.094899997,-0.0273,0.0995
21:53:41.436,-0.0133,-0.045299999,9.79129982,-0.118799999,0.0414,-0.022600001
21:53:41.470,0.020300001,0.027799999,9.806900024,0.087300003,0.0185,-0.053199999
21:53:41.511,0.0143,0.014,9.819399834,0.209399998,0.0414,-0.022600001
21:53:41.535,-0.0025,0.033100002,9.79489994,-0.248600006,-0.0197,0.0003
21:53:41.570,0.028000001,0.0104,9.777500153,-0.0043,-0.012,-0.030300001
21:53:41.602,0.0035,-0.021299999,9.86190033,-0.0425,0.033799998,0.0155
21:53:41.637,-0.031800002,-0.023700001,9.757200241,-0.134100005,-0.096000001,0.038400002
21:53:41.671,0.0484,0.015799999,9.805700302,0.0568,-0.126499996,-0.022600001
21:53:41.700,0.028000001,-0.0261,9.843999863,-0.126399994,-0.0502,0.0079
21:53:41.736,-0.034200002,-0.018300001,9.825400352,-0.240899995,-0.088399999,0.0537
21:53:41.767,0.030999999,-0.0046,9.806900024,0.071999997,-0.111299999,-0.060800001
21:53:41.805,0.0119,-0.043499999,9.757200241,-0.095899999,-0.057799999,0.068999998
21:53:41.836,-0.0198,0.02,9.819399834,-0.088299997,0.033799998,0.091899998
21:53:41.867,0.0047,0.032000002,9.814599991,0.110200003,-0.111299999,0.0308
21:53:41.902,0.037599999,-0.032099999,9.822400093,-0.1875,-0.096000001,-0.037900001
21:53:41.939,-0.0049,0.0122,9.774499893,0.0186,0.0261,0.0537
21:53:41.966,-0.0097,-0.0082,9.751799583,0.148399994,-0.080700003,-0.0074
21:53:42.010,0.0221,-0.0093,9.772199631,-0.0425,-0.057799999,-0.053199999
21:53:42.030,0.030999999,0.0206,9.842200279,0.125499994,-0.012,-0.037900001
21:53:42.064,-0.029999999,-0.032699998,9.849399567,-0.0425,-0.0502,-0.037900001
21:53:42.097,0.035799999,0.0266,9.822400093,-0.0043,-0.042599998,-0.129500002
21:53:42.129,0.033399999,-0.0219,9.787099838,0.0568,0.079599999,0.0155
21:53:42.164,-0.0288,-0.0004,9.799699783,-0.1417,0.133000001,0.0003
21:53:42.198,0.0352,0.0242,9.783499718,0.133100003,-0.0044,-0.076099999
21:53:42.233,0.0167,-0.046500001,9.767399788,-0.072999999,0.056699999,0.068999998
21:53:42.263,-0.0121,0.0152,9.805100441,-0.057700001,0.133000001,0.0079
21:53:42.297,0.030999999,0.0361,9.843999863,0.0491,-0.0273,-0.083700001
21:53:42.327,0.035799999,-0.001,9.806900024,-0.103500001,0.0261,-0.015
21:53:42.372,-0.0007,0.0104,9.780500412,-0.0043,0.056699999,0.0003
21:53:42.397,-0.0139,-0.0082,9.826600075,0.0491,-0.042599998,0.046100002
21:53:42.426,0.034000002,-0.015900001,9.788900375,-0.0425,0.079599999,0.038400002
21:53:42.459,0.0143,0.0128,9.826000214,-0.0272,0.0109,0.0079
21:53:42.493,-0.0007,-0.0058,9.81760025,-0.050099999,-0.0197,0.0308
21:53:42.536,0.030999999,-0.0297,9.817000389,-0.057700001,0.033799998,-0.037900001
21:53:42.560,0.016100001,-0.0207,9.755999565,-0.0272,0.0261,0.0079
21:53:42.592,-0.029999999,-0.032699998,9.826600075,0.0339,-0.012,0.038400002
21:53:42.625,0.038199998,0.0038,9.779299736,0.064400002,-0.073100001,0.084200002
21:53:42.676,0.0149,0.0337,9.782299995,0.0339,0.079599999,0.038400002
21:53:42.695,0.0095,-0.0099,9.805700302,-0.088299997,-0.0273,0.061299998
21:53:42.723,0.0065,-0.0022,9.770400047,-0.0196,0.079599999,-0.037900001
21:53:42.758,0.0173,-0.039900001,9.799699783,0.0568,-0.012,0.068999998
21:53:42.806,0.0029,-0.0189,9.778699875,-0.050099999,0.0109,-0.091300003
21:53:42.825,0.0221,0.046300001,9.826600075,0.087300003,0.0414,-0.022600001
21:53:42.857,0.0221,-0.001,9.794300079,-0.050099999,0.079599999,0.038400002
21:53:42.894,0.0065,-0.0177,9.819399834,-0.095899999,0.0414,-0.114200003
21:53:42.923,0.0101,-0.0135,9.772199631,0.011,-0.0044,-0.068400003
21:53:42.958,0.0221,0.005,9.781700134,0.011,0.0261,0.0079
21:53:42.989,0.0107,0.027799999,9.819999695,0.041499998,0.0185,-0.045499999
21:53:43.021,0.0095,0.0122,9.819399834,0.0568,-0.0044,0.0766
21:53:43.056,-0.0067,0.0062,9.81760025,-0.057700001,0.0261,0.084200002
21:53:43.089,0.024499999,-0.0447,9.818200111,0.0186,0.0185,0.0232
21:53:43.121,-0.0031,-0.044100001,9.791899681,0.102600001,0.033799998,0.0995
21:53:43.165,0.0053,0.0044,9.833200455,0.0339,-0.088399999,0.046100002
21:53:43.186,0.030400001,0.0385,9.819399834,-0.072999999,-0.080700003,0.0232
21:53:43.227,0.0113,0.0098,9.797300339,-0.057700001,0.0032,-0.015
21:53:43.255,0.0053,-0.036899999,9.831999779,-0.095899999,-0.0197,-0.060800001
21:53:43.284,-0.0073,-0.0093,9.811699867,0.0262,-0.057799999,-0.022600001
21:53:43.327,0.0095,-0.0129,9.815799713,0.011,-0.080700003,-0.030300001
21:53:43.351,0.020300001,0.0062,9.793700218,-0.0119,-0.042599998,0.061299998
21:53:43.384,0.019099999,0.023600001,9.79489994,-0.149299994,-0.0197,0.0079
21:53:43.423,0.0095,-0.001,9.777500153,0.071999997,-0.0273,0.0155
21:53:43.480,0.024499999,0.076800004,9.803899765,0.316300005,-0.126499996,0.107100002
21:53:43.497,0.0149,-0.059599999,9.806300163,0.178900003,-0.088399999,0.0308
21:53:43.521,-0.0139,0.005,9.816399574,0.041499998,0.0032,-0.083700001
21:53:43.548,0.026799999,-0.030300001,9.809300423,0.262899995,0.0414,-0.030300001
21:53:43.583,0.0286,-0.078199998,9.795499802,-0.240899995,0.163499996,0.0079
21:53:43.615,0.0035,0.158199996,9.809900284,0.247600004,-0.0273,-0.015
21:53:43.647,0.0221,0.066699997,9.810500145,-0.0196,-0.057799999,0.137700006
21:53:43.687,0.022700001,-0.060199998,9.763799667,-0.355500013,0.0261,0.046100002
21:53:43.713,-0.016799999,-0.077,9.841600418,0.011,0.0261,-0.1219
21:53:43.748,-0.045000002,-0.089000002,9.814599991,0.0568,-0.0502,0.0079
21:53:43.784,-0.0079,-0.0255,9.806300163,0.071999997,0.0032,-0.0074
21:53:43.813,0.034600001,0.086999997,9.812299728,0.323900014,-0.0197,-0.076099999
21:53:43.847,0.036400001,0.055300001,9.821800232,0.0186,0.0185,-0.0074
21:53:43.879,-0.0103,-0.0656,9.797300339,-0.2333,0.0109,-0.037900001
21:53:43.912,-0.049800001,-0.077,9.806900024,0.0262,0.0109,-0.022600001
21:53:43.944,0.0113,0.0032,9.819999695,0.224700004,-0.012,-0.0074
21:53:43.979,0.0298,0.051100001,9.824799538,0.0568,0.087200001,-0.015
21:53:44.010,0.0011,0.075599998,9.820599556,0.064400002,-0.034899998,0.0003
21:53:44.044,-0.0091,-0.0189,9.830800056,-0.095899999,-0.065499999,-0.022600001
21:53:44.076,-0.0007,-0.084799998,9.777500153,-0.103500001,0.056699999,0.0079
21:53:44.110,0.0125,-0.048300002,9.81289959,0.224700004,-0.0044,-0.037900001
21:53:44.152,-0.0109,0.0008,9.816399574,0.087300003,0.102499999,-0.060800001
21:53:44.176,0.037,0.086999997,9.760199547,-0.088299997,0.0414,0.0308
21:53:44.208,-0.015699999,-0.036899999,9.710499763,0.178900003,-0.118900001,-0.015
21:53:44.252,-0.0145,-0.075199999,9.731499672,-0.202800006,0.056699999,-0.083700001
21:53:44.279,0.0089,0.023600001,9.796099663,-0.0043,-0.0273,0.0537
21:53:44.314,0.0131,-0.0082,9.819999695,0.430799991,-0.073100001,-0.015
21:53:44.362,0.0185,0.0427,9.805700302,-0.2104,0.079599999,-0.045499999
21:53:44.375,0.0137,0.0559,9.83259964,-0.0425,-0.034899998,-0.091300003
21:53:44.407,-0.0127,-0.114699997,9.769200325,-0.118799999,-0.0502,0.0003
21:53:44.439,-0.0133,-0.0255,9.802700043,-0.0043,-0.034899998,-0.037900001
21:53:44.482,0.026799999,-0.0117,9.793700218,0.194199994,-0.012,0.0155
21:53:44.505,0.022700001,0.015799999,9.812299728,-0.050099999,0.079599999,0.107100002
21:53:44.544,0.0107,0.0337,9.851200104,0.0186,0.087200001,0.061299998
21:53:44.571,0.016100001,-0.041099999,9.779899597,-0.088299997,0.056699999,0.0232
21:53:44.604,-0.0091,-0.080600001,9.793100357,0.0491,0.110100001,-0.030300001
21:53:44.639,-0.0085,0.0385,9.788299561,0.163599998,0.0414,0.046100002
21:53:44.670,0.036400001,0.059500001,9.803299904,0.117799997,-0.042599998,0.0537
21:53:44.703,0.0137,-0.007,9.846400261,-0.256199986,0.102499999,-0.030300001
21:53:44.737,-0.0049,-0.0207,9.868499756,-0.0119,0.0261,-0.037900001
21:53:44.772,-0.0079,-0.033300001,9.831999779,0.071999997,-0.0197,0.038400002
21:53:44.806,-0.0133,0.0014,9.790100098,0.071999997,0.0414,0.0537
21:53:44.837,0.024499999,0.014,9.815799713,-0.0043,-0.012,-0.045499999
21:53:44.869,0.033399999,0.030200001,9.819399834,0.0568,0.064300001,0.046100002
21:53:44.901,-0.024599999,0.052900001,9.795499802,-0.0348,0.071900003,0.0003
21:53:44.934,-0.0037,-0.024900001,9.813500404,-0.0119,-0.0273,0.038400002
21:53:44.968,0.034600001,-0.060199998,9.796099663,-0.0348,0.0185,-0.015
21:53:45.001,-0.0264,0.0403,9.813500404,0.071999997,-0.012,0.0079
21:53:45.039,0.0131,0.036699999,9.814100266,0.079700001,-0.0502,0.0308
21:53:45.067,0.053199999,-0.0087,9.822400093,-0.065399997,0.0185,-0.091300003
21:53:45.099,0.0017,-0.0285,9.763799667,-0.072999999,0.102499999,0.0079
21:53:45.141,-0.037799999,-0.099699996,9.807499886,0.0568,0.110100001,-0.060800001
21:53:45.170,0.0023,-0.0273,9.748200417,-0.118799999,0.064300001,0.0155
21:53:45.202,0.038800001,0.0559,9.720100403,0.354499996,-0.118900001,0.0079
21:53:45.244,0.020300001,-0.0117,9.739199638,-0.157000005,-0.080700003,0.0155
21:53:45.269,0.037599999,0.0164,9.808099747,-0.256199986,0.048999999,-0.083700001
21:53:45.306,-0.0055,-0.084799998,9.77630043,0.178900003,-0.0044,-0.022600001
21:53:45.330,-0.019200001,-0.064400002,9.7979002,-0.126399994,0.079599999,-0.030300001
21:53:45.366,0.0113,0.066100001,9.856499672,0.117799997,-0.096000001,0.061299998
21:53:45.397,0.0352,0.033100002,9.814599991,0.041499998,0.110100001,-0.037900001
21:53:45.429,0.0077,0.015799999,9.821200371,-0.195099995,0.087200001,-0.106600001
21:53:45.464,0.0053,-0.034499999,9.761400223,0.0033,-0.034899998,0.0079
21:53:45.499,0.0065,-0.043499999,9.831399918,-0.057700001,0.079599999,-0.0074
21:53:45.528,0.0113,-0.0004,9.821800232,0.0033,-0.012,0.0079
21:53:45.565,0.0298,0.0152,9.802700043,0.117799997,-0.065499999,0.0232
21:53:45.594,0.020300001,0.032000002,9.818200111,-0.157000005,0.071900003,-0.076099999
21:53:45.633,0.0011,0.0038,9.797300339,-0.149299994,-0.0197,0.0003
21:53:45.660,-0.0019,-0.050000001,9.802100182,-0.0425,-0.034899998,-0.129500002
21:53:45.695,0.0131,-0.064400002,9.778100014,-0.065399997,0.0414,0.0766
21:53:45.728,-0.0049,0.0361,9.811699867,0.087300003,0.048999999,0.0003
21:53:45.759,0.0221,0.032000002,9.805700302,0.0339,-0.080700003,-0.015
21:53:45.796,0.0137,-0.0165,9.797300339,-0.217999995,0.087200001,0.145300001
21:53:45.825,-0.017999999,-0.066200003,9.775699615,0.0186,0.033799998,-0.022600001
21:53:45.858,-0.040800001,-0.046500001,9.796099663,-0.065399997,-0.012,-0.037900001
21:53:45.891,0.0011,-0.0129,9.788299561,0.0339,-0.0197,0.038400002
21:53:45.932,0.028000001,0.0164,9.811100006,0.125499994,-0.065499999,0.061299998
21:53:45.957,0.0119,0.057700001,9.792499542,0.0339,0.117700003,0.0308
21:53:45.997,-0.0001,-0.027899999,9.781100273,-0.157000005,0.071900003,-0.022600001
21:53:46.029,-0.0061,-0.066200003,9.793700218,-0.072999999,-0.034899998,0.0308
21:53:46.056,0.0017,-0.023700001,9.813500404,0.087300003,0.033799998,-0.0074
21:53:46.091,0.0209,0.0691,9.796099663,0.0339,0.0109,-0.030300001
21:53:46.125,0.0233,0.0128,9.826600075,0.0186,0.0032,-0.022600001
21:53:46.155,0.0131,-0.0243,9.809300423,-0.111199997,0.071900003,0.0155
21:53:46.191,-0.0073,-0.0231,9.802700043,-0.111199997,0.0185,0.038400002
21:53:46.221,-0.0025,-0.0722,9.831399918,0.071999997,-0.012,0.0155
21:53:46.254,-0.016799999,-0.0099,9.810500145,0.0033,0.033799998,0.0155
21:53:46.291,0.0233,0.0469,9.827799797,0.163599998,0.0109,0.061299998
21:53:46.324,-0.0025,0.0062,9.819399834,-0.111199997,0.033799998,-0.0074
21:53:46.353,0.0107,-0.0243,9.825400352,-0.057700001,-0.012,-0.053199999
21:53:46.388,-0.020400001,-0.071000002,9.803299904,-0.118799999,-0.034899998,0.038400002
21:53:46.419,0.0155,-0.0207,9.778699875,0.102600001,-0.118900001,-0.076099999
21:53:46.454,0.0137,0.0164,9.814599991,0.140699998,-0.0273,0.0232
21:53:46.488,0.0233,0.031399999,9.831399918,0.011,0.0261,-0.030300001
21:53:46.518,0.0185,-0.015900001,9.811100006,-0.179900005,-0.012,-0.030300001
21:53:46.560,-0.0127,-0.056600001,9.797300339,0.0033,0.0109,-0.1219
21:53:46.585,-0.0049,-0.034499999,9.831399918,0.140699998,-0.0502,0.0155
21:53:46.618,-0.0013,0.035500001,9.79129982,0.087300003,-0.034899998,0.0232
21:53:46.661,0.031599998,0.019400001,9.818799973,-0.0425,-0.073100001,0.068999998
21:53:46.683,0.0394,0.008,9.796099663,-0.0348,-0.073100001,-0.106600001
21:53:46.717,-0.0079,-0.0471,9.788299561,-0.202800006,0.033799998,-0.0074
21:53:46.752,-0.0145,-0.037500001,9.827199936,0.0491,0.0109,0.122400001
21:53:46.782,-0.0061,-0.035100002,9.808099747,-0.111199997,0.0261,-0.068400003
21:53:46.815,0.041200001,0.014,9.828399658,0.087300003,0.0109,-0.022600001
21:53:46.848,-0.0127,0.0092,9.803899765,0.064400002,0.033799998,0.038400002
21:53:46.888,-0.0085,-0.030300001,9.831399918,-0.256199986,0.033799998,-0.0074
21:53:46.917,0.019099999,0.0008,9.824199677,0.011,-0.0273,0.0308
21:53:46.949,0.0167,-0.0058,9.808099747,0.125499994,0.056699999,0.0537
21:53:46.981,-0.0019,-0.0231,9.80150032,-0.1417,-0.034899998,-0.030300001
21:53:47.016,0.016100001,0.036699999,9.802100182,-0.080600001,-0.034899998,0.0232
21:53:47.051,0.0251,-0.0129,9.787699699,-0.0425,0.0109,0.137700006
21:53:47.081,0.0047,-0.0297,9.803899765,-0.080600001,-0.0273,-0.015
21:53:47.113,0.0065,0.0026,9.803299904,0.0568,0.0032,0.068999998
21:53:47.149,0.046599999,-0.020099999,9.790699959,0.0262,-0.0273,0.0232
21:53:47.178,-0.0079,0.0062,9.838600159,0.140699998,0.155900002,-0.060800001
21:53:47.213,0.021500001,0.0038,9.831399918,0.0262,0.071900003,-0.037900001
21:53:47.244,0.054400001,-0.027899999,9.753000259,0.0568,0.0414,0.0766
21:53:47.280,-0.0121,0.0152,9.768600464,0.186499998,0.0109,0.046100002
21:53:47.310,-0.053399999,-0.0052,9.915200233,0.0186,0.048999999,-0.053199999
21:53:47.343,0.0119,-0.018300001,9.787699699,-0.103500001,-0.0044,-0.060800001
21:53:47.378,0.066399999,0.054699998,9.731499672,0.270500004,0.117700003,0.0232
21:53:47.412,-0.080300003,-0.035700001,9.881699562,0.0186,0.0109,-0.060800001
21:53:47.443,0.0083,-0.041700002,9.891300201,-0.050099999,0.0032,0.091899998
21:53:47.476,0.047800001,0.035500001,9.729100227,0.064400002,0.056699999,-0.076099999
21:53:47.511,-0.0372,-0.0153,9.901399612,0.140699998,0.0109,0.068999998
21:53:47.541,0.0173,-0.0471,9.831399918,-0.172199994,0.064300001,-0.053199999
21:53:47.577,0.088500001,0.039099999,9.777500153,-0.0043,-0.0044,0.0232
21:53:47.609,-0.0073,-0.018300001,9.824199677,0.094899997,0.0414,0.038400002
21:53:47.642,-0.035399999,0.0068,9.808699608,-0.103500001,0.094800003,-0.098999999
21:54:00.104,-0.0042,0.0427,9.815099716,0.0539,0.032900002,-0.033
21:54:00.131,-0.035300002,-0.042300001,9.794099808,-0.114,-0.0206,-0.040600002
21:54:00.167,0.024,-0.048300002,9.769599915,-0.052900001,-0.051100001,0.0052
21:54:00.209,0.0066,0.034299999,9.809100151,0.115000002,0.0252,0.028100001
21:54:00.231,-0.0251,0.039099999,9.841400146,-0.0071,-0.043499999,0.050999999
21:54:00.263,0.0144,0.0146,9.776800156,-0.121600002,0.055799998,0.058600001
21:54:00.302,0.020400001,-0.0495,9.829400063,0.092100002,0.0176,-0.0101
21:54:00.332,-0.046100002,-0.0207,9.788100243,-0.106399998,0.01,0.043299999
21:54:00.361,-0.0155,0.0116,9.806699753,-0.0148,0.01,0.043299999
21:54:00.394,0.0054,0.018200001,9.821100235,0.0845,0.0023,-0.0025
21:54:00.428,-0.0155,-0.0177,9.812700272,-0.098700002,0.0405,-0.0101
21:54:00.459,-0.0233,-0.0004,9.78219986,0.038699999,0.0023,0.0128
21:54:00.497,-0.0167,-0.0124,9.824700356,-0.0148,-0.0129,0.081500001
21:54:00.526,0.0132,-0.0231,9.795900345,-0.052900001,0.0023,0.096799999
21:54:00.562,0.0036,0.0295,9.803700447,0.0616,0.055799998,0.0128
21:54:00.593,-0.0114,0.002,9.829400063,-0.0148,-0.0129,-0.0788
21:54:00.627,0.006,0.0032,9.78219986,0.0081,0.01,-0.0254
21:54:00.658,0.0048,-0.0028,9.837800026,0.038699999,0.01,0.0052
21:54:00.704,-0.024499999,0.0122,9.793499947,0.038699999,0.01,-0.0788
21:54:00.726,-0.021500001,-0.0219,9.788100243,0.038699999,-0.066399999,-0.040600002
21:54:00.756,-0.0084,0.018200001,9.770799637,0.015799999,-0.028200001,-0.048300002
21:54:00.789,-0.0054,-0.0052,9.825300217,0.015799999,0.086300001,0.050999999
21:54:00.827,0.0078,-0.029100001,9.784600258,-0.022399999,-0.066399999,-0.0177
21:54:00.859,-0.0084,-0.020099999,9.797699928,-0.052900001,-0.035799999,-0.0101
21:54:00.893,-0.022700001,-0.020099999,9.84319973,0.038699999,0.01,-0.0177
21:54:00.921,0.006,-0.0094,9.803700447,-0.029999999,0.0634,-0.0177
21:54:00.966,0.016799999,0.0403,9.809700012,-0.037700001,-0.043499999,0.089100003
21:54:00.987,0.023399999,-0.015900001,9.800700188,0.015799999,0.093900003,0.0052
21:54:01.021,-0.0341,-0.0285,9.807900429,-0.045299999,-0.081600003,0.035700001
21:54:01.058,-0.0143,0.0122,9.804900169,-0.029999999,0.048099998,0.050999999
21:54:01.087,0.0024,0.0128,9.817500114,0.092100002,0.048099998,-0.0101
21:54:01.120,0,0.0146,9.819899559,-0.129299998,0.048099998,0.020400001
21:54:01.156,0.003,0.0032,9.822899818,0.038699999,0.0023,0.028100001
21:54:01.190,-0.0018,-0.037500001,9.797100067,-0.052900001,0.0176,0.028100001
21:54:01.219,-0.0114,0.0086,9.812700272,0.0005,-0.089299999,0.043299999
21:54:01.258,-0.0084,-0.0022,9.829999924,0.137899995,-0.028200001,-0.0177
21:54:01.285,-0.003,0.015799999,9.779800415,-0.0682,-0.0129,0.0052
21:54:01.321,0.0048,0.0146,9.79529953,-0.0071,0.0176,-0.0559
21:54:01.361,-0.0173,0.0062,9.770199776,0.023399999,0.078699999,0.028100001
21:54:01.389,-0.0132,-0.0124,9.781000137,-0.029999999,-0.051100001,0.0128
21:54:01.421,0.0048,0.0002,9.812700272,0.0539,-0.066399999,-0.063500002
21:54:01.450,0.0084,0.015799999,9.788100243,0.0539,-0.066399999,0.081500001
21:54:01.487,-0.026900001,0.0122,9.827599525,-0.022399999,-0.0206,0.058600001
21:54:01.517,-0.0054,-0.0028,9.794099808,0.0081,-0.104500003,-0.033
21:54:01.550,0.003,0.0128,9.797100067,0.0845,0.01,-0.0559
21:54:01.588,-0.006,0.008,9.809100151,-0.0148,0.093900003,-0.0559
21:54:01.622,-0.028100001,0.0128,9.788100243,0.0539,-0.0206,0.0128
21:54:01.652,0.0132,-0.0189,9.794099808,0.0005,0.0252,0.0052
21:54:01.682,-0.0042,0.0056,9.810299873,-0.0071,0.0176,-0.0177
21:54:01.714,-0.009,-0.0124,9.796500206,-0.045299999,0.0405,0.081500001
21:54:01.750,0.0252,0.034899998,9.822299957,0.153200001,0.032900002,0.035700001
21:54:01.794,-0.0012,0.024800001,9.81210041,0.023399999,0.032900002,-0.040600002
21:54:01.814,-0.019099999,-0.026699999,9.803700447,0.046300001,0.01,-0.071199998
21:54:01.847,0.0006,0.002,9.782799721,-0.045299999,0.055799998,0.0052
21:54:01.887,-0.038899999,-0.001,9.804900169,0.069200002,0.109200001,0.0052
21:54:01.913,-0.0114,0.0152,9.807900429,0.038699999,0.01,0.028100001
21:54:01.955,0.0252,0.0188,9.799500465,-0.0071,-0.051100001,-0.0177
21:54:01.978,0.0138,0.0164,9.822899818,-0.029999999,0.0252,-0.0025
21:54:02.012,-0.0072,-0.0022,9.813300133,0.0005,0.0023,0.028100001
21:54:02.049,-0.0167,-0.0261,9.800100327,-0.052900001,-0.0053,-0.048300002
21:54:02.081,-0.0072,-0.0231,9.79529953,0.0081,0.0405,0.066200003
21:54:02.114,0.0096,0.0242,9.806099892,0.0005,0.0176,-0.0025
21:54:02.143,-0.0084,-0.015900001,9.80189991,0.199000001,-0.0053,0.035700001
21:54:02.176,-0.0114,-0.017100001,9.761199951,-0.159799993,0.0634,0.0128
21:54:02.210,0.0036,0.0092,9.807299614,0.1303,0.055799998,0.050999999
21:54:02.244,0,-0.054299999,9.816900253,-0.060600001,-0.035799999,-0.0101
21:54:02.275,-0.003,0.0188,9.785099983,-0.045299999,0.01,-0.086400002
21:54:02.308,0.0036,0.036699999,9.843799591,0.137899995,0.032900002,-0.0254
21:54:02.345,-0.021500001,-0.015900001,9.811499596,-0.114,0.109200001,0.0052
21:54:02.374,-0.0149,0.023,9.803099632,0.023399999,0.0405,0.096799999
21:54:02.407,-0.0102,0.0319,9.828800201,0.1303,-0.0206,-0.0177
21:54:02.442,-0.0143,-0.0231,9.793499947,-0.205599993,-0.035799999,-0.033
21:54:02.479,0.0228,0.022399999,9.785699844,0.0539,0.048099998,0.050999999
21:54:02.510,-0.0108,0.043299999,9.818699837,0.115000002,-0.104500003,0.112000003
21:54:02.541,0,-0.0273,9.819299698,-0.220899999,-0.051100001,0.050999999
21:54:02.575,0.0102,0.0146,9.809100151,0.191300005,0.0023,0.0128
21:54:02.606,-0.0006,-0.0034,9.816900253,0.0081,-0.043499999,-0.0254
21:54:02.638,-0.0132,-0.0207,9.816900253,-0.289600015,0.0176,0.043299999
21:54:02.673,0.024599999,0.037900001,9.824700356,0.267699987,-0.066399999,0.104400001
21:54:02.706,-0.0239,-0.035100002,9.810299873,-0.167400002,0.048099998,0.028100001
21:54:02.742,-0.0317,-0.0082,9.794099808,-0.304800004,-0.0206,-0.040600002
21:54:02.770,-0.0072,0.037300002,9.828800201,0.267699987,-0.0053,0.089100003
21:54:02.805,-0.0096,-0.038699999,9.820500374,-0.083499998,0.109200001,0.020400001
21:54:02.841,-0.0167,0.0206,9.791099548,-0.197999999,0.055799998,0.020400001
21:54:02.871,0.0156,-0.004,9.826999664,0.137899995,0.0023,0.050999999
21:54:02.907,-0.0239,-0.017100001,9.794099808,-0.129299998,-0.0129,0.0052
21:54:02.937,0.039500002,0.0277,9.798299789,-0.029999999,0.032900002,0.089100003
21:54:02.971,0.0042,0.0092,9.788100243,0.069200002,-0.035799999,0.081500001
21:54:03.003,-0.016100001,-0.0112,9.82349968,-0.075800002,-0.0129,-0.0177
21:54:03.035,0.006,-0.0028,9.785699844,0.015799999,0.0405,-0.0025
21:54:03.068,-0.0143,0.017000001,9.797100067,0.015799999,-0.051100001,-0.0025
21:54:03.100,0.0096,0.0104,9.793499947,0.046300001,-0.0053,-0.0254
21:54:03.136,-0.0233,-0.0207,9.804300308,-0.052900001,0.0023,-0.0025
21:54:03.166,-0.039500002,0.0128,9.809700012,-0.083499998,0.0252,0.035700001
21:54:03.201,0.017999999,0.0092,9.797100067,0.038699999,-0.0053,-0.040600002
21:54:03.233,-0.0054,0.0038,9.821700096,-0.098700002,-0.028200001,0.020400001
21:54:03.266,0.0084,0.0385,9.794099808,-0.060600001,-0.112199999,0.028100001
21:54:03.308,0.006,0.005,9.80189991,0.0616,0.048099998,-0.0025
21:54:03.331,-0.031099999,0.0056,9.836600304,0.0005,-0.0129,0.035700001
21:54:03.364,0.0114,-0.0219,9.789299965,-0.0682,0.0023,0.050999999
21:54:03.400,-0.0042,0.0068,9.828800201,0.0616,-0.028200001,0.028100001
21:54:03.433,-0.0197,-0.013,9.82820034,-0.060600001,-0.058699999,0.050999999
21:54:03.463,0.021600001,-0.0147,9.776800156,-0.029999999,-0.0206,0.043299999
21:54:03.497,-0.003,0.015799999,9.833600044,0.046300001,-0.051100001,-0.048300002
21:54:03.532,-0.0102,-0.007,9.791700363,0.0081,0.0176,0.028100001
21:54:03.567,-0.017899999,-0.0165,9.800700188,-0.0148,0.032900002,-0.116999999
21:54:03.603,-0.0066,0.002,9.770799637,0.0005,-0.066399999,0.150199994
21:54:03.628,0.0006,-0.0064,9.7791996,-0.029999999,0.055799998,-0.040600002
21:54:03.664,-0.0197,0.0026,9.76720047,0.030999999,-0.0053,-0.0254
21:54:03.712,-0.0102,-0.0046,9.777999878,0.122599997,0.0252,-0.048300002
21:54:03.738,-0.0012,-0.0405,9.812700272,-0.037700001,-0.043499999,-0.0177
21:54:03.762,-0.012,0.0104,9.832400322,-0.129299998,0.0252,0.066200003
21:54:03.793,0.0066,0.0134,9.79529953,0.229499996,-0.051100001,0.020400001
21:54:03.827,0.0042,0.0116,9.806099892,0.0616,-0.0206,-0.0254
21:54:03.862,-0.0209,0.0164,9.793499947,-0.182699993,0.032900002,-0.0177
21:54:03.897,-0.029899999,-0.0016,9.794699669,0.168400005,-0.104500003,0.0128
21:54:03.926,0.0126,-0.020099999,9.779800415,-0.060600001,0.0176,0.112000003
21:54:03.961,0.023399999,0.0092,9.849200249,0.023399999,-0.043499999,-0.0177
21:54:03.991,-0.0221,0.0242,9.843799591,0.076800004,0.0176,0.043299999
21:54:04.026,-0.0006,-0.0064,9.78219986,-0.098700002,0.0634,0.0052
21:54:04.057,0.0024,0.0128,9.769599915,-0.0682,-0.028200001,-0.0254
21:54:04.090,-0.0167,-0.0028,9.792300224,0.046300001,-0.028200001,-0.033
21:54:04.125,-0.0024,-0.0004,9.775600433,-0.037700001,-0.0129,-0.0177
21:54:04.165,0.0006,0.0002,9.794099808,-0.106399998,0.071000002,0.028100001
21:54:04.189,-0.0138,0.015799999,9.837200165,-0.0148,0.101599999,0.035700001
21:54:04.223,-0.0102,0.0218,9.80189991,-0.037700001,-0.035799999,0.0052
21:54:04.277,0.0012,-0.0028,9.790499687,-0.037700001,-0.043499999,0.035700001
21:54:04.295,-0.0024,-0.0219,9.801300049,0.038699999,-0.058699999,0.058600001
21:54:04.330,0.0048,0.0295,9.749199867,0.0539,-0.043499999,0.0128
21:54:04.358,-0.0143,-0.01,9.813899994,-0.0071,-0.028200001,-0.086400002
21:54:04.413,-0.0018,-0.0177,9.792900085,-0.083499998,0.0634,-0.071199998
21:54:04.426,-0.0305,0.0068,9.816900253,-0.0682,0.0023,0.066200003
21:54:04.453,0.0018,-0.0219,9.80850029,-0.0911,-0.035799999,0.066200003
21:54:04.513,0.0108,-0.0094,9.778599739,-0.029999999,-0.028200001,0.050999999
21:54:04.525,-0.0096,0.0122,9.849200249,0.0845,-0.112199999,0.050999999
21:54:04.556,0.0162,-0.0034,9.810899734,-0.022399999,0.0634,-0.0559
21:54:04.585,0.016799999,-0.0088,9.804300308,0.0845,-0.0053,0.073899999
21:54:04.620,-0.0149,0.0164,9.850399971,0.0616,0.086300001,0.043299999
21:54:04.663,-0.0197,0.0176,9.809700012,-0.052900001,0.0023,0.043299999
21:54:04.690,0.003,-0.027899999,9.764800072,-0.060600001,-0.0206,0.050999999
21:54:04.722,0.0162,-0.0034,9.803099632,0.0005,-0.0053,-0.0025
21:54:04.751,-0.0018,0.0044,9.785699844,0.046300001,-0.0129,0.058600001
21:54:04.784,0.0114,-0.0052,9.790499687,0.0081,0.0176,0.028100001
21:54:04.819,0.0054,0.0008,9.816900253,0.0081,-0.028200001,0.058600001
21:54:04.852,-0.0132,0.0164,9.809700012,0.023399999,0.055799998,0.081500001
21:54:04.882,-0.029899999,0.015799999,9.813300133,-0.029999999,0.0176,0.035700001
21:54:04.927,0.0222,-0.001,9.776800156,-0.075800002,0.032900002,-0.0025
21:54:04.948,0.0024,0.0044,9.821100235,0.0616,0.01,-0.040600002
21:54:04.984,-0.020300001,-0.029100001,9.804900169,0.0539,0.0176,-0.0254
21:54:05.015,-0.021500001,-0.018300001,9.814499855,0.0081,-0.043499999,0.028100001
21:54:05.047,0.0186,-0.0094,9.800100327,-0.0071,-0.0129,0.104400001
21:54:05.082,-0.026900001,0.0098,9.789899826,0.0616,0.0176,0.073899999
21:54:05.115,0.0072,-0.0219,9.803099632,0.0616,-0.0129,0.050999999
21:54:05.159,0.0054,0.0032,9.792900085,-0.0071,0.01,0.058600001
21:54:05.182,0.0096,0.0062,9.805500031,0.0081,-0.0206,-0.033
21:54:05.212,-0.0155,-0.001,9.798899651,0.0005,0.0023,0.073899999
21:54:05.250,0.0006,0.0056,9.764200211,-0.037700001,-0.0053,0.020400001
21:54:05.283,0.0114,0.0128,9.809100151,0.0539,0.01,0.096799999
21:54:05.312,-0.016100001,0.0038,9.788700104,0.023399999,0.0023,0.073899999
21:54:05.348,0.0066,0.033100002,9.810899734,-0.060600001,0.055799998,0.058600001
21:54:05.377,0.0144,-0.0058,9.779800415,0.0005,-0.043499999,0.028100001
21:54:05.420,-0.0096,-0.0142,9.786299706,-0.106399998,0.101599999,-0.147499993
21:54:05.448,-0.029300001,-0.0052,9.816300392,0.122599997,-0.0129,-0.0025
21:54:05.476,0.006,-0.007,9.809100151,0.038699999,-0.043499999,-0.0559
21:54:05.512,-0.006,0.030099999,9.801300049,0.023399999,-0.058699999,0.020400001
21:54:05.544,-0.039500002,0.0086,9.842000008,0.038699999,-0.066399999,-0.0025
21:54:05.575,0.021,-0.020099999,9.813899994,-0.0911,-0.051100001,-0.071199998
21:54:05.610,-0.0006,-0.0034,9.786899567,0.030999999,-0.0206,-0.0254
21:54:05.643,-0.0036,0.085199997,9.805500031,0.191300005,-0.051100001,0.0052
21:54:05.674,0.017999999,0.0403,9.871899605,-0.457500011,0.048099998,0.028100001
21:54:05.711,0.0006,0.0427,9.814499855,0.336400002,-0.0129,0.0052
21:54:05.746,-0.019099999,-0.078199998,9.810299873,-0.213200003,-0.0053,-0.0177
21:54:05.775,-0.022700001,-0.0016,9.831800461,-0.037700001,-0.112199999,0.173099995
21:54:05.807,0.0132,0.051100001,9.827599525,0.290600002,0.01,0.035700001
21:54:05.844,0.025800001,0.052900001,9.819899559,-0.121600002,-0.035799999,-0.0177
21:54:05.873,-0.0197,0.0098,9.793499947,-0.190300003,-0.0053,0.081500001
21:54:05.913,0.0066,-0.081799999,9.772000313,-0.0911,-0.089299999,-0.0177
21:54:05.943,-0.0132,0.005,9.791099548,0.1303,0.01,-0.0559
21:54:05.976,-0.022700001,0.026000001,9.807299614,0.030999999,-0.112199999,-0.0254
21:54:06.009,0.021600001,0.02,9.845600128,0.038699999,-0.035799999,0.0052
21:54:06.037,0.0156,0.0146,9.814499855,-0.052900001,0.109200001,-0.109300002
21:54:06.074,-0.0149,-0.0112,9.802499771,-0.0682,-0.066399999,-0.033
21:54:06.111,-0.0054,-0.064400002,9.75399971,0.092100002,0.032900002,-0.0177
21:54:06.137,0.024,0.0128,9.819899559,-0.0148,-0.051100001,-0.0025
21:54:06.177,-0.0078,0.035500001,9.889900208,0.023399999,0.01,0.096799999
21:54:06.208,-0.0054,0.0014,9.812700272,-0.045299999,0.0023,-0.0788
21:54:06.238,0.009,0.0283,9.806699753,0.099699996,-0.089299999,-0.033
21:54:06.268,-0.006,-0.038699999,9.76720047,0.038699999,0.032900002,-0.0254
21:54:06.320,-0.049699999,0.002,9.822899818,0.038699999,0.01,-0.0101
21:54:06.348,0.0048,0.040899999,9.798899651,0.0845,-0.081600003,0.035700001
21:54:06.387,0.020400001,0.027100001,9.791099548,-0.052900001,-0.0129,-0.033
21:54:06.401,-0.0096,0.021199999,9.825900078,-0.060600001,0.0176,0.0052
21:54:06.433,-0.0012,0.0032,9.780400276,-0.052900001,0.0405,0.050999999
21:54:06.489,-0.020300001,0.0032,9.797699928,-0.037700001,-0.035799999,-0.094099998
21:54:06.503,-0.029899999,-0.020099999,9.826999664,0.099699996,-0.043499999,-0.071199998
21:54:06.534,0.0072,-0.0022,9.794699669,-0.0071,-0.0206,-0.0025
21:54:06.573,0.0084,0.0451,9.825300217,-0.022399999,0.071000002,0.1197
21:54:06.600,-0.0239,-0.0016,9.818699837,-0.0148,0.032900002,0.035700001
21:54:06.631,-0.0084,0.0086,9.831800461,0.015799999,0.048099998,-0.033
21:54:06.667,-0.016100001,0.011,9.831800461,0.0081,0.0023,0.081500001
21:54:06.706,0.0024,0.0026,9.784000397,-0.0148,-0.028200001,0.043299999
21:54:06.732,0.0174,0.041499998,9.794099808,0.0539,0.01,0.043299999
21:54:06.764,-0.006,-0.0165,9.771400452,-0.0911,-0.051100001,-0.063500002
21:54:06.796,0.0186,-0.0118,9.771400452,-0.052900001,0.01,0.0052
21:54:06.833,0.0138,-0.0106,9.815099716,0.092100002,-0.051100001,0.035700001
21:54:06.862,-0.009,0.0068,9.768400192,0.023399999,0.01,0.028100001
21:54:06.904,0.0138,0.026000001,9.818699837,0.069200002,0.01,0.028100001
21:54:06.928,0,-0.035100002,9.799500465,0.0005,-0.051100001,0.073899999
21:54:06.961,-0.0096,-0.018300001,9.799500465,-0.098700002,0.048099998,0.028100001
21:54:06.994,-0.0251,-0.0028,9.836000443,0.099699996,-0.051100001,0.0128
21:54:07.029,0.0078,-0.0124,9.826999664,0.0081,0.0252,0.028100001
21:54:07.061,0.029899999,0.0068,9.854000092,-0.037700001,0.0634,0.081500001
21:54:07.093,0.0042,0.030099999,9.804900169,0.046300001,0.124499999,-0.0025
21:54:07.130,-0.021500001,-0.0046,9.825900078,0.015799999,-0.104500003,0.035700001
21:54:07.165,0.003,-0.0142,9.802499771,-0.106399998,0.109200001,-0.063500002
21:54:07.260,0.009,0.0295,9.806699753,0.122599997,-0.066399999,-0.0254
21:54:07.275,-0.012,-0.051899999,9.782799721,-0.213200003,-0.074000001,-0.0177
21:54:07.290,-0.0078,-0.0309,9.777999878,0.122599997,-0.051100001,0.020400001
21:54:07.307,-0.0126,-0.030300001,9.784000397,0.0539,-0.043499999,-0.0101
21:54:07.326,-0.020300001,-0.030300001,9.845600128,-0.037700001,0.0252,0.020400001
21:54:07.358,-0.0072,0.026000001,9.803099632,-0.0148,-0.074000001,0.050999999
21:54:07.390,0.0317,0.0068,9.785099983,0.046300001,-0.043499999,0.035700001
21:54:07.423,0.006,0.0176,9.816300392,-0.136899993,0.0176,-0.048300002
21:54:07.458,-0.033500001,-0.0147,9.845000267,0.023399999,-0.035799999,0.0128
21:54:07.491,0.009,-0.064999998,9.777400017,-0.029999999,-0.112199999,0.020400001
21:54:07.538,0.028100001,0.0074,9.802499771,0.038699999,0.01,-0.071199998
21:54:07.556,-0.0149,0.0493,9.812700272,0.099699996,0.0405,-0.033
21:54:07.594,0.0012,0.005,9.798299789,-0.114,0.0023,0.020400001
21:54:07.623,0.0042,0.0002,9.798899651,-0.083499998,0.0176,-0.0025
21:54:07.656,0.006,-0.0136,9.789299965,-0.037700001,0.0023,-0.0254
21:54:07.690,-0.025699999,-0.0112,9.80850029,0.0081,-0.051100001,0.043299999
21:54:07.721,0.0198,-0.032699998,9.791700363,0.076800004,0.0023,0.081500001
21:54:07.753,0.0186,0.022399999,9.776800156,0.0539,0.0252,-0.0559
21:54:07.787,-0.0239,0.0307,9.829999924,-0.022399999,0.0405,0.066200003
21:54:07.820,-0.031099999,0.0062,9.751000404,-0.029999999,-0.028200001,0.028100001
21:54:07.852,0.0222,-0.041700002,9.723500252,0.0005,-0.180899993,0.043299999
21:54:07.891,0.0012,-0.001,9.75399971,0.0539,0.0176,-0.071199998
21:54:07.919,-0.0066,0.0403,9.797100067,0.069200002,0.086300001,-0.033
21:54:07.954,0.0114,0.0146,9.833600044,0.0616,-0.0129,0.035700001
21:54:07.984,-0.0048,0.0062,9.80850029,-0.0911,0.0405,0.0128
21:54:08.017,-0.017899999,-0.032099999,9.840200424,0.0616,0.071000002,-0.0254
21:54:08.050,0.0162,-0.0106,9.838999748,-0.0911,0.0252,0.081500001
21:54:08.085,0.0156,0.0218,9.755200386,0.206599995,0.0176,0.0128
21:54:08.119,0.0006,0.0002,9.813899994,0.1303,-0.043499999,0.028100001
21:54:08.154,-0.036499999,-0.050700001,9.862400055,-0.259000003,0.048099998,0.028100001
21:54:08.182,0.027000001,0.054099999,9.815099716,0.191300005,-0.074000001,-0.033
21:54:08.216,-0.060400002,-0.0189,9.895299911,0.137899995,0.032900002,-0.086400002
21:54:08.248,-0.0006,-0.045299999,9.809700012,-0.381199986,-0.0206,0.089100003
21:54:08.288,0.063500002,0.0026,9.774999619,0.168400005,-0.066399999,0.089100003
21:54:08.314,0.0006,-0.0124,9.792900085,-0.0148,0.0634,-0.0177
21:54:08.347,-0.046100002,0.0086,9.798899651,-0.167400002,0.0252,0.058600001
21:54:08.383,0.0222,-0.0147,9.820500374,0.153200001,-0.028200001,-0.0101
21:54:08.415,0.024,-0.069799997,9.793499947,-0.114,-0.028200001,-0.0101
21:54:08.446,-0.072400004,0.0559,9.830599785,0.030999999,0.0405,-0.071199998
21:54:08.489,-0.0221,0.0403,9.806099892,0.122599997,-0.112199999,0.028100001
21:54:08.517,0.057500001,-0.0046,9.69659996,-0.190300003,-0.135100007,0.112000003
21:54:08.550,0.0054,-0.067400001,9.776200294,0.0845,-0.0053,0.104400001
21:54:08.578,-0.055599999,-0.059599999,9.783399582,-0.022399999,0.0023,-0.033
21:54:08.619,0.019200001,0.043299999,9.806699753,0.0616,0.0176,-0.086400002
21:54:08.646,0.020400001,0.054099999,9.795900345,0.351599991,0.0023,-0.0177
21:54:08.685,-0.0143,-0.0153,9.818099976,-0.220899999,0.055799998,-0.109300002
21:54:08.710,-0.0108,0.0104,9.815699577,0.038699999,-0.074000001,0.0052
21:54:08.748,-0.0072,-0.0273,9.757599831,0.030999999,-0.0206,-0.086400002
21:54:08.776,-0.020300001,0.0098,9.784600258,-0.060600001,0.0023,0.0052
21:54:08.813,0.0132,-0.0219,9.829999924,0.030999999,-0.112199999,0.058600001
21:54:08.842,0.0228,-0.0471,9.764200211,-0.167400002,0.032900002,0.0128
21:54:08.875,-0.0084,0.037900001,9.797699928,0.305799991,-0.096900001,-0.033
21:54:08.908,0.0054,-0.0363,9.772600174,0.0005,-0.0053,0.020400001
21:54:08.944,-0.0012,-0.020099999,9.801300049,-0.083499998,0.093900003,0.0128
21:54:08.974,-0.026900001,0.0116,9.806699753,0.1303,0.078699999,-0.0177
21:54:09.008,0.0114,-0.013,9.809700012,-0.0071,-0.0053,0.028100001
21:54:09.048,0.012,-0.0165,9.769599915,0.137899995,-0.0129,0.043299999
21:54:09.074,-0.0012,0.078599997,9.774999619,0.0539,0.071000002,0.073899999
21:54:21.558,0.0231,0.0043,9.765999794,0.0019,-0.040399998,-0.0306
21:54:21.591,-0.020500001,0.017999999,9.822199821,0.070600003,-0.063299999,0.061000001
21:54:21.625,0.0004,-0.0197,9.79529953,0.017200001,0.058800001,-0.023
21:54:21.663,0.0034,-0.0286,9.785099983,0.055399999,-0.0328,-0.038199998
21:54:21.691,0.0004,-0.0107,9.817500114,-0.066799998,0.066399999,-0.0535
21:54:21.723,0.0076,0.0025,9.82159996,-0.082000002,0.0054,-0.091700003
21:54:21.758,0.0142,0.0103,9.826999664,0.017200001,-0.063299999,0.076300003
21:54:21.789,0.0148,-0.037,9.809700012,0.024800001,-0.0023,0.0152
21:54:21.824,0.016000001,-0.0119,9.81210041,0.0019,0.0054,0.0076
21:54:21.855,-0.0146,0.0061,9.788700104,0.024800001,0.0206,0.0152
21:54:21.890,0.0148,0.0103,9.804300308,0.0096,-0.0099,0.068599999
21:54:21.923,0.0184,0.0115,9.771400452,-0.021,-0.0557,-0.045899998
21:54:21.955,-0.0044,-0.0023,9.806699753,-0.059099998,-0.0175,0.091499999
21:54:21.990,-0.0002,-0.0011,9.774399757,0.0096,-0.040399998,0.045699999
21:54:22.022,0.0154,-0.020300001,9.819800377,-0.021,-0.040399998,-0.0001
21:54:22.055,0.0028,0.023399999,9.829400063,0.024800001,0.0054,0.053399999
21:54:22.094,0.007,0.0049,9.815699577,-0.021,-0.0252,0.061000001
21:54:22.121,0.0154,0.0133,9.845000267,-0.066799998,-0.0099,0.0305
21:54:22.154,0.0016,0.0127,9.798899651,0.0096,0.081699997,-0.023
21:54:22.186,-0.008,0.016799999,9.751000404,-0.021,-0.078599997,-0.023
21:54:22.219,0.0046,-0.0059,9.797699928,0.047699999,0.051199999,-0.0153
21:54:22.252,-0.0134,0.0055,9.801300049,0.024800001,-0.0175,-0.023
21:54:22.284,0.0231,0.0085,9.784500122,0.0019,-0.078599997,-0.023
21:54:22.317,0.0088,-0.0053,9.79529953,0.0019,-0.0099,0.099200003
21:54:22.350,0.0112,-0.0041,9.79529953,-0.043900002,-0.0099,-0.0306
21:54:22.385,0.0082,-0.020300001,9.794099808,0.032499999,0.089299999,0.0228
21:54:22.424,0.0124,0.0019,9.772000313,-0.120200001,0.097000003,-0.083999999
21:54:22.462,0.0076,-0.0035,9.821000099,-0.0057,-0.0099,0.099200003
21:54:22.483,-0.0002,0.0025,9.786899567,-0.0286,0.066399999,0.068599999
21:54:22.517,0.0028,-0.0011,9.810899734,0.017200001,-0.086199999,-0.023
21:54:22.550,-0.005,-0.0071,9.803700447,-0.036200002,-0.0099,0.0381
21:54:22.591,-0.0092,-0.0005,9.791099548,-0.0973,0.097000003,0.0381
21:54:22.619,0.0028,0.0073,9.825799942,0.070600003,-0.0328,0.045699999
21:54:22.653,0.004,-0.0143,9.792300224,-0.043900002,0.0054,0.083899997
21:54:22.682,0.035100002,0.0186,9.791099548,-0.021,-0.048099998,-0.068800002
21:54:22.715,-0.0002,-0.0095,9.816300392,0.024800001,0.0206,0.0076
21:54:22.754,-0.017000001,-0.0113,9.809700012,-0.0515,0.043499999,-0.023
21:54:22.780,-0.02,0.0037,9.826999664,0.108800001,0.013,-0.0153
21:54:22.813,0.0243,-0.0089,9.768400192,-0.0133,0.043499999,0.0305
21:54:22.848,-0.0044,0.0151,9.815699577,-0.0133,0.0283,-0.038199998
21:54:22.878,-0.0056,0.0079,9.786299706,0.055399999,-0.063299999,-0.023
21:54:22.912,-0.0002,-0.019099999,9.825200081,-0.0973,0.089299999,-0.0077
21:54:22.948,0.0034,-0.0083,9.79529953,-0.059099998,0.051199999,0.0381
21:54:22.978,-0.0164,0.0043,9.829999924,-0.021,0.0359,-0.023
21:54:23.011,-0.0062,0.0085,9.793499947,-0.036200002,-0.0557,0.061000001
21:54:23.044,0.0124,0.0067,9.816300392,0.017200001,-0.0023,0.091499999
21:54:23.077,-0.002,-0.0185,9.78030014,-0.066799998,-0.093900003,0.053399999
21:54:23.110,-0.0008,-0.0125,9.812700272,-0.066799998,0.013,-0.0535
21:54:23.142,0.0255,0.0145,9.791700363,0.047699999,-0.040399998,-0.0001
21:54:23.176,-0.0092,0.0162,9.820400238,-0.043900002,0.013,-0.045899998
21:54:23.209,0.0178,-0.0005,9.801300049,0.0019,0.0054,0.045699999
21:54:23.243,0.0046,0.0001,9.816900253,0.078299999,-0.048099998,0.106799997
21:54:23.284,0.001,-0.0095,9.806699753,-0.0057,0.013,0.0152
21:54:23.309,-0.0134,0.0174,9.813300133,-0.021,0.081699997,-0.0153
21:54:23.342,0.0184,-0.016100001,9.812700272,-0.0133,-0.0023,-0.068800002
21:54:23.374,0.0196,0.0043,9.807299614,-0.0286,-0.0557,0.091499999
21:54:23.411,0.0142,0.016799999,9.842599869,-0.059099998,-0.0023,-0.0077
21:54:23.440,-0.0098,-0.0328,9.774999619,-0.059099998,-0.0252,-0.0001
21:54:23.473,-0.0044,-0.0233,9.798899651,-0.043900002,-0.0023,0.0381
21:54:23.507,-0.019400001,-0.0065,9.801300049,-0.0133,0.043499999,-0.061099999
21:54:23.544,0.0082,0.0007,9.793499947,0.040100001,-0.093900003,0.0305
21:54:23.573,0.0136,0.040800001,9.807299614,0.047699999,-0.0023,-0.068800002
21:54:23.606,-0.0098,0.0043,9.783900261,0.070600003,-0.0175,-0.0535
21:54:23.639,-0.020500001,0.0097,9.834199905,-0.0286,-0.0023,0.0152
21:54:23.674,-0.0044,-0.0071,9.800100327,-0.036200002,-0.0099,-0.0077
21:54:23.703,0.001,0.0031,9.812700272,-0.066799998,0.0283,0.0228
21:54:23.739,0.0028,0.0037,9.836000443,0.101199999,-0.0099,0.0305
21:54:23.780,-0.0092,0.020400001,9.791700363,-0.059099998,-0.040399998,-0.0077
21:54:23.803,-0.0044,-0.0023,9.779700279,-0.021,-0.078599997,0.053399999
21:54:23.840,-0.0146,0.0097,9.804900169,0.063000001,0.0359,-0.0001
21:54:23.874,-0.0098,0.0091,9.812700272,-0.143099993,-0.0557,0.083899997
21:54:23.902,0.0034,0.0001,9.80850029,0.063000001,-0.063299999,0.0152
21:54:23.934,0.0046,-0.0095,9.802499771,0.063000001,0.066399999,-0.038199998
21:54:23.970,-0.0068,0.023399999,9.814499855,0.032499999,0.0283,0.0381
21:54:24.001,-0.0056,-0.0137,9.832400322,0.017200001,-0.048099998,0.0381
21:54:24.034,0.0124,-0.0011,9.819800377,-0.082000002,0.0054,0.0381
21:54:24.067,0.0148,0.0085,9.812700272,0.063000001,-0.0557,0.061000001
21:54:24.100,-0.019400001,0.0031,9.778499603,-0.082000002,0.0359,0.053399999
21:54:24.134,-0.0044,0.0019,9.82820034,0.024800001,-0.0023,0.0305
21:54:24.173,0.0082,-0.0017,9.79529953,0.085900001,-0.0175,-0.0153
21:54:24.200,-0.0074,-0.0137,9.826399803,-0.059099998,0.0054,-0.023
21:54:24.232,0.013,0.021,9.794099808,0.047699999,0.013,-0.0001
21:54:24.266,0.0106,0.028200001,9.813300133,-0.0133,-0.048099998,-0.0077
21:54:24.303,-0.0211,0.0222,9.811499596,0.040100001,-0.078599997,0.0152
21:54:24.333,0.0118,0.0079,9.84319973,0.055399999,-0.0023,0.0076
21:54:24.364,-0.0008,-0.0185,9.833600044,-0.0973,-0.0252,-0.0153
21:54:24.398,0.0034,-0.0113,9.824000359,-0.059099998,0.0283,0.0228
21:54:24.430,0.001,-0.0089,9.774399757,0.063000001,-0.0175,0.099200003
21:54:24.463,0.032699998,-0.0035,9.829999924,-0.0973,0.066399999,0.061000001
21:54:24.497,0.0064,-0.0077,9.798299789,-0.104900002,0.0359,0.099200003
21:54:24.532,0.0022,0.0091,9.830599785,-0.0057,-0.0175,-0.038199998
21:54:24.561,0.0022,-0.0101,9.79529953,0.047699999,-0.0328,0.0228
21:54:24.595,0.0094,0.0145,9.820400238,0.0019,-0.0099,-0.023
21:54:24.629,-0.0002,0.0085,9.782699585,0.024800001,-0.078599997,0.0076
21:54:24.661,0.0004,0.0037,9.795900345,0.0096,0.013,-0.023
21:54:24.699,-0.0014,-0.0047,9.816300392,-0.0515,-0.0252,-0.0153
21:54:24.731,-0.0176,-0.0107,9.819800377,0.078299999,0.0283,0.0228
21:54:24.762,0.007,-0.0041,9.80850029,0.0019,0.081699997,0.0381
21:54:24.795,0.0028,0.0067,9.807299614,0.0096,0.0054,-0.068800002
21:54:24.827,0.0208,-0.021500001,9.762999535,0.185100004,-0.0099,-0.0001
21:54:24.859,-0.0128,-0.037,9.800100327,-0.112599999,-0.0175,0.053399999
21:54:24.898,-0.011,0.0073,9.804900169,0.070600003,0.0206,0.076300003
21:54:24.926,-0.0044,-0.028000001,9.830599785,0.040100001,-0.0557,0.061000001
21:54:24.958,-0.0086,-0.0065,9.807900429,-0.0133,-0.0099,0.083899997
21:54:24.991,0.023700001,0.0115,9.797100067,-0.021,-0.0175,-0.038199998
21:54:25.055,0.0022,-0.0125,9.800700188,0.032499999,0.066399999,0.0228
21:54:25.072,0.0016,0.0085,9.816300392,-0.043900002,0.0054,0.0076
21:54:25.109,-0.0146,0.0091,9.823399544,0.078299999,-0.0023,0.0076
21:54:25.127,-0.0098,-0.0197,9.813899994,-0.043900002,-0.078599997,0.0228
21:54:25.173,0.01,0.0288,9.811499596,0.0019,-0.0252,-0.0306
21:54:25.189,-0.0056,0.0049,9.813899994,0.085900001,0.0283,0.091499999
21:54:25.222,-0.0038,0.0067,9.809100151,0.0019,0.058800001,0.0228
21:54:25.255,-0.0014,-0.0107,9.810299873,0.032499999,0.0054,0.053399999
21:54:25.288,0.007,0.0031,9.815699577,0.024800001,-0.0099,-0.0306
21:54:25.321,-0.0008,-0.0035,9.806699753,0.047699999,0.058800001,0.0152
21:54:25.357,0.0106,-0.021500001,9.801300049,0.0019,-0.0328,0.0228
21:54:25.386,-0.0092,-0.0041,9.800100327,-0.036200002,-0.048099998,-0.038199998
21:54:25.420,0.016000001,0.019200001,9.792300224,0.055399999,0.0206,-0.0153
21:54:25.453,0.0219,0.0073,9.777400017,-0.066799998,0.0206,0.061000001
21:54:25.487,-0.0116,0.015699999,9.829400063,-0.089699998,0.051199999,0.0305
21:54:25.518,0.0034,0.032400001,9.805500031,0.032499999,0.0206,0.076300003
21:54:25.557,0.0118,0.0097,9.793499947,0.047699999,-0.0099,-0.083999999
21:54:25.600,0.038699999,0.031199999,9.854599953,0.238600001,0.013,-0.0153
21:54:25.617,-0.0128,-0.0095,9.79529953,-0.150700003,0.058800001,0.061000001
21:54:25.651,0.0076,0.041999999,9.781499863,0.1928,-0.0099,0.091499999
21:54:25.687,0.026699999,-0.046,9.752200127,0.024800001,-0.0099,-0.0077
21:54:25.717,0.013,-0.0221,9.807299614,-0.150700003,-0.0252,-0.038199998
21:54:25.754,-0.0128,0.0019,9.787500381,0.047699999,0.0054,0.0228
21:54:25.784,0.041700002,0.015699999,9.802499771,0.047699999,-0.0175,0.0152
21:54:25.822,0.017200001,0.0276,9.822199821,0.032499999,-0.040399998,0.083899997
21:54:25.853,-0.0104,0.0109,9.815699577,-0.0057,-0.063299999,0.045699999
21:54:25.884,-0.0068,0.024599999,9.796500206,0.070600003,0.043499999,0.0228
21:54:25.919,0.0184,-0.0023,9.823399544,0.078299999,-0.0252,0.144999996
21:54:25.951,0.0082,-0.0173,9.859399796,-0.043900002,-0.048099998,0.0305
21:54:25.981,-0.002,0.0198,9.810899734,0.078299999,-0.040399998,-0.0077
21:54:26.015,0.007,-0.0125,9.815099716,-0.104900002,-0.0023,0.061000001
21:54:26.048,0.0028,0.0186,9.797100067,0.040100001,0.058800001,-0.0153
21:54:26.082,-0.0032,0.0043,9.798899651,0.0019,-0.124399997,-0.099299997
21:54:26.113,-0.0044,0.0162,9.774999619,-0.143099993,-0.0557,0.0305
21:54:26.146,0.0064,0.038400002,9.777400017,0.139300004,0.0283,-0.068800002
21:54:26.182,0.01,-0.0298,9.805500031,-0.082000002,0.013,0.0228
21:54:26.213,0.013,0.0085,9.818699837,0.0019,0.066399999,0.091499999
21:54:26.249,-0.008,0.0019,9.815699577,0.078299999,0.0206,0.0381
21:54:26.278,0.004,-0.041200001,9.804300308,-0.036200002,0.0359,0.0076
21:54:26.314,-0.0002,0.031800002,9.837200165,0.040100001,-0.0328,0.045699999
21:54:26.346,-0.0307,-0.0053,9.81210041,-0.036200002,-0.078599997,0.0305
21:54:26.378,0.004,-0.0089,9.818099976,-0.036200002,-0.0328,0.0152
21:54:26.410,0.0231,0.0109,9.765399933,0.131699994,-0.0252,0.0152
21:54:26.443,0.004,-0.0185,9.849200249,0.024800001,-0.0557,-0.0077
21:54:26.476,-0.014,-0.0035,9.804300308,-0.272899985,-0.0099,0.0152
21:54:26.517,0.0106,0.0055,9.795900345,0.032499999,-0.101499997,0.099200003
21:54:26.545,0.0034,-0.039999999,9.806099892,0.032499999,-0.0175,0.076300003
21:54:26.574,-0.0008,0.020400001,9.832400322,-0.066799998,-0.147300005,-0.0153
21:54:26.609,-0.0002,0.0115,9.786899567,-0.066799998,-0.208399996,0.106799997
21:54:26.641,0.0243,-0.071099997,9.813300133,-0.135499999,0.0054,0.0076
21:54:26.674,0.0231,-0.0173,9.803700447,0.047699999,0.0054,-0.023
21:54:26.708,-0.032499999,0.033599999,9.920999527,-0.0744,0.104599997,-0.076399997
21:54:26.741,0.062600002,0.015699999,9.85340023,-0.165999994,-0.154899999,0.083899997
21:54:26.776,0.0196,-0.066399999,9.79529953,-0.0973,0.0283,0.0228
21:54:26.806,-0.019400001,-0.019099999,9.756999969,-0.211799994,0.074100003,0.0381
21:54:26.842,-0.0104,0.023399999,9.833600044,0.200399995,-0.086199999,0.091499999
21:54:26.873,0.0513,-0.062799998,9.791700363,-0.127800003,0.0054,0.091499999
21:54:26.905,0.029100001,0.035999998,9.776200294,-0.021,-0.0252,-0.0535
21:54:26.940,-0.0253,0.016799999,9.810299873,0.055399999,-0.0328,0.0381
21:54:26.983,0.022500001,-0.095100001,9.738400459,-0.242300004,-0.0023,-0.061099999
21:54:27.003,0.082400002,-0.140000001,9.879099846,0.093500003,0.219099998,-0.023
21:54:27.045,-0.057700001,0.167099997,9.743200302,-0.30340001,0.203799993,0.083899997
21:54:27.075,-0.0307,0.083899997,10,0.26910001,-0.162599996,0.190799996
21:54:27.105,0.163800001,-0.224999994,9.61989975,-0.906499982,0.051199999,-0.076399997
21:54:27.140,-0.0307,0.072499998,9.7833004,0.154599994,0.30309999,-0.068800002
21:54:27.183,-0.157600001,0.0013,9.854599953,0.284399986,-0.0328,0.083899997
21:54:27.202,0.0537,-0.0185,9.721099854,-0.387400001,-0.2465,0.0076
21:54:27.235,0.113499999,0.116800003,9.794099808,0.681299984,0.104599997,-0.023
21:54:27.269,-0.126499996,0.0103,9.845600128,-0.196500003,0.150399998,0.0305
21:54:27.301,-0.066,0.021,9.876099586,-0.0515,-0.131999999,-0.0077
21:54:27.334,0.151199996,-0.143600002,9.696499825,-0.0973,-0.101499997,-0.099299997
21:54:27.367,-0.034899998,0.0103,9.826999664,-0.0286,0.188600004,-0.0077
21:54:27.400,-0.1193,0.079099998,9.91380024,0.154599994,0.013,0.114399999
21:54:27.433,0.064999998,0.024599999,9.786899567,-0.196500003,-0.162599996,-0.038199998
21:54:27.466,0.084200002,-0.0502,9.756400108,0.101199999,0.165700004,-0.099299997
21:54:27.499,-0.131899998,-0.033399999,9.859399796,-0.112599999,0.219099998,0.061000001
21:54:27.533,-0.0164,0.0414,9.84319973,0.131699994,-0.2236,0.045699999
21:54:27.567,0.135700002,-0.0017,9.779700279,0.070600003,-0.0252,0.0305
21:54:27.597,-0.049899999,0.020400001,9.822799683,-0.120200001,0.203799993,-0.0077
21:54:27.630,-0.089400001,0.047400001,9.818699837,0.0096,-0.0023,-0.0153
21:54:27.664,0.027899999,-0.0484,9.773200035,-0.280499995,-0.101499997,-0.083999999
21:54:27.696,0.059700001,-0.0352,9.793499947,-0.036200002,0.051199999,0.0152
21:54:27.733,-0.065399997,0.045600001,9.862299919,0.154599994,0.112199999,-0.0535
21:54:27.765,0.041700002,0.0007,9.79529953,-0.089699998,-0.147300005,-0.038199998
21:54:27.795,0.081200004,-0.0286,9.730699539,0.032499999,-0.0023,0.0228
21:54:27.831,-0.0265,-0.0047,9.826399803,0.1699,0.150399998,-0.083999999
21:54:27.868,-0.048700001,0.059900001,9.827599525,-0.0515,-0.093900003,-0.076399997
21:54:27.895,0.0471,0.021600001,9.798299789,0.024800001,-0.093900003,-0.045899998
21:54:27.929,0.021299999,-0.049600001,9.78030014,-0.0744,-0.048099998,-0.0077
21:54:27.968,-0.0403,0.021600001,9.830599785,-0.0133,0.058800001,0.053399999
21:54:27.996,0.0046,0.021,9.797699928,0.139300004,-0.147300005,0.045699999
21:54:28.027,0.0429,-0.019099999,9.816300392,-0.059099998,-0.040399998,0.053399999
21:54:28.061,-0.027100001,-0.0035,9.834799767,0.017200001,0.081699997,0.076300003
21:54:28.093,-0.037900001,0.0067,9.843799591,-0.0057,-0.071000002,-0.114600003
21:54:28.126,0.034499999,-0.0101,9.759400368,-0.066799998,-0.048099998,-0.038199998
21:54:28.159,0.0124,-0.0077,9.785099983,0.154599994,0.0359,0.0381
21:54:28.192,-0.037900001,0.0013,9.819800377,0.101199999,-0.040399998,0.0305
21:54:28.225,0.039900001,0.0061,9.771400452,-0.127800003,0.0054,-0.061099999
21:54:28.258,0.0261,0.0031,9.779700279,-0.0133,0.135100007,-0.0001
21:54:28.293,-0.0319,-0.0083,9.817500114,0.131699994,0.066399999,-0.0306
21:54:28.326,-0.0056,0.031800002,9.827599525,-0.036200002,-0.162599996,-0.023
21:54:28.357,0.039900001,0.029999999,9.769599915,-0.135499999,-0.078599997,0.083899997
21:54:28.389,-0.0074,-0.0526,9.807900429,-0.0286,0.051199999,-0.068800002
21:54:28.430,-0.0265,-0.0185,9.806099892,-0.043900002,0.0054,-0.0306
21:54:28.455,0.032099999,-0.0041,9.790499687,0.085900001,-0.0175,0.114399999
21:54:28.488,0.048900001,0.0294,9.818099976,0.024800001,-0.063299999,-0.023
21:54:28.521,0.004,0.103,9.839599609,0.063000001,0.0359,-0.0535
21:54:28.555,-0.0319,0.020400001,9.825799942,-0.082000002,0.0359,-0.114600003
21:54:28.588,0.0088,-0.079499997,9.785099983,-0.196500003,-0.078599997,0.0381
21:54:28.622,0.013,-0.0274,9.765999794,0.162200004,0.0054,-0.038199998
21:54:28.653,-0.0032,0.021600001,9.789899826,0.154599994,0.0206,0.053399999
21:54:28.689,0.029100001,0.061099999,9.7833004,-0.0286,0.0206,-0.0306
21:54:28.724,0.0243,0.0061,9.791099548,-0.066799998,0.081699997,-0.0001
21:54:28.756,-0.030099999,-0.068700001,9.804300308,-0.143099993,0.0054,-0.091700003
21:54:28.788,-0.0229,-0.032200001,9.813300133,-0.0133,-0.093900003,0.0228
21:54:28.819,0.0178,0.0115,9.762999535,0.200399995,0.0054,0.045699999
21:54:28.853,0.0285,0.0396,9.834199905,0.040100001,0.058800001,0.0305
21:54:28.892,-0.0176,0.0103,9.828800201,-0.165999994,-0.0252,0.0381
21:54:28.919,0.0076,-0.040600002,9.73900032,-0.135499999,-0.0175,-0.023
21:54:28.961,0.01,-0.083099999,9.810899734,-0.021,-0.0023,-0.0153
21:54:28.984,-0.0086,-0.0113,9.772000313,0.047699999,0.081699997,-0.0077
21:54:29.017,0.0184,0.057500001,9.80189991,0.116400003,-0.116800003,0.053399999
21:54:29.050,0.032099999,0.0043,9.806699753,0.017200001,-0.071000002,0.061000001
21:54:29.085,0.0243,0.0198,9.764200211,-0.150700003,0.081699997,-0.0077
21:54:29.119,-0.0116,0.0139,9.791099548,0.1241,-0.101499997,0.0305
21:54:29.151,0.0046,-0.069899999,9.796500206,-0.0744,-0.0099,0.045699999
21:54:29.184,0.0297,0.0528,9.789299965,0.147,-0.063299999,0.045699999
21:54:29.215,0.016000001,0.0605,9.845000267,0.147,-0.0175,0.083899997
21:54:29.251,0.0136,-0.0149,9.800100327,-0.2042,0.0206,-0.0077
21:54:29.282,0.0118,-0.0041,9.783900261,-0.0057,0.074100003,-0.068800002
21:54:29.315,-0.0229,-0.071099997,9.780900002,-0.082000002,0.066399999,0.045699999
21:54:29.349,-0.005,0.0133,9.802499771,-0.021,-0.0328,-0.0535
21:54:29.380,0.0255,0.050999999,9.789299965,0.200399995,-0.0557,-0.068800002
21:54:29.413,-0.0014,0.021,9.800700188,-0.066799998,-0.0099,-0.076399997
21:54:29.447,-0.0152,-0.0113,9.836600304,-0.112599999,0.058800001,-0.023
21:54:29.479,0.0016,-0.0221,9.816300392,0.063000001,-0.0175,0.0305
21:54:29.520,-0.0098,-0.0143,9.791099548,-0.0133,0.0206,-0.045899998
21:54:29.546,-0.0056,0.0007,9.85340023,0.024800001,-0.0252,-0.0077
21:54:29.580,-0.0068,0.031800002,9.812700272,-0.089699998,-0.040399998,-0.0306
21:54:29.612,0.0028,0.0228,9.804900169,-0.0133,-0.0099,0.053399999
21:54:29.644,-0.014,-0.046,9.843799591,-0.196500003,0.0206,0.0381
21:54:29.678,0.0094,-0.0125,9.79529953,0.0096,0.043499999,-0.0535
21:54:29.711,0.0076,0.019200001,9.810899734,0.116400003,0.0206,0.0305
21:54:29.743,0.0166,-0.0017,9.782699585,-0.021,0.0283,-0.0153
21:54:29.778,0.0016,0.050999999,9.854000092,0.017200001,-0.147300005,-0.0001
21:54:29.811,0.0028,-0.022700001,9.782099724,-0.112599999,-0.040399998,0.129700005
21:54:29.848,0.0243,-0.032200001,9.805500031,-0.043900002,0.013,-0.045899998
21:54:29.875,-0.0241,0.035399999,9.81210041,0.108800001,-0.0557,0.061000001
21:54:29.909,0.018999999,-0.0125,9.819800377,-0.0973,-0.040399998,0.0228
21:54:29.940,0.027899999,0.0162,9.833000183,0.024800001,-0.0175,-0.0077
21:54:29.973,0.001,0.0037,9.765399933,0.0019,0.089299999,-0.0535
21:54:30.009,-0.02,-0.031599998,9.769599915,-0.0744,-0.078599997,-0.099299997
21:54:30.040,0.0022,-0.024499999,9.786899567,0.085900001,-0.0175,0.0152
21:54:30.073,0.01,0.023399999,9.813899994,0.024800001,-0.071000002,-0.0306
21:54:30.107,-0.030099999,0.0115,9.741399765,-0.0744,0.0206,0.0228
21:54:30.148,0.0148,-0.0077,9.761199951,-0.0133,-0.048099998,-0.023
21:54:30.173,0.01,-0.0095,9.829400063,0.0019,-0.0328,0.0152
21:54:30.205,-0.02,-0.038199998,9.815699577,-0.0286,-0.048099998,0.053399999
21:54:30.240,0.0196,0.0288,9.806099892,-0.0057,-0.0328,0.076300003
21:54:30.271,0.026699999,-0.0041,9.796500206,0.1241,-0.048099998,-0.038199998
21:54:30.304,0.017200001,0.0109,9.792900085,-0.143099993,0.013,-0.045899998
21:54:30.336,-0.0229,0.0049,9.838399887,0.0096,-0.0099,0.053399999
21:54:30.370,-0.0307,-0.0137,9.803700447,0.017200001,-0.0557,-0.023
21:54:30.406,0.0405,-0.0011,9.836000443,-0.021,-0.048099998,-0.0077
21:54:30.435,-0.008,0.0372,9.816300392,0.154599994,0.051199999,-0.038199998
21:54:30.468,-0.0116,-0.0005,9.831800461,-0.0973,-0.040399998,-0.023
21:54:30.503,0.0231,0.0133,9.807299614,0.024800001,-0.063299999,0.076300003
21:54:30.537,-0.015799999,-0.0286,9.815699577,0.078299999,0.0283,0.0152
21:54:30.569,-0.0104,-0.0005,9.779700279,-0.0057,-0.0099,-0.0077
21:54:30.604,0.0142,0.0079,9.829400063,0.085900001,-0.0557,0.053399999
21:54:30.636,0.0082,-0.0017,9.81210041,-0.120200001,0.074100003,-0.0153
21:54:30.670,0.0136,0.021600001,9.831199646,-0.043900002,0.0359,-0.0077
21:54:30.703,-0.0104,-0.035799999,9.813300133,0.047699999,-0.048099998,-0.045899998
21:54:30.735,0.0094,-0.024499999,9.803099632,-0.0057,0.0359,0.068599999
21:54:30.766,0.0112,0.0306,9.804300308,0.063000001,-0.0328,-0.106899999
21:54:30.801,-0.0092,0.0007,9.798899651,-0.0515,0.051199999,0.0228
21:54:30.834,0.0076,0.0162,9.802499771,-0.0286,-0.0252,0.0305
21:54:30.868,0.0166,0.0115,9.778499603,0.0096,0.0054,-0.068800002
21:54:30.898,-0.0319,-0.019099999,9.818699837,-0.036200002,0.0054,-0.068800002
21:54:30.933,-0.017000001,0.0264,9.804900169,0.0096,-0.0328,-0.0001
21:54:30.972,0.0208,0.0067,9.813300133,-0.0515,-0.086199999,0.0076
21:54:30.999,-0.008,-0.0077,9.807299614,0.040100001,0.097000003,-0.045899998
21:54:31.038,-0.031300001,0.0043,9.809100151,-0.112599999,0.0283,0.061000001
21:54:31.062,0.0028,-0.047200002,9.813300133,0.040100001,0.0283,0.053399999
21:54:31.095,0.01,0.0001,9.770199776,-0.0057,0.0206,0.0152
21:54:31.130,-0.015799999,0.023399999,9.827599525,0.0019,-0.071000002,-0.0001
21:54:31.164,0.0154,0.0031,9.830599785,-0.059099998,0.0359,0.0076
21:54:31.195,0.030300001,-0.019099999,9.794099808,-0.135499999,0.013,0.053399999
21:54:31.227,-0.0026,0.0073,9.788100243,0.093500003,0.043499999,0.0152
21:54:31.264,-0.0002,-0.019099999,9.814499855,-0.059099998,-0.0099,0.076300003
21:54:31.294,0.030300001,0.024599999,9.82159996,0.108800001,-0.0023,-0.045899998
21:54:31.327,0.0196,0.0121,9.804900169,0.070600003,-0.0252,-0.0001
21:54:31.367,-0.0056,0.0037,9.802499771,-0.104900002,0.043499999,-0.0306
21:54:31.393,-0.0032,0.0127,9.840200424,0.101199999,-0.0175,-0.0153
21:54:31.431,0.001,-0.0023,9.771400452,0.040100001,0.013,-0.023
21:54:31.459,0.0046,-0.0125,9.822799683,-0.0286,-0.040399998,0.0076
21:54:31.492,0.001,0.0145,9.806699753,0.017200001,0.0206,0.129700005
21:54:31.533,0.0046,0.0121,9.803099632,-0.021,0.058800001,0.0076
21:54:31.558,-0.0026,-0.0029,9.800100327,0.0019,0.081699997,0.0152
21:54:31.594,0.0034,-0.025599999,9.789899826,0.032499999,-0.063299999,0.0228
21:54:31.625,0.0142,0.0031,9.789899826,0.024800001,-0.0175,0.076300003
21:54:31.657,-0.002,-0.0029,9.82820034,0.070600003,0.081699997,0.0076
21:54:31.689,-0.0002,0.0109,9.788700104,0.108800001,0.074100003,-0.0306
21:54:31.725,0.001,-0.0059,9.798899651,0.017200001,-0.0328,0.068599999
21:54:31.761,-0.0098,-0.019099999,9.800100327,-0.0515,0.097000003,0.0381
21:54:31.790,-0.014,-0.0107,9.820400238,-0.0057,0.0206,0.0381
21:54:31.824,0.0016,-0.025599999,9.789899826,-0.036200002,-0.0252,-0.0306
21:54:31.859,0.0052,0.0121,9.832400322,-0.021,0.051199999,0.053399999
21:54:31.888,0.0112,0.0103,9.810899734,-0.0133,-0.0252,0.061000001
21:54:31.921,0.0052,-0.0274,9.816300392,-0.0744,0.0283,0.045699999
21:54:31.960,0.0028,-0.0065,9.827599525,0.0019,0.0283,0.0305
21:54:31.987,-0.014,-0.0005,9.769599915,0.108800001,-0.0023,0.0076
21:54:32.019,0.007,0.0025,9.807900429,-0.021,-0.063299999,-0.023
21:54:32.054,0.0285,0.0043,9.778499603,-0.104900002,-0.040399998,0.129700005
21:54:32.086,-0.0008,-0.0065,9.814499855,0.0096,-0.0328,0.0228
21:54:32.119,0.0022,-0.0101,9.78030014,-0.021,0.0283,-0.0077
21:54:32.151,0.0196,-0.0047,9.822199821,0.139300004,-0.040399998,-0.0535
21:54:32.184,0.0088,0.0025,9.788100243,0.063000001,-0.071000002,0.0076
21:54:32.217,-0.0074,0.0186,9.805500031,-0.0515,0.074100003,0.061000001
21:54:32.254,-0.022299999,-0.0047,9.790499687,0.1241,-0.078599997,-0.0306
21:54:32.285,0.0148,-0.0071,9.805500031,-0.120200001,0.043499999,0.0076
21:54:32.321,0.013,0.028200001,9.847399712,0.024800001,0.097000003,0.0381
21:54:32.349,-0.014,-0.0053,9.80850029,0.131699994,-0.139699996,-0.0153
21:54:32.389,0.0046,-0.0101,9.783900261,-0.135499999,0.0283,0.053399999
21:54:32.416,-0.0128,0.0462,9.789899826,0.154599994,0.043499999,-0.061099999
21:54:32.449,-0.015799999,-0.0113,9.796500206,-0.089699998,0.0054,0.083899997
21:54:32.481,0.0094,0.0127,9.810899734,0.1241,0.043499999,0.0152
21:54:32.516,0.0022,-0.029200001,9.81210041,0.101199999,-0.048099998,-0.038199998
21:54:32.548,-0.008,-0.0095,9.823399544,-0.0515,-0.0252,-0.045899998
21:54:32.581,0.017200001,-0.0113,9.825799942,0.070600003,-0.093900003,0.0381
21:54:32.616,0.0088,-0.019099999,9.810899734,0.032499999,-0.0023,0.0381
21:54:32.646,-0.002,-0.0011,9.832400322,-0.143099993,0.043499999,-0.0535
21:54:32.680,-0.0146,0.0097,9.800700188,0.047699999,-0.109099999,-0.0153
21:54:32.719,0.0046,-0.0101,9.782699585,-0.0286,-0.078599997,0.0228
21:54:32.745,-0.0008,0.0121,9.823399544,-0.059099998,-0.0557,-0.076399997
21:54:32.783,-0.0044,0.0031,9.804300308,0.162200004,-0.101499997,-0.0153
21:54:32.813,0.0154,-0.0221,9.764200211,-0.059099998,0.0054,0.0076
21:54:32.846,-0.005,-0.0107,9.818699837,-0.0286,-0.0099,0.0381
21:54:32.884,-0.0104,0.023399999,9.847999573,0.230900005,-0.0328,0.045699999
21:54:32.912,0.0136,-0.036400001,9.784500122,-0.158399999,0.0054,-0.0001
21:54:32.947,0.0154,-0.0107,9.815699577,0.162200004,-0.0252,0.0076
21:54:32.977,-0.0146,0.0025,9.82820034,0.0019,0.043499999,-0.0001
21:54:33.010,0.001,-0.0113,9.818099976,-0.066799998,0.051199999,0.0381
21:54:33.044,0.035100002,0.0085,9.779700279,0.108800001,-0.078599997,-0.0306
21:54:33.079,-0.034299999,-0.0173,9.823399544,-0.135499999,0.0054,-0.068800002
21:54:33.109,-0.0122,0.042599998,9.806699753,-0.0133,-0.040399998,-0.061099999
21:54:33.143,0.017200001,-0.0041,9.805500031,0.017200001,-0.063299999,0.083899997
21:54:33.174,0.0154,-0.0173,9.776800156,-0.0057,0.058800001,0.068599999
21:54:33.216,-0.0098,-0.0011,9.816300392,0.024800001,0.058800001,0.061000001
21:54:33.242,-0.011,-0.0119,9.837200165,0.063000001,-0.0023,0.068599999
21:54:33.273,0.0142,-0.032200001,9.82159996,-0.0515,0.127499998,0.0381
21:54:33.307,-0.0116,0.0151,9.788100243,-0.0286,-0.0557,0.099200003
21:54:33.344,-0.0062,-0.0083,9.822799683,0.0096,-0.0099,0.106799997
21:54:33.375,0.022500001,-0.030400001,9.790499687,-0.089699998,0.0283,-0.0001
21:54:33.405,0.0124,-0.0125,9.818699837,-0.0057,0.0054,-0.0306
21:54:33.439,-0.0176,-0.0131,9.818099976,-0.0133,-0.0175,-0.023
21:54:33.475,-0.0032,0.0091,9.789899826,-0.104900002,-0.0252,-0.038199998
21:54:33.510,0.0184,0.021,9.778499603,-0.0286,-0.048099998,0.0152
21:54:33.537,-0.025900001,-0.0053,9.783900261,0.108800001,0.013,0.0305
21:54:33.572,-0.0128,-0.0005,9.810899734,-0.104900002,0.0283,-0.045899998
21:54:33.605,0.0363,-0.0167,9.779700279,0.093500003,-0.101499997,-0.0306
21:54:33.639,0.0016,-0.0251,9.805500031,0.040100001,0.013,0.045699999
21:54:33.672,-0.011,-0.0059,9.797699928,-0.112599999,-0.0175,-0.0306
21:54:33.705,0.0124,0.047400001,9.840200424,0.093500003,0.0283,0.099200003
21:54:33.735,0.0255,0.0037,9.800100327,0.116400003,-0.0557,0.144999996
21:54:33.769,-0.0056,-0.0101,9.831800461,-0.158399999,-0.0099,-0.0001
21:54:33.809,0.0022,0.0151,9.832400322,0.085900001,0.013,0.0305
21:54:33.835,0.0112,0.0055,9.747400284,0.078299999,-0.0175,-0.061099999
21:54:33.868,0.0297,0.0013,9.80189991,0.017200001,-0.0023,0.045699999
21:54:33.904,0.0064,0.0103,9.800100327,0.0019,-0.0175,-0.0535
21:54:33.934,-0.0265,0.0067,9.845600128,-0.0133,-0.0175,-0.0077
21:54:33.967,-0.020500001,-0.0083,9.802499771,-0.021,-0.078599997,0.053399999
21:54:34.001,0.0273,0.0151,9.806699753,0.070600003,-0.078599997,-0.0153
21:54:34.032,0.0106,0.0133,9.813300133,-0.066799998,-0.0023,-0.038199998
21:54:34.065,0.0094,0.0055,9.829999924,-0.0744,-0.0023,-0.023
21:54:34.103,0.0178,0.0019,9.806699753,0.162200004,0.051199999,0.045699999
21:54:34.136,0.0142,-0.0065,9.806699753,-0.0744,0.0359,0.083899997
21:54:34.177,-0.005,0.0186,9.800100327,-0.089699998,-0.0252,0.0076
21:54:34.198,0.0094,0.021,9.829400063,0.070600003,0.0283,0.061000001
21:54:34.231,0.0196,0.0103,9.825200081,-0.135499999,0.043499999,-0.091700003
21:54:34.266,0.0058,0.0288,9.801300049,0.063000001,0.0206,0.0076
21:54:34.297,0.0112,-0.020300001,9.819299698,-0.021,0.013,-0.0077
21:54:34.330,0.016000001,0.0061,9.837800026,0.024800001,0.0206,-0.114600003
21:54:34.362,-0.005,0.0073,9.804300308,0.116400003,0.0359,-0.0535
21:54:34.398,0.0076,0.0007,9.777400017,-0.021,-0.063299999,0.053399999
21:54:34.428,-0.0104,0.0049,9.812700272,-0.0057,-0.0175,-0.0077
21:54:34.461,0.0064,0.020400001,9.836000443,0.032499999,0.0054,-0.0306
21:54:34.497,0.004,-0.029200001,9.827599525,0.1241,-0.078599997,0.0305
21:54:34.527,0.013,0.0079,9.816900253,-0.112599999,-0.0557,0.0076
21:54:34.561,-0.017000001,0.0228,9.832400322,0.0019,0.081699997,0.0076
21:54:34.595,-0.0062,0.0007,9.809100151,-0.0515,0.0206,0.068599999
21:54:34.628,0.0076,-0.026799999,9.847999573,-0.043900002,-0.086199999,0.099200003
21:54:34.659,-0.0128,-0.0185,9.792900085,-0.0057,-0.0252,0.0228
21:54:34.695,0.0046,-0.017899999,9.802499771,-0.0057,0.066399999,-0.0077
21:54:34.731,-0.011,-0.0131,9.811499596,0.070600003,-0.071000002,-0.038199998
21:54:34.760,0.020199999,-0.026799999,9.810299873,-0.059099998,0.0206,0.0305
21:54:34.792,-0.008,0.0007,9.820400238,0.040100001,0.0283,0.083899997
21:54:34.827,-0.0014,0.0151,9.811499596,-0.043900002,-0.071000002,0.0228
21:54:34.857,0.0082,-0.0089,9.798299789,-0.059099998,-0.0328,-0.0077
21:54:34.895,0.0184,0.0061,9.806099892,-0.066799998,0.104599997,0.061000001
21:54:34.926,0.0052,0.020400001,9.789299965,0.093500003,0.013,0.0076
21:54:34.956,0.004,-0.0095,9.812700272,-0.021,-0.0099,-0.038199998
21:54:34.989,0.0028,0.0162,9.817500114,-0.0286,0.0359,-0.083999999
21:54:35.026,-0.0098,-0.0023,9.823399544,-0.043900002,-0.101499997,-0.0077
21:54:35.057,0.0016,-0.0041,9.813300133,-0.0515,0.0283,-0.0001
21:54:35.090,0.013,0.0043,9.792900085,-0.021,-0.0328,0.068599999
21:54:35.122,0.0088,-0.0119,9.822199821,-0.089699998,0.0054,-0.023
21:54:35.155,-0.0122,-0.0239,9.819800377,0.0019,-0.0328,0.061000001
21:54:35.191,0.0142,-0.0053,9.791700363,0.040100001,0.0054,0.053399999
21:54:35.221,0.0124,0.020400001,9.788700104,0.047699999,0.051199999,-0.023
21:54:35.257,-0.0152,-0.0209,9.817500114,-0.0515,-0.0328,-0.0001
21:54:35.291,0.236200005,0.281399995,8.618599892,0.536300004,-0.803799987,-0.297800004
21:54:35.321,-0.557399988,-0.272899985,10.83920002,0.0096,0.463400006,0.0381
21:54:35.354,0.397799999,0.062899999,9.504400253,-1.074399948,0.211500004,0.0152
21:54:35.387,0.40259999,0.140699998,9.725899696,1.719499946,-0.483200014,-0.0306
21:54:35.418,-0.234799996,-0.229200006,10.0909996,-1.173599958,0.387100011,-0.152700007
21:54:35.455,-0.018200001,0.170100003,9.436800003,0.391299993,-0.162599996,0.045699999
21:54:35.484,0.018999999,-0.046,9.915599823,0.811100006,-0.231299996,0.0305
21:54:35.517,0.0196,-0.162100002,9.580400467,-0.685100019,0.051199999,-0.061099999
21:54:35.550,-0.0601,0.118600003,9.887499809,1.062999964,-0.139699996,0.099200003
21:54:35.583,-0.0134,-0.163299993,9.900099754,-0.524800003,0.074100003,-0.023
21:54:35.616,0.074000001,0.033,9.769599915,-0.463699996,0.066399999,-0.0306
21:54:35.649,0.023700001,-0.0209,9.901900291,0.414200008,-0.0328,0.0228
21:54:35.684,-0.091799997,-0.123800002,9.773200035,-0.852999985,0.127499998,-0.045899998
21:54:35.716,-0.0146,0.0438,9.834799767,0.223299995,0.0359,-0.0306
21:54:35.752,0.041099999,-0.047200002,9.776800156,0.154599994,-0.0252,0.0076
21:54:35.781,0.0022,0.0306,9.774399757,-0.34920001,-0.0557,-0.0153
21:54:35.816,0.0124,0.090499997,9.800100327,0.345499992,-0.0328,-0.099299997
21:54:35.849,0.0273,-0.066399999,9.783900261,-0.0973,0.180899993,0.0305
21:54:35.880,-0.0211,-0.0059,9.771400452,-0.089699998,-0.0099,-0.023
21:54:35.914,-0.040899999,-0.044799998,9.859399796,0.26910001,0.0283,0.083899997
21:54:35.947,0.054299999,0.0121,9.801300049,-0.089699998,-0.0023,-0.145099998
21:54:35.980,0.0094,0.090499997,9.801300049,-0.0286,-0.0252,0.0228
21:54:36.013,-0.060699999,-0.071099997,9.865300179,-0.0286,-0.0023,0.0228
21:54:36.048,0.0309,-0.089100003,9.771400452,-0.196500003,0.0283,0.053399999
21:54:36.079,0.0297,0.0294,9.795900345,0.154599994,0.051199999,-0.0077
21:54:36.112,-0.0026,-0.0095,9.858200073,0.108800001,0.127499998,0.122100003
21:54:36.151,0.045899998,-0.0107,9.795900345,-0.219400004,0.066399999,0.091499999
21:54:36.177,-0.0217,0.019200001,9.820400238,-0.0286,0.089299999,-0.045899998
21:54:36.211,-0.0086,-0.044799998,9.814499855,0.131699994,0.074100003,-0.122199997
21:54:36.245,-0.0128,-0.0071,9.809700012,0.055399999,0.112199999,-0.083999999
21:54:36.284,0.0184,0.0647,9.78030014,0.047699999,-0.040399998,-0.0306
21:54:36.313,0.0064,0.034200002,9.835399628,0.032499999,0.0054,0.0381
21:54:36.342,-0.0056,-0.0113,9.825799942,-0.112599999,0.0283,-0.0535
21:54:36.375,0.0094,-0.026799999,9.794699669,-0.127800003,-0.0099,0.0305
21:54:36.410,-0.0122,-0.035799999,9.840800285,0.047699999,-0.124399997,-0.0077
21:54:36.443,0.080600001,0.108999997,9.531900406,0.1699,-0.261799991,-0.045899998
21:54:36.474,-0.0535,0.073100001,9.915599823,0.505800009,-0.269400001,0.0305
21:54:36.507,-0.0337,-0.130400002,9.67800045,-0.761399984,0.150399998,-0.061099999
21:54:36.540,0.0986,0.0779,9.804900169,0.772899985,-0.269400001,0.068599999
21:54:36.574,0.0016,-0.102899998,9.968899727,0.314900011,-0.101499997,0.106799997
21:54:36.606,0.042300001,0.070100002,9.914400101,-0.410299987,0.074100003,-0.023
21:54:36.640,0.177000001,0.021600001,9.481699944,0.788200021,-0.544200003,-0.190899998
21:54:36.673,-0.295300007,0.253300011,9.964699745,-0.936999977,0.4023,-0.129800007
21:54:36.705,-0.292899996,0.098800004,9.434399605,1.612599969,-0.093900003,0.305299997
21:54:36.744,-0.252200007,-0.336299986,10.60929966,0.330199987,0.3565,0.091499999
21:54:36.775,0.193700001,-0.0221,10,-0.868300021,-0.101499997,-0.099299997
21:54:36.807,0.151800007,0.0043,9.934800148,-0.524800003,0.486299992,0.0381
21:54:36.838,-0.241999999,0.0779,9.823399544,-0.196500003,0.089299999,-0.099299997
21:54:36.875,-0.114500001,0.019200001,9.748000145,0.108800001,-0.261799991,-0.038199998
21:54:36.917,0.25060001,-0.184300005,9.53429985,-0.135499999,-0.231299996,0.091499999
21:54:36.951,-0.096000001,-0.0209,9.659999847,-0.059099998,-0.0175,0.061000001
21:54:36.970,-0.149200007,0.157499999,10.00959969,0.780600011,-0.238900006,-0.0153
21:54:37.005,0.247600004,-0.016100001,9.73429966,-0.34920001,-0.071000002,-0.0077
21:54:37.038,0.0196,-0.0526,9.703100204,-0.562900007,0.196199998,0.0076
21:54:37.068,-0.185699999,-0.078299999,10.0479002,0.26910001,0.0359,-0.045899998
21:54:37.108,0.066799998,-0.086099997,9.711500168,-0.31099999,-0.170200005,-0.0001
21:54:37.136,0.1153,0.086900003,9.783900261,0.0019,0.0054,0.045699999
21:54:37.168,-0.070200004,0.078500003,9.950900078,0.398900002,0.165700004,0.129700005
21:54:37.200,0.026699999,0.033,9.768400192,-0.364499986,-0.086199999,-0.175600007
21:54:37.233,0.044100001,-0.039999999,9.804300308,0.085900001,-0.063299999,-0.0306
21:54:37.266,-0.113899998,-0.112999998,9.847399712,0.200399995,0.089299999,0.076300003
21:54:37.301,-0.031300001,0.054000001,9.798899651,0.162200004,-0.131999999,-0.0535
21:54:37.334,0.082400002,0.065899998,9.828800201,0.154599994,-0.124399997,-0.0153
21:54:37.367,-0.0104,-0.040600002,9.858200073,-0.0515,0.150399998,0.0076
21:54:37.398,-0.061299998,-0.0251,9.816900253,-0.219400004,0.058800001,-0.0077
21:54:37.433,-0.0062,-0.057399999,9.801300049,0.093500003,-0.086199999,-0.0077
21:54:37.466,0.0124,-0.0173,9.855199814,0.238600001,0.051199999,0.061000001
21:54:37.497,-0.0469,0.045600001,9.804300308,-0.158399999,0.058800001,-0.0153
21:54:37.533,0.0255,0.044399999,9.824000359,0.070600003,-0.0557,0.0305
21:54:37.578,0.086599998,-0.0502,9.789299965,-0.135499999,0.0359,-0.0306
21:54:37.600,-0.024700001,-0.038199998,9.798299789,-0.143099993,-0.0023,0.053399999
21:54:37.633,-0.037300002,-0.032200001,9.810899734,0.063000001,-0.086199999,-0.0077
21:54:37.668,0.030300001,-0.0167,9.788700104,-0.0057,-0.0252,0.045699999
21:54:37.697,0.0136,0.0264,9.789899826,-0.043900002,-0.0328,0.0305
21:54:37.728,-0.0164,0.049199998,9.80189991,0.085900001,-0.040399998,0.053399999
21:54:37.762,0.0495,0.0013,9.813899994,-0.135499999,-0.0252,-0.0535
21:54:37.801,-0.0122,-0.041200001,9.7833004,-0.143099993,0.104599997,-0.061099999
21:54:37.829,-0.076800004,-0.052000001,9.854000092,0.017200001,-0.0557,0.083899997
21:54:37.862,0.0273,-0.030400001,9.845600128,0.063000001,-0.086199999,0.0228
21:54:37.895,0.108099997,0.075499997,9.767800331,0.101199999,-0.0557,0.0152
21:54:37.928,-0.019400001,0.064099997,9.830599785,-0.043900002,0.0283,0.106799997
21:54:37.960,-0.0122,-0.062199999,9.828800201,-0.211799994,-0.063299999,-0.0535
21:54:37.995,0.0447,-0.072899997,9.762399673,-0.066799998,-0.040399998,-0.068800002
21:54:38.025,-0.031300001,0.015699999,9.815699577,0.238600001,0.119900003,0.190799996
21:54:38.060,-0.0134,0.0043,9.833000183,0.101199999,-0.101499997,0.061000001
21:54:38.093,0.086599998,0.0845,9.814499855,0.032499999,-0.101499997,-0.045899998
21:54:38.129,0.0076,0.047400001,9.810899734,-0.120200001,0.081699997,0.0076
21:54:38.157,-0.085199997,-0.094499998,9.804900169,-0.257600009,0.066399999,0.045699999
21:54:38.190,-0.0152,-0.108800001,9.751000404,-0.036200002,-0.071000002,-0.0153
21:54:38.231,0.094400004,0.0133,9.769000053,0.32249999,-0.078599997,0.0076
21:54:38.260,0.0022,0.095299996,9.859999657,0.177499995,0.051199999,-0.0077
21:54:38.292,-0.0229,0.0647,9.850399971,-0.265199989,-0.0557,-0.122199997
21:54:38.324,0.051899999,-0.024499999,9.769599915,-0.112599999,-0.0557,-0.038199998
21:54:38.357,-0.0295,-0.126200005,9.788100243,0.024800001,0.058800001,0.053399999
21:54:38.390,-0.047499999,-0.032200001,9.830599785,0.139300004,-0.0023,0.0381
21:54:38.422,0.062100001,0.049199998,9.819299698,0.147,-0.101499997,-0.0535
21:54:38.454,0.037500001,0.086300001,9.836000443,-0.0515,0.043499999,0.083899997
21:54:38.487,-0.018200001,-0.019099999,9.824000359,-0.2042,0.043499999,0.0152
21:54:38.520,0.0178,-0.087300003,9.782699585,-0.127800003,-0.086199999,0.0076
21:54:38.555,0.0034,-0.065200001,9.781499863,0.078299999,-0.0328,0.0076
21:54:38.587,-0.036699999,-0.0089,9.838999748,0.185100004,-0.063299999,0.083899997
21:54:38.622,0.0058,0.031800002,9.80189991,0.0019,-0.0252,0.0076
21:54:38.652,0.054900002,0.067100003,9.825799942,0.047699999,-0.101499997,-0.061099999
21:54:38.688,0.0064,-0.0394,9.769000053,-0.150700003,0.0283,-0.106899999
21:54:38.723,-0.0583,-0.100500003,9.81210041,-0.219400004,0.0283,-0.0535
21:54:38.751,0.0088,-0.0634,9.785099983,0.093500003,-0.048099998,0.068599999
21:54:38.784,0.0261,0.050999999,9.771400452,0.261500001,0.0054,0.0381
21:54:38.819,0.007,0.107799999,9.842599869,0.085900001,0.097000003,-0.0153
21:54:38.850,0.013,0.0414,9.782699585,-0.211799994,-0.048099998,-0.0306
21:54:38.885,0.023700001,-0.055,9.777999878,-0.219400004,0.0206,-0.068800002
21:54:38.917,-0.0385,-0.085500002,9.794699669,0.055399999,0.0283,-0.0001
21:54:38.950,-0.0152,0.0067,9.796500206,0.047699999,-0.0328,0.0152
21:54:38.982,0.039900001,0.028200001,9.776800156,0.093500003,-0.0557,-0.0153
21:54:39.015,-0.0134,0.062899999,9.825799942,-0.0133,0.081699997,-0.106899999
21:54:39.048,-0.0283,0.0019,9.841400146,-0.120200001,0.0283,0.0228
21:54:39.082,0.090800002,-0.0077,8.999199867,-0.066799998,-1.063300014,-0.083999999
21:54:39.115,-0.088200003,-0.040600002,9.396699905,-0.708000004,-0.399199992,-0.061099999
21:54:39.147,-0.359299988,0.221000001,10.05510044,1.398900032,-0.1778,0.1373
21:54:39.187,0.179399997,-0.088500001,9.906000137,-0.181299999,-0.368699998,0.053399999
21:54:39.214,0.190699995,0.0097,9.97369957,-0.410299987,-0.1778,-0.129800007
21:54:39.248,-0.121699996,0.0276,9.990400314,-0.540000021,0.394699991,0.1373
21:54:39.280,-0.252200007,0.053399999,9.86590004,0.101199999,0.0054,-0.023
21:54:39.313,0.120099999,-0.136399999,9.786299706,0.154599994,-0.399199992,-0.0001
21:54:39.346,0.152400002,-0.091499999,9.700699806,-0.364499986,0.173299998,0.1373
21:54:39.386,-0.144400001,0.118000001,9.913200378,0.284399986,0.097000003,0.053399999
21:54:39.414,-0.0559,-0.021500001,9.85340023,0.070600003,-0.071000002,-0.091700003
21:54:39.445,0.136899993,-0.026799999,9.743800163,-0.31099999,0.127499998,0.0228
21:54:39.478,-0.051100001,0.0581,9.803099632,0.177499995,0.0206,0.106799997
21:54:39.512,-0.1043,-0.059799999,9.882100105,-0.043900002,-0.0252,-0.0306
21:54:39.546,0.140499994,-0.019099999,9.722900391,0.032499999,-0.170200005,-0.0535
21:54:39.579,-0.036699999,0.042599998,9.80189991,0.147,0.0283,0.114399999
21:54:39.609,-0.089400001,-0.016100001,9.919199944,0.055399999,0.0283,0.045699999
21:54:39.646,0.092,0.015699999,9.749799728,-0.196500003,-0.193100005,-0.083999999
21:54:39.676,0.056699999,0.0049,9.80850029,-0.066799998,0.0054,0.099200003
21:54:39.712,-0.111500002,-0.0867,9.856399536,0.093500003,0.165700004,0.045699999
21:54:39.743,0.0112,0.034200002,9.762399673,0.017200001,-0.093900003,-0.045899998
21:54:39.774,0.090800002,0.0294,9.76720047,-0.036200002,-0.063299999,-0.068800002
21:54:39.808,-0.071999997,-0.0262,9.851599693,0.040100001,0.112199999,0.091499999
21:54:39.842,-0.032499999,0.0073,9.792300224,-0.066799998,-0.048099998,-0.0001
21:54:39.873,0.0579,-0.0095,9.798299789,0.101199999,-0.131999999,-0.068800002
21:54:39.910,0.0142,-0.0113,9.827599525,0.116400003,0.119900003,0.091499999
21:54:39.940,-0.018200001,0.0294,9.822199821,-0.059099998,-0.048099998,0.0152
21:54:39.973,0.034499999,0.0061,9.834199905,0.032499999,-0.040399998,0.0152
21:54:40.005,0.0219,-0.059799999,9.780900002,-0.089699998,0.089299999,-0.0153
21:54:40.043,-0.063600004,-0.016100001,9.813899994,0.017200001,0.013,0.0228
21:54:40.073,-0.002,0.0151,9.822799683,0.314900011,-0.109099999,-0.099299997
21:54:40.104,0.077600002,0.0061,9.829999924,0.162200004,0.0206,-0.023
21:54:40.137,0.021299999,0.027000001,9.794699669,-0.165999994,0.0206,0.076300003
21:54:40.172,-0.0319,-0.0005,9.845000267,-0.0515,-0.124399997,-0.083999999
21:54:40.208,0.0106,-0.055599999,9.80189991,0.017200001,-0.0328,-0.0306
21:54:40.236,-0.0092,-0.032200001,9.776800156,0.093500003,0.051199999,0.152600005
21:54:40.269,0.0166,0.021,9.836000443,0.391299993,-0.093900003,0.106799997
21:54:40.306,0.055500001,0.051600002,9.830599785,-0.0286,-0.0252,-0.0306
21:54:40.340,0.037500001,0.048,9.799500465,-0.479000002,-0.040399998,-0.068800002
21:54:40.369,-0.036699999,-0.100500003,9.806099892,-0.0133,-0.0023,-0.0535
21:54:40.407,-0.0253,-0.114200003,9.763600349,-0.104900002,0.074100003,-0.023
21:54:40.440,0.057300001,0.057,9.797699928,0.147,-0.086199999,-0.076399997
21:54:40.467,0.0076,0.076700002,9.829999924,0.093500003,-0.0252,0.053399999
21:54:40.503,0.001,0.059300002,9.798899651,-0.188899994,-0.040399998,-0.091700003
21:54:40.533,-0.0038,-0.0221,9.816300392,-0.043900002,0.081699997,0.076300003
21:54:40.566,0.016000001,-0.057399999,9.834199905,-0.0744,0.043499999,0.053399999
21:54:40.599,0.013,-0.0095,9.826999664,-0.158399999,-0.063299999,-0.023
21:54:40.637,0.0076,0.032400001,9.855199814,0.353100002,-0.147300005,0.076300003
21:54:40.667,0.045299999,0.0145,9.807900429,-0.036200002,-0.086199999,-0.0535
21:54:40.698,0.077600002,0.027000001,9.802499771,-0.043900002,-0.040399998,0.061000001
21:54:40.731,-0.0086,-0.046599999,9.796500206,-0.0286,0.058800001,-0.0153
21:54:40.766,-0.0134,-0.0418,9.827599525,-0.082000002,-0.0328,0.053399999
21:54:40.797,0.034499999,0.021,9.795900345,0.085900001,-0.040399998,-0.0077
21:54:40.830,0.042300001,-0.0262,9.791700363,0.055399999,0.112199999,0.0381
21:54:40.865,0.004,0.061700001,9.833600044,0.078299999,0.104599997,-0.0153
21:54:40.896,0.0058,0.0061,9.818099976,0.063000001,-0.0328,0.053399999
21:54:40.932,0.0297,-0.069300003,9.762399673,-0.2042,-0.0252,0.0381
21:54:40.963,0.020199999,-0.0095,9.807900429,0.139300004,-0.093900003,-0.0306
21:54:40.995,0.0429,0.033599999,9.829400063,0.238600001,-0.0328,0.0152
21:54:41.028,0.0219,0.0372,9.807299614,-0.188899994,0.0054,0.0228
21:54:41.061,0.048900001,0.068899997,9.833000183,0.162200004,-0.0252,0.0152
21:54:41.095,-0.0229,-0.068099998,9.794099808,-0.0744,-0.109099999,-0.068800002
21:54:41.129,0.0022,-0.057999998,9.807900429,-0.158399999,0.0054,-0.045899998
21:54:41.161,0.048300002,0.046799999,9.829999924,0.330199987,-0.093900003,0.0228
21:54:41.204,-0.0176,0.051600002,9.874899864,-0.089699998,0.0283,-0.068800002
21:54:41.228,0.024900001,0.045000002,9.847399712,-0.021,-0.0175,-0.0077
